Subj_idx,Stimulus,Response,Confidence,RT_dec,RT_conf,Condition,Accuracy,Difficulty,Gender,Age,Fix_time,Block,Conf_key,Trial,L_dots,R_dots
1,2,NaN,4.0,NaN,0.6517718000000001,1,1,2,1,19.0,60,0,p,0,48,52
1,2,NaN,4.0,NaN,0.5850488,1,1,2,1,19.0,60,0,p,1,48,52
1,1,NaN,4.0,NaN,0.6523502,1,0,2,1,19.0,60,0,p,2,52,48
1,1,1.0,4.0,0.8122998,0.6988883,1,1,1,1,19.0,60,0,p,3,55,45
1,1,NaN,4.0,NaN,1.0191703,1,0,3,1,19.0,60,0,p,4,51,49
1,1,1.0,4.0,0.7233656999999999,0.5500361999999999,1,1,3,1,19.0,70,0,p,5,51,49
1,1,NaN,4.0,NaN,0.0361187,1,0,2,1,19.0,50,0,p,6,52,48
1,2,NaN,4.0,NaN,0.5688173000000001,1,1,3,1,19.0,50,0,p,7,49,51
1,2,NaN,4.0,NaN,0.4521916,1,1,1,1,19.0,50,0,p,8,45,55
1,1,1.0,4.0,0.7727335,0.5149807,1,1,1,1,19.0,70,0,p,9,55,45
1,2,NaN,4.0,NaN,0.6195906,1,1,3,1,19.0,70,0,p,10,49,51
1,2,NaN,4.0,NaN,0.7192647,1,1,3,1,19.0,60,0,p,11,49,51
1,1,1.0,4.0,0.6067548,0.4661814,1,1,3,1,19.0,50,0,p,12,51,49
1,2,NaN,4.0,NaN,0.45217840000000004,1,1,3,1,19.0,60,0,p,13,49,51
1,2,NaN,3.0,NaN,0.6688816999999999,1,1,2,1,19.0,70,0,o,14,48,52
1,1,1.0,4.0,0.6010309,0.9144783000000001,1,1,2,1,19.0,70,0,p,17,52,48
1,2,NaN,2.0,NaN,1.0191046000000001,1,1,1,1,19.0,50,0,i,18,45,55
1,2,NaN,2.0,NaN,1.40315,1,1,3,1,19.0,70,0,i,19,49,51
1,2,1.0,NaN,0.8382726,1.6999336999999999,1,0,1,1,19.0,70,0,h,20,45,55
1,1,NaN,1.0,NaN,1.7191421000000002,1,0,1,1,19.0,60,0,u,21,55,45
1,1,1.0,2.0,0.3055483,1.2993879,1,1,3,1,19.0,70,0,i,22,51,49
1,2,1.0,1.0,0.8499456,0.6981398,1,0,2,1,19.0,50,0,u,23,48,52
1,1,1.0,3.0,0.7482699,0.8483381,1,1,1,1,19.0,50,0,o,24,55,45
1,1,NaN,3.0,NaN,0.6518297,1,0,3,1,19.0,50,0,o,25,51,49
1,2,NaN,4.0,NaN,0.4861363,1,1,1,1,19.0,60,0,p,26,45,55
1,2,NaN,4.0,NaN,0.7035675,1,1,1,1,19.0,70,0,p,27,45,55
1,1,1.0,4.0,0.8592154000000001,0.7667385,1,1,2,1,19.0,60,0,p,28,52,48
1,2,1.0,3.0,0.9570489,0.5492981,1,0,2,1,19.0,50,0,o,29,48,52
1,2,NaN,4.0,NaN,0.7186648,1,1,2,1,19.0,60,0,p,31,48,52
1,2,NaN,2.0,NaN,0.7683831,1,1,2,1,19.0,70,0,i,32,48,52
1,1,1.0,3.0,0.8743625,0.8984155,1,1,1,1,19.0,60,0,o,33,55,45
1,1,NaN,4.0,NaN,0.8193444999999999,1,0,3,1,19.0,70,0,p,34,51,49
1,2,NaN,4.0,NaN,0.6189821,1,1,3,1,19.0,50,0,p,35,49,51
1,2,NaN,4.0,NaN,0.7372257,1,1,2,1,19.0,60,0,p,36,48,52
1,2,NaN,3.0,NaN,1.0365463,1,1,3,1,19.0,70,0,o,37,49,51
1,1,NaN,3.0,NaN,0.9710924000000001,1,0,3,1,19.0,50,0,o,38,51,49
1,1,NaN,3.0,NaN,1.4362694999999999,1,0,3,1,19.0,50,0,o,39,51,49
1,1,1.0,4.0,0.2704557,0.9994902,1,1,1,1,19.0,70,0,p,40,55,45
1,1,1.0,2.0,0.7572604000000001,0.9328404,1,1,3,1,19.0,70,0,i,41,51,49
1,2,NaN,4.0,NaN,0.5863122,1,1,3,1,19.0,70,0,p,42,49,51
1,2,NaN,4.0,NaN,0.7867858,1,1,1,1,19.0,70,0,p,43,45,55
1,1,NaN,3.0,NaN,1.0198784,1,0,1,1,19.0,50,0,o,44,55,45
1,1,NaN,3.0,NaN,0.9367392,1,0,3,1,19.0,60,0,o,45,51,49
1,1,1.0,2.0,0.762694,0.7157106,1,1,1,1,19.0,50,0,i,47,55,45
1,1,NaN,2.0,NaN,0.8199605,1,0,1,1,19.0,60,0,i,48,55,45
1,1,NaN,3.0,NaN,0.753709,1,0,2,1,19.0,60,0,o,49,52,48
1,1,1.0,3.0,0.7897156999999999,0.8186683000000001,1,1,2,1,19.0,70,0,o,50,52,48
1,2,NaN,2.0,NaN,0.9036008,1,1,2,1,19.0,50,0,i,51,48,52
1,2,1.0,2.0,0.9057985999999999,1.1176545,1,0,3,1,19.0,60,0,i,52,49,51
1,1,NaN,1.0,NaN,1.1035245,1,0,2,1,19.0,60,0,u,53,52,48
1,2,1.0,4.0,0.5902473000000001,1.0814506000000002,1,0,2,1,19.0,50,0,p,54,48,52
1,1,1.0,4.0,0.7579183,0.8668789000000001,1,1,2,1,19.0,70,0,p,55,52,48
1,2,1.0,NaN,0.8898478000000001,1.5839656000000002,1,0,1,1,19.0,50,0,h,56,45,55
1,1,NaN,2.0,NaN,1.4363986999999998,1,0,2,1,19.0,50,0,i,57,52,48
1,2,NaN,NaN,NaN,1.4024138000000002,1,1,3,1,19.0,60,0,h,58,49,51
1,2,NaN,4.0,NaN,0.7715054,1,1,1,1,19.0,70,0,p,59,45,55
1,1,NaN,4.0,NaN,0.7538676,1,0,3,1,19.0,50,0,p,60,51,49
1,1,NaN,4.0,NaN,0.83678,1,0,3,1,19.0,70,0,p,61,51,49
1,2,NaN,4.0,NaN,0.8023508,1,1,3,1,19.0,50,0,p,62,49,51
1,2,NaN,4.0,NaN,0.8019293000000001,1,1,2,1,19.0,60,0,p,63,48,52
1,1,NaN,2.0,NaN,0.7359117,1,0,2,1,19.0,60,0,i,64,52,48
1,2,NaN,4.0,NaN,0.6700735999999999,1,1,1,1,19.0,70,0,p,65,45,55
1,2,NaN,4.0,NaN,1.0044036,1,1,1,1,19.0,50,0,p,66,45,55
1,2,NaN,4.0,NaN,0.7534833000000001,1,1,1,1,19.0,50,0,p,67,45,55
1,1,1.0,2.0,0.8572496,0.6676810999999999,1,1,1,1,19.0,60,0,i,68,55,45
1,1,NaN,4.0,NaN,0.9535056000000001,1,0,2,1,19.0,50,0,p,69,52,48
1,1,1.0,4.0,0.7612434,0.5833056,1,1,1,1,19.0,50,0,p,70,55,45
1,1,1.0,1.0,0.8735178,1.2678947,1,1,2,1,19.0,70,0,u,71,52,48
1,2,NaN,4.0,NaN,0.9034781999999999,1,1,2,1,19.0,70,0,p,72,48,52
1,2,NaN,2.0,NaN,0.9870445999999999,1,1,3,1,19.0,70,0,i,73,49,51
1,2,1.0,NaN,0.8070118000000001,1.4507427,1,0,3,1,19.0,60,0,h,74,49,51
1,1,NaN,4.0,NaN,0.8043811,1,0,1,1,19.0,70,0,p,75,55,45
1,1,NaN,4.0,NaN,0.7201470999999999,1,0,3,1,19.0,60,0,p,76,51,49
1,2,NaN,4.0,NaN,0.8365994000000001,1,1,3,1,19.0,70,0,p,77,49,51
1,1,NaN,3.0,NaN,0.8366450999999999,1,0,1,1,19.0,50,0,o,78,55,45
1,2,NaN,4.0,NaN,0.7358389,1,1,2,1,19.0,60,0,p,79,48,52
1,2,NaN,2.0,NaN,0.7198813000000001,1,1,2,1,19.0,50,0,i,80,48,52
1,2,NaN,NaN,NaN,1.5034803999999997,1,1,3,1,19.0,60,0,h,81,49,51
1,1,1.0,3.0,0.661624,0.6841801,1,1,2,1,19.0,60,0,o,82,52,48
1,1,1.0,1.0,0.9069545,0.6674093000000001,1,1,3,1,19.0,50,0,u,83,51,49
1,1,1.0,4.0,0.789093,0.5660499,1,1,1,1,19.0,60,0,p,84,55,45
1,2,NaN,3.0,NaN,0.9032259,1,1,1,1,19.0,70,0,o,85,45,55
1,1,1.0,4.0,0.7460988000000001,0.6510166999999999,1,1,2,1,19.0,70,0,p,86,52,48
1,2,1.0,NaN,0.8545643,1.9337863999999998,1,0,1,1,19.0,60,0,h,87,45,55
1,2,NaN,4.0,NaN,0.5123675,1,1,2,1,19.0,50,0,p,88,48,52
1,1,NaN,4.0,NaN,0.4530768,1,0,3,1,19.0,70,0,p,89,51,49
1,1,1.0,3.0,0.55735,1.0495927999999999,1,1,2,1,19.0,60,0,o,90,52,48
1,2,NaN,4.0,NaN,0.43748990000000004,1,1,1,1,19.0,50,0,p,91,45,55
1,1,NaN,4.0,NaN,0.4539858,1,0,2,1,19.0,70,0,p,92,52,48
1,1,NaN,3.0,NaN,0.5194018,1,0,3,1,19.0,50,0,o,93,51,49
1,2,1.0,3.0,0.2582127,0.9663276,1,0,3,1,19.0,70,0,o,94,49,51
1,1,1.0,4.0,0.7675909000000001,0.7985563,1,1,3,1,19.0,60,0,p,95,51,49
1,1,1.0,3.0,0.5881501,1.3484771999999998,1,1,3,1,19.0,70,0,o,97,51,49
1,2,1.0,3.0,0.9551457,0.5316142,1,0,3,1,19.0,60,0,o,98,49,51
1,1,1.0,3.0,0.7046316,0.7182759,1,1,2,1,19.0,70,0,o,99,52,48
1,2,NaN,4.0,NaN,0.6875199000000001,1,1,3,1,19.0,60,0,p,100,49,51
1,2,NaN,4.0,NaN,0.5706781999999999,1,1,1,1,19.0,70,0,p,101,45,55
1,2,1.0,3.0,0.838245,0.5842265,1,0,2,1,19.0,60,0,o,102,48,52
1,1,NaN,4.0,NaN,0.7191906,1,0,2,1,19.0,50,0,p,103,52,48
1,2,NaN,3.0,NaN,0.9862889000000001,1,1,2,1,19.0,60,0,o,104,48,52
1,1,1.0,2.0,0.6909301999999999,0.5989521,1,1,1,1,19.0,60,0,i,105,55,45
1,2,1.0,NaN,0.7981839,1.0012543999999999,1,0,2,1,19.0,50,0,h,106,48,52
1,1,NaN,2.0,NaN,0.9712772,1,0,3,1,19.0,50,0,i,107,51,49
1,2,1.0,4.0,0.9155989,0.5849475000000001,1,0,1,1,19.0,50,0,p,108,45,55
1,1,1.0,2.0,0.7362703,0.6012526,1,1,1,1,19.0,50,0,i,109,55,45
1,1,1.0,1.0,0.6924764,0.8153393,1,1,1,1,19.0,60,0,u,110,55,45
1,2,NaN,4.0,NaN,0.5194964,1,1,2,1,19.0,70,0,p,111,48,52
1,2,NaN,2.0,NaN,1.0358341,1,1,2,1,19.0,50,0,i,112,48,52
1,1,1.0,4.0,0.6403284,1.0174848,1,1,1,1,19.0,50,0,p,113,55,45
1,2,NaN,4.0,NaN,0.5205004,1,1,1,1,19.0,70,0,p,114,45,55
1,2,NaN,4.0,NaN,0.420591,1,1,1,1,19.0,60,0,p,115,45,55
1,1,NaN,3.0,NaN,0.503413,1,0,3,1,19.0,70,0,o,116,51,49
1,1,NaN,4.0,NaN,0.8025084,1,0,2,1,19.0,60,0,p,117,52,48
1,2,1.0,4.0,0.8400498,0.6498839,1,0,3,1,19.0,50,0,p,118,49,51
1,2,NaN,4.0,NaN,0.6360741,1,1,3,1,19.0,70,0,p,119,49,51
1,1,NaN,4.0,NaN,0.819129,1,0,2,1,19.0,70,0,p,120,52,48
1,2,NaN,3.0,NaN,0.6194893,1,1,1,1,19.0,50,0,o,121,45,55
1,1,NaN,4.0,NaN,0.43668100000000004,1,0,3,1,19.0,50,0,p,122,51,49
1,1,NaN,4.0,NaN,0.4531353,1,0,1,1,19.0,70,0,p,123,55,45
1,2,1.0,4.0,0.308079,0.7994028000000001,1,0,2,1,19.0,60,0,p,124,48,52
1,2,NaN,4.0,NaN,0.3373954,1,1,2,1,19.0,50,0,p,125,48,52
1,1,1.0,3.0,0.8572755999999999,0.7507934,1,1,2,1,19.0,70,0,o,126,52,48
1,2,NaN,4.0,NaN,0.7526238000000001,1,1,3,1,19.0,50,0,p,127,49,51
1,2,NaN,4.0,NaN,0.4693299,1,1,3,1,19.0,60,0,p,128,49,51
1,2,NaN,3.0,NaN,0.6526304,1,1,3,1,19.0,60,0,o,129,49,51
1,2,NaN,4.0,NaN,0.48745070000000007,1,1,1,1,19.0,60,0,p,130,45,55
1,1,1.0,3.0,0.85721,0.951717,1,1,1,1,19.0,50,0,o,131,55,45
1,2,NaN,4.0,NaN,0.5380378,1,1,1,1,19.0,50,0,p,132,45,55
1,1,1.0,3.0,0.778624,0.7339906999999999,1,1,1,1,19.0,60,0,o,133,55,45
1,2,NaN,NaN,NaN,1.1360697,1,1,1,1,19.0,70,0,h,134,45,55
1,2,NaN,4.0,NaN,0.6853244000000001,1,1,2,1,19.0,50,0,p,135,48,52
1,2,NaN,3.0,NaN,0.5693871,1,1,1,1,19.0,70,0,o,136,45,55
1,1,1.0,4.0,0.6084951999999999,0.6481988000000001,1,1,2,1,19.0,60,0,p,137,52,48
1,2,NaN,4.0,NaN,0.6203981,1,1,2,1,19.0,70,0,p,138,48,52
1,1,1.0,4.0,0.5758308000000001,0.6777914,1,1,1,1,19.0,50,0,p,139,55,45
1,2,1.0,3.0,0.6560509,0.6838884,1,0,3,1,19.0,70,0,o,140,49,51
1,1,1.0,4.0,0.8743905000000001,0.6677938,1,1,3,1,19.0,70,0,p,141,51,49
1,1,1.0,4.0,0.7356060999999999,0.9673162000000001,1,1,2,1,19.0,50,0,p,142,52,48
1,1,NaN,1.0,NaN,1.3021713,1,0,3,1,19.0,50,0,u,143,51,49
1,2,1.0,2.0,0.9074791999999999,0.9988030000000001,1,0,3,1,19.0,70,0,i,144,49,51
1,2,NaN,4.0,NaN,0.803312,1,1,2,1,19.0,60,0,p,145,48,52
1,1,NaN,2.0,NaN,0.9878115,1,0,1,1,19.0,60,0,i,146,55,45
1,1,1.0,2.0,0.3597023,1.0010695,1,1,2,1,19.0,60,0,i,147,52,48
1,1,1.0,3.0,0.4751581,0.7007507,1,1,3,1,19.0,60,0,o,148,51,49
1,1,1.0,2.0,0.43958050000000004,0.8340098,1,1,3,1,19.0,70,0,i,149,51,49
1,2,NaN,4.0,NaN,0.4375344,1,1,1,1,19.0,50,0,p,150,45,55
1,2,1.0,3.0,0.6742376999999999,0.7495823,1,0,1,1,19.0,70,0,o,151,45,55
1,2,NaN,4.0,NaN,0.7022348,1,1,2,1,19.0,50,0,p,152,48,52
1,2,NaN,4.0,NaN,0.4191152,1,1,2,1,19.0,60,0,p,153,48,52
1,1,1.0,3.0,0.6889525,0.6008272,1,1,1,1,19.0,60,0,o,154,55,45
1,1,NaN,NaN,NaN,1.4543342,1,0,3,1,19.0,70,0,h,155,51,49
1,2,NaN,4.0,NaN,0.6869839,1,1,3,1,19.0,60,0,p,156,49,51
1,1,1.0,3.0,0.8911825999999999,0.6517649,1,1,1,1,19.0,50,0,o,157,55,45
1,2,NaN,4.0,NaN,0.5205523,1,1,1,1,19.0,50,0,p,158,45,55
1,2,NaN,4.0,NaN,0.45190340000000007,1,1,3,1,19.0,70,0,p,159,49,51
1,2,NaN,4.0,NaN,0.7020751000000001,1,1,1,1,19.0,70,0,p,160,45,55
1,1,NaN,1.0,NaN,0.8530777,1,0,3,1,19.0,50,0,u,161,51,49
1,1,1.0,3.0,0.9088814000000001,0.8331004000000001,1,1,3,1,19.0,70,0,o,162,51,49
1,1,1.0,3.0,0.8257167,0.7176719,1,1,1,1,19.0,50,0,o,163,55,45
1,1,1.0,2.0,0.7569536,0.6674611999999999,1,1,2,1,19.0,60,0,i,164,52,48
1,2,NaN,3.0,NaN,0.6534506999999999,1,1,2,1,19.0,70,0,o,165,48,52
1,2,NaN,4.0,NaN,0.5533170000000001,1,1,2,1,19.0,50,0,p,166,48,52
1,2,NaN,4.0,NaN,0.5354338000000001,1,1,1,1,19.0,60,0,p,167,45,55
1,1,1.0,3.0,0.6400697,0.851216,1,1,2,1,19.0,70,0,o,168,52,48
1,2,NaN,3.0,NaN,0.8190479,1,1,3,1,19.0,70,0,o,169,49,51
1,1,1.0,4.0,0.8445759,0.6344989999999999,1,1,3,1,19.0,60,0,p,170,51,49
1,2,NaN,2.0,NaN,1.0520245000000001,1,1,3,1,19.0,60,0,i,171,49,51
1,2,NaN,3.0,NaN,0.4529478,1,1,2,1,19.0,60,0,o,172,48,52
1,1,NaN,4.0,NaN,0.4868505,1,0,2,1,19.0,60,0,p,173,52,48
1,1,NaN,4.0,NaN,0.6375305,1,0,3,1,19.0,50,0,p,174,51,49
1,1,1.0,4.0,0.5743763000000001,0.5330826999999999,1,1,1,1,19.0,60,0,p,175,55,45
1,1,1.0,3.0,0.6845962,0.6324624,1,1,2,1,19.0,70,0,o,176,52,48
1,1,NaN,4.0,NaN,0.35275290000000004,1,0,2,1,19.0,50,0,p,177,52,48
1,1,1.0,3.0,0.9077358,0.8338698,1,1,1,1,19.0,70,0,o,178,55,45
1,2,1.0,4.0,0.5539588000000001,0.6020535,1,0,3,1,19.0,50,0,p,179,49,51
1,1,NaN,4.0,NaN,0.5346181999999999,1,0,2,1,19.0,60,0,p,180,52,48
1,1,1.0,4.0,0.690442,0.6841884,1,1,1,1,19.0,50,0,p,181,55,45
1,1,NaN,4.0,NaN,0.42029220000000006,1,0,3,1,19.0,70,0,p,182,51,49
1,2,NaN,4.0,NaN,0.4029772,1,1,2,1,19.0,70,0,p,183,48,52
1,2,NaN,4.0,NaN,0.3698555,1,1,3,1,19.0,60,0,p,184,49,51
1,2,NaN,4.0,NaN,0.3858041,1,1,1,1,19.0,50,0,p,185,45,55
1,2,NaN,4.0,NaN,0.33570059999999996,1,1,1,1,19.0,70,0,p,186,45,55
1,1,NaN,4.0,NaN,0.3200783,1,0,3,1,19.0,70,0,p,187,51,49
1,1,1.0,3.0,0.9644742000000001,0.7497661,1,1,3,1,19.0,50,0,o,188,51,49
1,1,1.0,2.0,0.7921553000000001,0.5677371999999999,1,1,2,1,19.0,70,0,i,189,52,48
1,2,NaN,3.0,NaN,0.6375841,1,1,2,1,19.0,60,0,o,190,48,52
1,2,1.0,2.0,0.7892824,1.4000329,1,0,2,1,19.0,50,0,i,191,48,52
1,1,1.0,3.0,0.8898450999999999,0.715689,1,1,3,1,19.0,60,0,o,192,51,49
1,2,NaN,4.0,NaN,0.4696732,1,1,1,1,19.0,70,0,p,193,45,55
1,1,1.0,4.0,0.7080213000000001,0.5314243000000001,1,1,1,1,19.0,70,0,p,194,55,45
1,1,NaN,4.0,NaN,0.3534731,1,0,2,1,19.0,60,0,p,195,52,48
1,2,1.0,3.0,0.5910685,0.7352097,1,0,2,1,19.0,60,0,o,196,48,52
1,2,NaN,4.0,NaN,0.3873076,1,1,1,1,19.0,50,0,p,197,45,55
1,2,1.0,2.0,0.7955405,0.7679053000000001,1,0,3,1,19.0,60,0,i,198,49,51
1,1,1.0,3.0,0.7228222,0.765008,1,1,3,1,19.0,50,0,o,199,51,49
1,1,1.0,4.0,0.7078726,0.5148649000000001,1,1,1,1,19.0,50,0,p,200,55,45
1,2,NaN,4.0,NaN,0.45294059999999997,1,1,1,1,19.0,60,0,p,201,45,55
1,1,1.0,4.0,0.64161,0.6007683000000001,1,1,1,1,19.0,60,0,p,202,55,45
1,2,NaN,3.0,NaN,0.6534595999999999,1,1,3,1,19.0,50,0,o,203,49,51
1,1,1.0,4.0,0.6569859,0.6178967,1,1,2,1,19.0,50,0,p,204,52,48
1,1,NaN,4.0,NaN,0.3528698,1,0,2,1,19.0,70,0,p,205,52,48
1,1,1.0,3.0,0.6735846999999999,0.7485689999999999,1,1,1,1,19.0,60,0,o,206,55,45
1,2,NaN,4.0,NaN,0.6354888000000001,1,1,2,1,19.0,50,0,p,207,48,52
1,2,NaN,4.0,NaN,0.7699549,1,1,3,1,19.0,70,0,p,208,49,51
1,2,NaN,3.0,NaN,0.4031865,1,1,3,1,19.0,70,0,o,209,49,51
1,2,NaN,4.0,NaN,0.487407,1,1,3,1,19.0,60,0,p,210,49,51
1,2,1.0,3.0,0.5241754,0.7009962,1,0,2,1,19.0,60,0,o,211,48,52
1,1,NaN,2.0,NaN,0.7862697,1,0,2,1,19.0,60,0,i,212,52,48
1,2,NaN,4.0,NaN,0.5200664,1,1,1,1,19.0,70,0,p,213,45,55
1,2,NaN,4.0,NaN,0.6696413,1,1,2,1,19.0,60,0,p,214,48,52
1,2,NaN,4.0,NaN,0.8192988000000001,1,1,1,1,19.0,70,0,p,215,45,55
1,1,1.0,3.0,0.2831474,0.7815076,1,1,1,1,19.0,60,0,o,216,55,45
1,1,NaN,4.0,NaN,0.4198393,1,0,3,1,19.0,60,0,p,217,51,49
1,2,NaN,4.0,NaN,0.5876653000000001,1,1,3,1,19.0,70,0,p,218,49,51
1,1,1.0,3.0,0.5694658,0.5177188,1,1,3,1,19.0,70,0,o,219,51,49
1,2,1.0,4.0,0.6047859999999999,0.5827756,1,0,3,1,19.0,70,0,p,220,49,51
1,1,1.0,3.0,0.4735617999999999,0.7004625,1,1,2,1,19.0,60,0,o,221,52,48
1,2,NaN,4.0,NaN,0.37042070000000005,1,1,3,1,19.0,60,0,p,222,49,51
1,2,NaN,4.0,NaN,0.4035641,1,1,1,1,19.0,60,0,p,223,45,55
1,1,NaN,4.0,NaN,0.3193479,1,0,3,1,19.0,50,0,p,224,51,49
1,1,1.0,2.0,0.7403553,0.4648084,1,1,2,1,19.0,70,0,i,225,52,48
1,1,1.0,4.0,0.5733166000000001,0.5664063,1,1,1,1,19.0,60,0,p,226,55,45
1,1,NaN,4.0,NaN,0.6200689,1,0,2,1,19.0,50,0,p,227,52,48
1,2,NaN,4.0,NaN,0.5375618000000001,1,1,1,1,19.0,50,0,p,228,45,55
1,1,NaN,NaN,NaN,1.3871731,1,0,3,1,19.0,50,0,h,229,51,49
1,2,1.0,1.0,0.8238861999999999,1.3676596,1,0,2,1,19.0,50,0,u,230,48,52
1,1,1.0,4.0,0.8212287,0.37962429999999997,1,1,1,1,19.0,50,0,p,231,55,45
1,1,1.0,4.0,0.6563001,0.44955,1,1,1,1,19.0,50,0,p,232,55,45
1,2,NaN,4.0,NaN,0.5189443,1,1,2,1,19.0,70,0,p,233,48,52
1,2,1.0,4.0,0.7581173000000001,0.5839765,1,0,3,1,19.0,50,0,p,234,49,51
1,1,1.0,4.0,0.8070126999999999,0.6005265000000001,1,1,2,1,19.0,70,0,p,235,52,48
1,2,1.0,4.0,0.9234829,0.45006809999999997,1,0,2,1,19.0,50,0,p,236,48,52
1,1,1.0,4.0,0.5952980999999999,0.6177529,1,1,1,1,19.0,70,0,p,237,55,45
1,1,NaN,3.0,NaN,0.40382579999999996,1,0,3,1,19.0,70,0,o,238,51,49
1,2,NaN,4.0,NaN,0.43666190000000005,1,1,1,1,19.0,50,0,p,239,45,55
1,1,NaN,4.0,NaN,0.4361224,1,0,3,1,19.0,60,0,p,240,51,49
1,1,1.0,4.0,0.6338220999999999,0.5172069,1,1,2,1,19.0,60,0,p,241,52,48
1,2,NaN,3.0,NaN,0.487843,1,1,2,1,19.0,50,0,o,242,48,52
1,2,NaN,4.0,NaN,0.3866452,1,1,2,1,19.0,60,0,p,243,48,52
1,1,NaN,4.0,NaN,0.35259029999999997,1,0,3,1,19.0,70,0,p,244,51,49
1,1,1.0,4.0,0.5078600999999999,0.5007064,1,1,3,1,19.0,70,0,p,245,51,49
1,2,NaN,4.0,NaN,0.5037126000000001,1,1,1,1,19.0,60,0,p,246,45,55
1,2,NaN,4.0,NaN,0.3695966,1,1,1,1,19.0,70,0,p,247,45,55
1,2,1.0,3.0,0.6029361,0.6815325,1,0,3,1,19.0,70,0,o,248,49,51
1,2,NaN,4.0,NaN,0.48584340000000004,1,1,2,1,19.0,60,0,p,249,48,52
1,1,1.0,3.0,0.6241357,0.6677503,1,1,1,1,19.0,50,0,o,250,55,45
1,1,NaN,1.0,NaN,1.2038664,1,0,2,1,19.0,70,0,u,251,52,48
1,1,1.0,4.0,0.7408206,0.550996,1,1,1,1,19.0,60,0,p,252,55,45
1,1,NaN,4.0,NaN,0.7873893,1,0,2,1,19.0,50,0,p,253,52,48
1,2,1.0,3.0,0.7588494,0.6995165,1,0,3,1,19.0,50,0,o,254,49,51
1,1,NaN,3.0,NaN,0.6360861,1,0,2,1,19.0,70,0,o,255,52,48
1,2,1.0,NaN,0.8577461,1.2840291000000001,1,0,1,1,19.0,50,0,h,256,45,55
1,2,1.0,3.0,0.5955522,0.7623194000000001,1,0,3,1,19.0,70,0,o,257,49,51
1,1,NaN,2.0,NaN,0.5200026,1,0,1,1,19.0,70,0,i,258,55,45
1,2,NaN,4.0,NaN,0.8200531999999999,1,1,1,1,19.0,70,0,p,259,45,55
1,1,NaN,1.0,NaN,0.6346159,1,0,1,1,19.0,50,0,u,260,55,45
1,2,1.0,3.0,0.6859251000000001,0.6504976,1,0,3,1,19.0,60,0,o,261,49,51
1,1,1.0,4.0,0.4786166,0.5335251,1,1,1,1,19.0,60,0,p,262,55,45
1,2,1.0,3.0,0.7351546999999999,0.6648968000000001,1,0,1,1,19.0,50,0,o,263,45,55
1,2,1.0,2.0,0.9344008,0.8165013000000001,1,0,2,1,19.0,70,0,i,264,48,52
1,1,NaN,4.0,NaN,0.7689953,1,0,3,1,19.0,50,0,p,265,51,49
1,1,1.0,3.0,0.43824700000000005,0.9172976999999999,1,1,2,1,19.0,60,0,o,266,52,48
1,1,1.0,3.0,0.6752493,0.5685925000000001,1,1,3,1,19.0,50,0,o,267,51,49
1,2,1.0,4.0,0.6584361,0.6681725000000001,1,0,2,1,19.0,50,0,p,268,48,52
1,2,1.0,3.0,0.7732227,0.6348075,1,0,3,1,19.0,60,0,o,269,49,51
1,2,NaN,4.0,NaN,0.5540823,1,1,1,1,19.0,50,0,p,270,45,55
1,1,1.0,3.0,0.49534269999999997,0.6334622,1,1,3,1,19.0,70,0,o,271,51,49
1,1,1.0,4.0,0.6537284000000001,0.4502358,1,1,1,1,19.0,50,0,p,272,55,45
1,2,NaN,4.0,NaN,0.4365135,1,1,2,1,19.0,60,0,p,273,48,52
1,2,1.0,NaN,0.8525193000000001,1.1016944,1,0,1,1,19.0,70,0,h,274,45,55
1,1,NaN,3.0,NaN,0.4024324,1,0,3,1,19.0,60,0,o,275,51,49
1,1,1.0,2.0,0.8574155999999999,0.5674383000000001,1,1,3,1,19.0,70,0,i,276,51,49
1,1,NaN,4.0,NaN,0.45321759999999994,1,0,2,1,19.0,50,0,p,277,52,48
1,2,NaN,4.0,NaN,0.41903640000000003,1,1,1,1,19.0,60,0,p,278,45,55
1,1,1.0,4.0,0.6856547,0.581947,1,1,2,1,19.0,70,0,p,279,52,48
1,1,1.0,3.0,0.8277875,0.4510467000000001,1,1,1,1,19.0,70,0,o,280,55,45
1,1,1.0,4.0,0.5701168000000001,0.43344799999999994,1,1,2,1,19.0,60,0,p,281,52,48
1,1,1.0,4.0,0.6491452,0.38446929999999996,1,1,1,1,19.0,50,0,p,282,55,45
1,1,1.0,4.0,0.7133009,0.31539720000000004,1,1,3,1,19.0,50,0,p,283,51,49
1,2,NaN,4.0,NaN,0.3710738,1,1,1,1,19.0,50,0,p,284,45,55
1,1,NaN,4.0,NaN,0.3705415,1,0,2,1,19.0,60,0,p,285,52,48
1,2,1.0,2.0,0.68118,0.7317670000000001,1,0,2,1,19.0,50,0,i,286,48,52
1,1,1.0,4.0,0.6892678000000001,0.3484449,1,1,1,1,19.0,60,0,p,287,55,45
1,2,1.0,3.0,0.7073851,0.4174237,1,0,2,1,19.0,50,0,o,288,48,52
1,1,1.0,4.0,0.8907699,0.4648865,1,1,2,1,19.0,70,0,p,289,52,48
1,2,NaN,3.0,NaN,0.47015029999999997,1,1,3,1,19.0,70,0,o,290,49,51
1,1,1.0,2.0,0.8068585,0.4839892,1,1,1,1,19.0,60,0,i,291,55,45
1,2,NaN,4.0,NaN,0.43678459999999997,1,1,1,1,19.0,70,0,p,292,45,55
1,2,NaN,2.0,NaN,0.6533156999999999,1,1,3,1,19.0,60,0,i,293,49,51
1,2,NaN,2.0,NaN,0.9365993,1,1,2,1,19.0,60,0,i,294,48,52
1,1,1.0,3.0,0.5411746999999999,0.6342098,1,1,3,1,19.0,50,0,o,295,51,49
1,2,1.0,3.0,0.392104,0.6822333,1,0,3,1,19.0,50,0,o,296,49,51
1,2,1.0,3.0,0.33624570000000004,0.6316611,1,0,3,1,19.0,60,0,o,297,49,51
1,2,1.0,4.0,0.12526669999999998,0.7144825,1,0,2,1,19.0,70,0,p,298,48,52
1,2,1.0,NaN,0.2414522,0.9838366,1,0,3,1,19.0,70,0,h,299,49,51
1,2,NaN,4.0,NaN,0.45383690000000004,1,1,1,1,19.0,70,0,p,300,45,55
1,1,NaN,4.0,NaN,0.48702609999999996,1,0,2,1,19.0,50,0,p,301,52,48
1,1,1.0,2.0,0.9239970999999999,0.6333743000000001,1,1,3,1,19.0,70,0,i,302,51,49
1,1,1.0,4.0,0.9230921999999999,0.5317331999999999,1,1,3,1,19.0,60,0,p,303,51,49
1,1,1.0,4.0,0.5735145,0.49855029999999995,1,1,1,1,19.0,50,0,p,304,55,45
1,1,1.0,4.0,0.7576885999999999,0.5008108,1,1,1,1,19.0,60,0,p,305,55,45
1,2,NaN,4.0,NaN,0.4373933,1,1,1,1,19.0,50,0,p,306,45,55
1,1,1.0,4.0,0.358452,0.49990870000000004,1,1,1,1,19.0,50,0,p,307,55,45
1,1,1.0,4.0,0.4079026,0.5842936,1,1,2,1,19.0,70,0,p,308,52,48
1,1,1.0,4.0,0.4632611,0.38569309999999996,1,1,3,1,19.0,70,0,p,309,51,49
1,2,1.0,3.0,0.44409090000000007,0.6010196999999999,1,0,2,1,19.0,60,0,o,310,48,52
1,2,1.0,4.0,0.3722847,0.4494451,1,0,2,1,19.0,50,0,p,311,48,52
1,2,NaN,4.0,NaN,0.5037172999999999,1,1,2,1,19.0,70,0,p,312,48,52
1,2,1.0,3.0,0.3533962,0.6339708000000001,1,0,3,1,19.0,70,0,o,313,49,51
1,2,NaN,4.0,NaN,0.5373024000000001,1,1,3,1,19.0,50,0,p,314,49,51
1,2,NaN,4.0,NaN,0.7023811,1,1,1,1,19.0,50,0,p,315,45,55
1,2,NaN,4.0,NaN,0.5195847,1,1,1,1,19.0,70,0,p,316,45,55
1,2,NaN,2.0,NaN,0.6028178000000001,1,1,3,1,19.0,70,0,i,317,49,51
1,2,NaN,3.0,NaN,0.48715109999999995,1,1,2,1,19.0,50,0,o,318,48,52
1,2,NaN,4.0,NaN,0.5038893,1,1,1,1,19.0,60,0,p,319,45,55
1,1,1.0,3.0,0.7238066999999999,0.6841951000000001,1,1,3,1,19.0,50,0,o,320,51,49
1,1,1.0,4.0,0.2895297,0.6325259,1,1,2,1,19.0,70,0,p,321,52,48
1,1,NaN,3.0,NaN,0.47102429999999995,1,0,2,1,19.0,60,0,o,322,52,48
1,2,1.0,4.0,0.472204,0.6014715,1,0,3,1,19.0,60,0,p,323,49,51
1,2,1.0,2.0,0.4308322,0.6008836,1,0,2,1,19.0,60,0,i,324,48,52
1,1,1.0,3.0,0.3061667,0.5338921,1,1,2,1,19.0,60,0,o,325,52,48
1,1,NaN,4.0,NaN,0.4710374,1,0,3,1,19.0,50,0,p,326,51,49
1,1,1.0,4.0,0.6232863000000001,0.5492111,1,1,1,1,19.0,60,0,p,327,55,45
1,2,1.0,3.0,0.43939750000000005,0.6498911999999999,1,0,3,1,19.0,60,0,o,328,49,51
1,1,1.0,4.0,0.3228527,0.44849929999999993,1,1,1,1,19.0,70,0,p,329,55,45
1,1,NaN,4.0,NaN,0.3361854,1,0,3,1,19.0,70,0,p,330,51,49
1,2,NaN,3.0,NaN,0.4359175,1,1,2,1,19.0,50,0,o,331,48,52
1,2,NaN,4.0,NaN,0.3546864,1,1,1,1,19.0,70,0,p,332,45,55
1,2,1.0,4.0,0.3919331,0.48436540000000006,1,0,3,1,19.0,70,0,p,333,49,51
1,1,1.0,4.0,0.38976079999999996,0.36771040000000005,1,1,1,1,19.0,50,0,p,334,55,45
1,1,1.0,3.0,0.45200509999999994,0.30127919999999997,1,1,2,1,19.0,50,0,o,335,52,48
1,2,1.0,3.0,0.5849960999999999,0.4167496,1,0,3,1,19.0,60,0,o,336,49,51
1,1,1.0,2.0,0.6896781999999999,0.41607029999999995,1,1,2,1,19.0,70,0,i,337,52,48
1,2,NaN,4.0,NaN,0.48770909999999995,1,1,1,1,19.0,70,0,p,338,45,55
1,1,1.0,2.0,0.8246918,0.4348776,1,1,3,1,19.0,70,0,i,339,51,49
1,2,1.0,3.0,0.5583996999999999,0.45106199999999996,1,0,2,1,19.0,60,0,o,340,48,52
1,2,1.0,2.0,0.5570113,1.1348098999999998,1,0,3,1,19.0,70,0,i,341,49,51
1,2,1.0,3.0,0.5377009,0.6167020000000001,1,0,2,1,19.0,70,0,o,342,48,52
1,2,1.0,3.0,0.8683436999999999,1.0176451,1,0,2,1,19.0,50,0,o,343,48,52
1,2,NaN,4.0,NaN,0.3702424,1,1,1,1,19.0,50,0,p,344,45,55
1,1,NaN,3.0,NaN,0.319416,1,0,3,1,19.0,50,0,o,345,51,49
1,1,1.0,4.0,0.5565667,0.35030459999999997,1,1,1,1,19.0,70,0,p,346,55,45
1,1,1.0,3.0,0.5247274000000001,0.35142090000000004,1,1,3,1,19.0,50,0,o,347,51,49
1,1,1.0,3.0,0.41261499999999995,0.384422,1,1,2,1,19.0,60,0,o,348,52,48
1,2,1.0,3.0,0.42341419999999996,0.4834103,1,0,2,1,19.0,60,0,o,349,48,52
1,1,1.0,4.0,0.43968320000000005,0.41571800000000003,1,1,1,1,19.0,50,0,p,350,55,45
1,2,1.0,4.0,0.3572574,0.34944559999999997,1,0,1,1,19.0,50,0,p,351,45,55
1,1,1.0,4.0,0.25452929999999996,0.3769275,1,1,2,1,19.0,70,0,p,352,52,48
1,2,1.0,3.0,0.2917598,0.43184870000000003,1,0,3,1,19.0,60,0,o,353,49,51
1,1,1.0,2.0,0.40841079999999996,0.3852428,1,1,3,1,19.0,60,0,i,354,51,49
1,1,NaN,3.0,NaN,0.7536786999999999,1,0,1,1,19.0,60,0,o,355,55,45
1,1,1.0,3.0,0.49082429999999994,0.4175777,1,1,1,1,19.0,60,0,o,356,55,45
1,2,NaN,4.0,NaN,0.4363134,1,1,1,1,19.0,60,0,p,357,45,55
1,1,1.0,3.0,0.5754471,0.4687010999999999,1,1,2,1,19.0,60,0,o,358,52,48
1,2,NaN,1.0,NaN,0.9191947,1,1,3,1,19.0,50,0,u,359,49,51
1,2,1.0,NaN,0.30484459999999997,1.2997379,1,0,3,1,19.0,60,0,h,360,49,51
1,2,1.0,3.0,0.38981869999999996,0.5829175999999999,1,0,2,1,19.0,50,0,o,361,48,52
1,2,1.0,2.0,0.3595094,0.5314255,1,0,3,1,19.0,50,0,i,362,49,51
1,2,NaN,4.0,NaN,0.3684788,1,1,3,1,19.0,70,0,p,363,49,51
1,1,NaN,4.0,NaN,0.45360730000000005,1,0,3,1,19.0,70,0,p,364,51,49
1,2,1.0,2.0,0.35911,0.48435259999999997,1,0,2,1,19.0,60,0,i,365,48,52
1,2,1.0,3.0,0.48962209999999995,0.3847658,1,0,2,1,19.0,60,0,o,366,48,52
1,1,1.0,4.0,0.3222994,0.3828722,1,1,1,1,19.0,50,0,p,367,55,45
1,2,NaN,4.0,NaN,0.3368893,1,1,1,1,19.0,70,0,p,368,45,55
1,2,1.0,2.0,0.7752133000000001,0.4446748,1,0,2,1,19.0,70,0,i,369,48,52
1,1,1.0,3.0,0.5472685,0.3674145,1,1,3,1,19.0,50,0,o,370,51,49
1,2,1.0,4.0,0.3880915,0.3505522,1,0,2,1,19.0,50,0,p,371,48,52
1,1,1.0,4.0,0.5231225,0.2516174,1,1,1,1,19.0,70,0,p,372,55,45
1,1,NaN,2.0,NaN,0.6698831000000001,1,0,3,1,19.0,70,0,i,373,51,49
1,1,1.0,4.0,0.4401697,0.36487800000000004,1,1,1,1,19.0,60,0,p,374,55,45
1,1,1.0,2.0,0.3182567,0.49994700000000003,1,1,2,1,19.0,60,0,i,375,52,48
1,1,1.0,4.0,0.30670590000000003,0.33396149999999997,1,1,3,1,19.0,60,0,p,376,51,49
1,1,1.0,3.0,0.4382737,0.36734229999999995,1,1,3,1,19.0,50,0,o,377,51,49
1,1,NaN,1.0,NaN,0.9705215,1,0,2,1,19.0,70,0,u,378,52,48
1,2,NaN,1.0,NaN,1.7535294,1,1,1,1,19.0,50,0,u,379,45,55
1,1,1.0,3.0,0.4792582,1.3344424,1,1,2,1,19.0,70,0,o,380,52,48
1,2,NaN,4.0,NaN,0.7209148,1,1,1,1,19.0,70,0,p,381,45,55
1,1,1.0,4.0,0.3958313,0.7021662,1,1,1,1,19.0,50,0,p,382,55,45
1,2,1.0,4.0,0.28504309999999994,0.49991769999999996,1,0,3,1,19.0,60,0,p,383,49,51
1,1,1.0,4.0,0.35587929999999995,0.3665233,1,1,1,1,19.0,60,0,p,384,55,45
1,2,NaN,4.0,NaN,0.4688849,1,1,1,1,19.0,50,0,p,385,45,55
1,2,NaN,4.0,NaN,0.5546599,1,1,1,1,19.0,60,0,p,386,45,55
1,1,1.0,3.0,0.7916034000000001,0.5681808,1,1,2,1,19.0,50,0,o,387,52,48
1,1,1.0,4.0,0.3410106,0.40094409999999997,1,1,2,1,19.0,60,0,p,388,52,48
1,2,1.0,4.0,0.3765789,0.4840933,1,0,3,1,19.0,70,0,p,389,49,51
1,2,1.0,4.0,0.38692709999999997,0.7839858000000001,2,1,1,1,19.0,50,1,p,0,45,55
1,1,NaN,4.0,NaN,0.5048722999999999,2,1,2,1,19.0,50,1,p,1,52,48
1,1,NaN,4.0,NaN,0.6375835999999999,2,1,1,1,19.0,50,1,p,2,55,45
1,2,1.0,4.0,0.5091422000000001,0.4682418,2,1,1,1,19.0,60,1,p,3,45,55
1,2,1.0,NaN,0.6228953,1.1165618999999998,2,1,3,1,19.0,70,1,h,4,49,51
1,2,1.0,4.0,0.6418789,0.718028,2,1,3,1,19.0,70,1,p,5,49,51
1,1,NaN,3.0,NaN,0.7039074000000001,2,1,1,1,19.0,60,1,o,6,55,45
1,1,1.0,4.0,0.39234109999999994,0.4510433,2,0,2,1,19.0,60,1,p,7,52,48
1,2,1.0,4.0,0.3232854,0.3613615,2,1,2,1,19.0,50,1,p,8,48,52
1,1,NaN,4.0,NaN,0.9384908000000002,2,1,1,1,19.0,60,1,p,9,55,45
1,2,1.0,3.0,0.6756810999999999,0.5679495,2,1,3,1,19.0,50,1,o,10,49,51
1,2,1.0,3.0,0.7245732,0.8344848,2,1,1,1,19.0,70,1,o,11,45,55
1,1,NaN,4.0,NaN,0.7357655,2,1,3,1,19.0,50,1,p,12,51,49
1,1,NaN,1.0,NaN,1.2873201,2,1,3,1,19.0,60,1,u,13,51,49
1,2,NaN,3.0,NaN,1.7871018,2,0,2,1,19.0,70,1,o,14,48,52
1,1,NaN,4.0,NaN,0.7050350999999999,2,1,2,1,19.0,70,1,p,15,52,48
1,2,1.0,4.0,0.6571915,0.7358312,2,1,1,1,19.0,50,1,p,16,45,55
1,2,NaN,2.0,NaN,0.938531,2,0,3,1,19.0,60,1,i,17,49,51
1,2,1.0,3.0,0.6593954000000001,0.5350675,2,1,3,1,19.0,60,1,o,18,49,51
1,1,NaN,4.0,NaN,0.7707418,2,1,3,1,19.0,70,1,p,19,51,49
1,1,1.0,3.0,0.6412536,0.7315403,2,0,2,1,19.0,60,1,o,20,52,48
1,1,NaN,4.0,NaN,0.5205563,2,1,1,1,19.0,50,1,p,21,55,45
1,2,1.0,4.0,0.725056,0.5326162,2,1,1,1,19.0,70,1,p,22,45,55
1,1,NaN,4.0,NaN,0.6018876,2,1,3,1,19.0,50,1,p,23,51,49
1,2,NaN,3.0,NaN,0.9537124,2,0,2,1,19.0,60,1,o,24,48,52
1,1,NaN,4.0,NaN,0.9047751,2,1,2,1,19.0,70,1,p,25,52,48
1,2,1.0,4.0,0.3915976,0.48536840000000003,2,1,2,1,19.0,60,1,p,26,48,52
1,2,1.0,4.0,0.2743926,0.366369,2,1,2,1,19.0,50,1,p,27,48,52
1,1,NaN,4.0,NaN,0.35268540000000004,2,1,1,1,19.0,70,1,p,28,55,45
1,1,NaN,4.0,NaN,0.5192462999999999,2,1,3,1,19.0,70,1,p,29,51,49
1,2,1.0,4.0,0.30383899999999997,0.5347199,2,1,3,1,19.0,70,1,p,30,49,51
1,2,1.0,4.0,0.2911086,0.3647453,2,1,1,1,19.0,50,1,p,31,45,55
1,1,NaN,4.0,NaN,0.3532692,2,1,2,1,19.0,70,1,p,32,52,48
1,1,1.0,3.0,0.36184570000000005,0.550982,2,0,2,1,19.0,70,1,o,33,52,48
1,1,NaN,4.0,NaN,0.3379781,2,1,1,1,19.0,70,1,p,34,55,45
1,1,NaN,4.0,NaN,0.42195470000000007,2,1,1,1,19.0,50,1,p,35,55,45
1,2,1.0,4.0,0.6368674,0.44901179999999996,2,1,2,1,19.0,70,1,p,36,48,52
1,2,1.0,3.0,0.5568226,0.41632440000000004,2,1,3,1,19.0,60,1,o,37,49,51
1,1,NaN,4.0,NaN,0.37012740000000005,2,1,1,1,19.0,60,1,p,38,55,45
1,1,1.0,3.0,0.6206332,0.518253,2,0,3,1,19.0,70,1,o,39,51,49
1,1,1.0,NaN,0.6239526,1.2672567,2,0,1,1,19.0,60,1,h,40,55,45
1,1,NaN,4.0,NaN,0.5036111,2,1,1,1,19.0,50,1,p,41,55,45
1,1,1.0,2.0,0.5379855,0.6341897,2,0,2,1,19.0,60,1,i,42,52,48
1,2,NaN,4.0,NaN,0.40473000000000003,2,0,3,1,19.0,60,1,p,43,49,51
1,2,NaN,NaN,NaN,1.4709476000000001,2,0,1,1,19.0,70,1,h,44,45,55
1,2,1.0,4.0,0.6511399999999999,0.43367219999999995,2,1,2,1,19.0,50,1,p,45,48,52
1,1,NaN,4.0,NaN,0.5509459,2,1,2,1,19.0,50,1,p,46,52,48
1,1,NaN,4.0,NaN,0.6531891,2,1,3,1,19.0,50,1,p,47,51,49
1,2,1.0,4.0,0.7761133000000001,0.45251450000000004,2,1,2,1,19.0,60,1,p,48,48,52
1,2,NaN,1.0,NaN,0.5546585999999999,2,0,1,1,19.0,60,1,u,49,45,55
1,2,1.0,3.0,0.6703056,0.6345321999999999,2,1,2,1,19.0,60,1,o,50,48,52
1,2,NaN,3.0,NaN,0.46888270000000004,2,0,3,1,19.0,50,1,o,51,49,51
1,1,NaN,4.0,NaN,0.35281609999999997,2,1,2,1,19.0,60,1,p,52,52,48
1,2,NaN,4.0,NaN,0.5366783,2,0,1,1,19.0,70,1,p,53,45,55
1,2,1.0,4.0,0.42816859999999995,0.43326220000000004,2,1,2,1,19.0,50,1,p,54,48,52
1,2,1.0,3.0,0.47097870000000003,0.5513710999999999,2,1,3,1,19.0,70,1,o,55,49,51
1,1,NaN,2.0,NaN,0.9702632,2,1,3,1,19.0,50,1,i,56,51,49
1,2,1.0,4.0,0.5277281999999999,0.3673436,2,1,1,1,19.0,50,1,p,57,45,55
1,1,1.0,3.0,0.6588937,0.3854566,2,0,3,1,19.0,60,1,o,58,51,49
1,1,1.0,3.0,0.4825952,0.5520506,2,0,3,1,19.0,70,1,o,59,51,49
1,2,1.0,4.0,0.3234666,0.5011078,2,1,1,1,19.0,70,1,p,60,45,55
1,1,1.0,3.0,0.2945992,0.5347571999999999,2,0,3,1,19.0,70,1,o,61,51,49
1,1,NaN,4.0,NaN,0.3357397,2,1,3,1,19.0,60,1,p,62,51,49
1,1,1.0,NaN,0.26171700000000003,1.4738537,2,0,1,1,19.0,50,1,h,63,55,45
1,2,1.0,4.0,0.7244252,0.4514067,2,1,2,1,19.0,70,1,p,64,48,52
1,2,1.0,3.0,0.6714751999999999,0.400488,2,1,3,1,19.0,60,1,o,65,49,51
1,1,NaN,4.0,NaN,0.3978578,2,1,2,1,19.0,50,1,p,66,52,48
1,1,NaN,4.0,NaN,0.404016,2,1,3,1,19.0,50,1,p,67,51,49
1,2,1.0,4.0,0.5529309,0.4337404,2,1,1,1,19.0,50,1,p,68,45,55
1,2,1.0,3.0,0.5702245,0.4821456,2,1,2,1,19.0,60,1,o,69,48,52
1,2,1.0,4.0,0.573367,0.7814661,2,1,1,1,19.0,70,1,p,70,45,55
1,1,NaN,3.0,NaN,0.5050584,2,1,3,1,19.0,70,1,o,71,51,49
1,2,1.0,4.0,0.7422835,0.6515058000000001,2,1,3,1,19.0,50,1,p,72,49,51
1,2,NaN,3.0,NaN,0.4209452,2,0,3,1,19.0,70,1,o,73,49,51
1,1,NaN,2.0,NaN,0.3870676,2,1,2,1,19.0,70,1,i,74,52,48
1,2,1.0,1.0,0.92353,0.7681974,2,1,3,1,19.0,60,1,u,75,49,51
1,1,1.0,NaN,0.8079174,0.7348039000000001,2,0,2,1,19.0,60,1,h,76,52,48
1,1,NaN,3.0,NaN,0.6698002,2,1,1,1,19.0,70,1,o,77,55,45
1,1,NaN,NaN,NaN,1.0869607,2,1,1,1,19.0,60,1,h,78,55,45
1,2,NaN,3.0,NaN,0.8365459000000001,2,0,2,1,19.0,50,1,o,79,48,52
1,2,NaN,4.0,NaN,0.9871915000000001,2,0,3,1,19.0,70,1,p,80,49,51
1,1,NaN,4.0,NaN,0.5870248,2,1,1,1,19.0,60,1,p,81,55,45
1,2,1.0,3.0,0.6650709,0.5172823000000001,2,1,1,1,19.0,50,1,o,82,45,55
1,2,NaN,4.0,NaN,0.652948,2,0,2,1,19.0,60,1,p,83,48,52
1,2,1.0,4.0,0.8790851999999999,0.4174278,2,1,2,1,19.0,50,1,p,84,48,52
1,1,1.0,4.0,0.7728497,0.610618,2,0,2,1,19.0,60,1,p,85,52,48
1,2,1.0,4.0,0.4690338,0.4017372,2,1,1,1,19.0,60,1,p,86,45,55
1,1,1.0,3.0,0.3695334,0.6181913,2,0,3,1,19.0,50,1,o,87,51,49
1,1,NaN,3.0,NaN,0.420559,2,1,1,1,19.0,50,1,o,88,55,45
1,1,1.0,3.0,0.35887090000000005,0.4689844,2,0,2,1,19.0,70,1,o,89,52,48
1,1,1.0,4.0,0.607916,0.4673423,2,0,3,1,19.0,70,1,p,90,51,49
1,1,NaN,3.0,NaN,0.3707823,2,1,3,1,19.0,70,1,o,91,51,49
1,1,1.0,NaN,0.5579113,1.4340203999999999,2,0,3,1,19.0,60,1,h,92,51,49
1,2,1.0,3.0,0.8186356,0.333798,2,1,2,1,19.0,70,1,o,93,48,52
1,2,1.0,3.0,0.6362791,0.3143419,2,1,1,1,19.0,70,1,o,94,45,55
1,1,NaN,4.0,NaN,0.08626610000000001,2,1,1,1,19.0,70,1,p,95,55,45
1,1,1.0,3.0,0.5454405,0.5015712,2,0,2,1,19.0,60,1,o,96,52,48
1,1,NaN,2.0,NaN,1.4872846000000002,2,1,2,1,19.0,50,1,i,97,52,48
1,1,NaN,4.0,NaN,0.4717708,2,1,3,1,19.0,50,1,p,98,51,49
1,2,1.0,4.0,0.5604661,0.4856957,2,1,2,1,19.0,60,1,p,99,48,52
1,2,1.0,4.0,0.5752004,0.4348583,2,1,1,1,19.0,60,1,p,100,45,55
1,2,1.0,4.0,0.5743019,0.3647944,2,1,1,1,19.0,70,1,p,101,45,55
1,1,NaN,4.0,NaN,0.35410990000000003,2,1,1,1,19.0,60,1,p,102,55,45
1,1,NaN,4.0,NaN,0.4046085,2,1,2,1,19.0,70,1,p,103,52,48
1,2,NaN,3.0,NaN,0.3043077,2,0,1,1,19.0,50,1,o,104,45,55
1,1,1.0,3.0,0.8908845,0.8521793,2,0,3,1,19.0,50,1,o,105,51,49
1,2,NaN,3.0,NaN,0.6884357,2,0,2,1,19.0,50,1,o,106,48,52
1,2,1.0,3.0,0.9572485999999999,0.4188152,2,1,3,1,19.0,60,1,o,107,49,51
1,2,1.0,3.0,0.6252614000000001,0.301481,2,1,1,1,19.0,50,1,o,108,45,55
1,2,1.0,3.0,0.6075016,0.2315536,2,1,3,1,19.0,70,1,o,109,49,51
1,2,NaN,3.0,NaN,0.9206994000000001,2,0,3,1,19.0,50,1,o,110,49,51
1,2,1.0,3.0,0.6604814999999999,0.33498690000000003,2,1,2,1,19.0,50,1,o,111,48,52
1,1,NaN,2.0,NaN,0.7051046,2,1,1,1,19.0,50,1,i,112,55,45
1,2,NaN,2.0,NaN,0.7386465999999999,2,0,2,1,19.0,60,1,i,113,48,52
1,2,1.0,NaN,0.4420094,1.2191995,2,1,3,1,19.0,60,1,h,114,49,51
1,1,1.0,NaN,0.6900509,0.9691144,2,0,1,1,19.0,50,1,h,115,55,45
1,1,NaN,2.0,NaN,0.7188996999999999,2,1,2,1,19.0,60,1,i,116,52,48
1,1,NaN,3.0,NaN,0.6859244999999999,2,1,2,1,19.0,70,1,o,117,52,48
1,2,NaN,2.0,NaN,0.7373371,2,0,3,1,19.0,70,1,i,118,49,51
1,1,1.0,NaN,0.7251838,1.1479698999999999,2,0,1,1,19.0,60,1,h,119,55,45
1,1,1.0,3.0,0.5268371999999999,0.4505616,2,0,3,1,19.0,70,1,o,120,51,49
1,1,NaN,4.0,NaN,0.35493,2,1,2,1,19.0,60,1,p,121,52,48
1,1,NaN,3.0,NaN,0.3387187,2,1,2,1,19.0,60,1,o,122,52,48
1,2,NaN,4.0,NaN,0.30442179999999996,2,0,3,1,19.0,60,1,p,123,49,51
1,1,NaN,3.0,NaN,0.3212703,2,1,3,1,19.0,50,1,o,124,51,49
1,2,1.0,3.0,0.5737384,0.3183322,2,1,3,1,19.0,70,1,o,125,49,51
1,2,1.0,3.0,0.6084742,0.3166375,2,1,1,1,19.0,70,1,o,126,45,55
1,2,1.0,4.0,0.7240878000000001,0.4358044,2,1,3,1,19.0,70,1,p,127,49,51
1,1,NaN,4.0,NaN,0.6034259,2,1,3,1,19.0,70,1,p,128,51,49
1,1,NaN,4.0,NaN,0.3549156,2,1,2,1,19.0,70,1,p,129,52,48
1,1,NaN,4.0,NaN,0.3552059,2,1,1,1,19.0,50,1,p,130,55,45
1,2,NaN,4.0,NaN,0.33704520000000004,2,0,3,1,19.0,50,1,p,131,49,51
1,2,1.0,3.0,0.6245993000000001,0.4514125,2,1,1,1,19.0,50,1,o,132,45,55
1,2,1.0,4.0,0.6526133000000001,0.434852,2,1,1,1,19.0,50,1,p,133,45,55
1,2,1.0,NaN,0.8778754000000001,1.2844278,2,1,2,1,19.0,60,1,h,134,48,52
1,2,1.0,4.0,0.8053384,0.3354827,2,1,1,1,19.0,70,1,p,135,45,55
1,1,1.0,4.0,0.6584808000000001,0.2841263,2,0,3,1,19.0,50,1,p,136,51,49
1,2,1.0,4.0,0.44179359999999995,0.31868779999999997,2,1,2,1,19.0,50,1,p,137,48,52
1,1,NaN,4.0,NaN,0.3880022,2,1,1,1,19.0,50,1,p,138,55,45
1,1,NaN,4.0,NaN,0.8711742,2,1,1,1,19.0,60,1,p,139,55,45
1,2,NaN,3.0,NaN,0.7206675,2,0,2,1,19.0,50,1,o,140,48,52
1,2,1.0,4.0,0.8288293999999999,0.3680144,2,1,1,1,19.0,60,1,p,141,45,55
1,1,NaN,3.0,NaN,1.5867111,2,1,2,1,19.0,50,1,o,142,52,48
1,1,1.0,3.0,0.9536110000000001,0.8685441999999999,2,0,3,1,19.0,60,1,o,143,51,49
1,1,NaN,4.0,NaN,0.5866488000000001,2,1,1,1,19.0,70,1,p,144,55,45
1,2,NaN,2.0,NaN,0.43666000000000005,2,0,2,1,19.0,70,1,i,145,48,52
1,1,NaN,3.0,NaN,0.6864216999999999,2,1,2,1,19.0,70,1,o,146,52,48
1,2,1.0,3.0,0.5531086,0.718747,2,1,2,1,19.0,60,1,o,147,48,52
1,1,NaN,3.0,NaN,0.4697755,2,1,1,1,19.0,60,1,o,148,55,45
1,2,NaN,3.0,NaN,0.5869121999999999,2,0,3,1,19.0,60,1,o,149,49,51
1,1,NaN,NaN,NaN,1.5525392,2,1,2,1,19.0,70,1,h,150,52,48
1,2,1.0,4.0,0.5277689999999999,0.30079240000000007,2,1,3,1,19.0,60,1,p,151,49,51
1,2,1.0,4.0,0.5267383000000001,0.2359786,2,1,1,1,19.0,60,1,p,152,45,55
1,2,1.0,4.0,0.4421442,0.3020408,2,1,1,1,19.0,50,1,p,153,45,55
1,1,NaN,3.0,NaN,0.5388522,2,1,3,1,19.0,60,1,o,154,51,49
1,2,1.0,4.0,0.5592843000000001,0.30244590000000005,2,1,3,1,19.0,60,1,p,155,49,51
1,2,1.0,4.0,0.4096317,0.26834159999999996,2,1,2,1,19.0,60,1,p,156,48,52
1,1,1.0,3.0,0.4921474,0.2004432,2,0,3,1,19.0,70,1,o,157,51,49
1,1,NaN,4.0,NaN,0.5876779000000001,2,1,2,1,19.0,70,1,p,158,52,48
1,1,NaN,1.0,NaN,0.6542676,2,1,3,1,19.0,70,1,u,159,51,49
1,2,1.0,3.0,0.5557343000000001,0.4846153,2,1,2,1,19.0,70,1,o,160,48,52
1,1,NaN,3.0,NaN,0.6219124,2,1,1,1,19.0,50,1,o,161,55,45
1,1,1.0,NaN,0.5122278,0.9856413,2,0,1,1,19.0,50,1,h,162,55,45
1,2,NaN,NaN,NaN,1.3381695,2,0,1,1,19.0,70,1,h,163,45,55
1,2,1.0,4.0,0.4696295999999999,0.8148379,2,1,2,1,19.0,60,1,p,164,48,52
1,2,NaN,NaN,NaN,1.7375080000000003,2,0,2,1,19.0,50,1,h,165,48,52
1,2,1.0,3.0,0.37307640000000003,0.4348012,2,1,1,1,19.0,50,1,o,166,45,55
1,1,NaN,3.0,NaN,0.5882494,2,1,1,1,19.0,60,1,o,167,55,45
1,1,NaN,3.0,NaN,0.6717725999999999,2,1,2,1,19.0,50,1,o,168,52,48
1,2,1.0,3.0,0.47234499999999996,0.38498000000000004,2,1,3,1,19.0,70,1,o,169,49,51
1,1,NaN,3.0,NaN,0.6715708,2,1,2,1,19.0,60,1,o,170,52,48
1,1,NaN,3.0,NaN,0.5213795999999999,2,1,3,1,19.0,50,1,o,171,51,49
1,1,1.0,3.0,0.7756826,0.2680205,2,0,3,1,19.0,50,1,o,172,51,49
1,1,NaN,3.0,NaN,0.3038743,2,1,2,1,19.0,60,1,o,173,52,48
1,2,1.0,3.0,0.7219896,0.4984181,2,1,2,1,19.0,50,1,o,174,48,52
1,2,1.0,4.0,0.6312253000000001,0.4004915,2,1,3,1,19.0,50,1,p,175,49,51
1,1,NaN,2.0,NaN,0.48814129999999994,2,1,1,1,19.0,70,1,i,176,55,45
1,1,NaN,3.0,NaN,0.9876103,2,1,1,1,19.0,60,1,o,177,55,45
1,2,NaN,3.0,NaN,0.8712151,2,0,3,1,19.0,70,1,o,178,49,51
1,2,1.0,4.0,0.5024965,0.4858995,2,1,1,1,19.0,70,1,p,179,45,55
1,2,1.0,4.0,0.28427709999999995,0.5664384,2,1,2,1,19.0,50,1,p,180,48,52
1,2,1.0,4.0,0.3034752,0.3177513,2,1,3,1,19.0,50,1,p,181,49,51
1,1,NaN,3.0,NaN,0.2703205,2,1,2,1,19.0,70,1,o,182,52,48
1,2,1.0,4.0,0.4856311,0.30213,2,1,1,1,19.0,50,1,p,183,45,55
1,2,1.0,4.0,0.3267275,0.5354626,2,1,2,1,19.0,70,1,p,184,48,52
1,1,1.0,2.0,0.4233227,0.5343813000000001,2,0,3,1,19.0,60,1,i,185,51,49
1,1,1.0,3.0,0.5041452999999999,0.40026849999999997,2,0,3,1,19.0,70,1,o,186,51,49
1,1,NaN,3.0,NaN,0.2539133,2,1,3,1,19.0,50,1,o,187,51,49
1,1,NaN,4.0,NaN,0.3864357,2,1,1,1,19.0,60,1,p,188,55,45
1,1,1.0,3.0,0.7740444000000001,0.5513195,2,0,2,1,19.0,60,1,o,189,52,48
1,2,1.0,3.0,0.6248623999999999,0.3681725,2,1,1,1,19.0,60,1,o,190,45,55
1,1,1.0,NaN,0.6232439999999999,1.0519113000000002,2,0,1,1,19.0,70,1,h,191,55,45
1,2,1.0,4.0,0.5560725000000001,0.3340284,2,1,1,1,19.0,70,1,p,192,45,55
1,2,1.0,4.0,0.47361040000000004,0.2022071,2,1,1,1,19.0,70,1,p,193,45,55
1,2,1.0,4.0,0.41135320000000003,0.18526700000000002,2,1,2,1,19.0,60,1,p,194,48,52
1,2,1.0,3.0,0.4413196,0.3521023,2,1,2,1,19.0,50,1,o,195,48,52
1,2,1.0,3.0,0.5785955,0.15002520000000003,2,1,3,1,19.0,70,1,o,196,49,51
1,2,NaN,3.0,NaN,0.035826199999999996,2,0,3,1,19.0,60,1,o,197,49,51
1,1,NaN,4.0,NaN,0.3538301,2,1,3,1,19.0,70,1,p,198,51,49
1,2,1.0,3.0,0.4773415,0.2685035,2,1,3,1,19.0,70,1,o,199,49,51
1,1,1.0,NaN,0.7694193,1.0011207,2,0,2,1,19.0,60,1,h,200,52,48
1,2,NaN,4.0,NaN,0.4881549,2,0,2,1,19.0,60,1,p,201,48,52
1,1,NaN,4.0,NaN,0.6217425999999999,2,1,1,1,19.0,50,1,p,202,55,45
1,1,NaN,4.0,NaN,0.2548641,2,1,2,1,19.0,50,1,p,203,52,48
1,1,NaN,3.0,NaN,0.42099849999999994,2,1,1,1,19.0,60,1,o,204,55,45
1,2,NaN,3.0,NaN,0.4693209,2,0,3,1,19.0,60,1,o,205,49,51
1,2,NaN,3.0,NaN,0.4039877,2,0,1,1,19.0,50,1,o,206,45,55
1,1,1.0,3.0,0.23682910000000001,0.4233257,2,0,3,1,19.0,50,1,o,207,51,49
1,1,1.0,4.0,0.7076398,0.3355435,2,0,2,1,19.0,70,1,p,208,52,48
1,1,NaN,3.0,NaN,0.4882959,2,1,1,1,19.0,50,1,o,209,55,45
1,2,1.0,4.0,0.6705604000000001,0.4185863,2,1,1,1,19.0,50,1,p,210,45,55
1,1,1.0,3.0,0.6423462,0.4632622,2,0,1,1,19.0,60,1,o,211,55,45
1,1,NaN,4.0,NaN,0.3369737,2,1,3,1,19.0,70,1,p,212,51,49
1,2,1.0,4.0,0.9390426,0.43491660000000004,2,1,3,1,19.0,50,1,p,213,49,51
1,2,1.0,4.0,0.4753987,0.26786609999999994,2,1,2,1,19.0,50,1,p,214,48,52
1,1,1.0,4.0,0.3115761,0.2687869,2,0,3,1,19.0,60,1,p,215,51,49
1,1,1.0,3.0,0.5106305999999999,0.3168296,2,0,2,1,19.0,70,1,o,216,52,48
1,1,NaN,3.0,NaN,0.28786999999999996,2,1,2,1,19.0,50,1,o,217,52,48
1,2,1.0,3.0,0.6951944999999999,0.9185888000000001,2,1,3,1,19.0,70,1,o,218,49,51
1,1,1.0,4.0,0.6214109,0.48571329999999996,2,0,3,1,19.0,50,1,p,219,51,49
1,1,1.0,4.0,0.5085157,0.3011914,2,0,3,1,19.0,50,1,p,220,51,49
1,1,NaN,3.0,NaN,0.40408540000000004,2,1,1,1,19.0,50,1,o,221,55,45
1,2,1.0,4.0,0.9014519,0.267522,2,1,1,1,19.0,50,1,p,222,45,55
1,1,NaN,3.0,NaN,0.1870446,2,1,1,1,19.0,50,1,o,223,55,45
1,2,1.0,NaN,0.5402769000000001,1.3527196000000001,2,1,3,1,19.0,60,1,h,224,49,51
1,1,1.0,NaN,0.5612427,1.2682284,2,0,2,1,19.0,60,1,h,225,52,48
1,2,1.0,4.0,0.4903072,0.4517898,2,1,1,1,19.0,70,1,p,226,45,55
1,2,NaN,4.0,NaN,0.4876614,2,0,2,1,19.0,60,1,p,227,48,52
1,2,1.0,4.0,0.5543803,0.3349919,2,1,2,1,19.0,50,1,p,228,48,52
1,1,NaN,3.0,NaN,0.3544305,2,1,3,1,19.0,70,1,o,229,51,49
1,2,1.0,4.0,0.6723548,0.234204,2,1,1,1,19.0,60,1,p,230,45,55
1,2,1.0,4.0,0.38925970000000004,0.13392,2,1,2,1,19.0,70,1,p,231,48,52
1,2,1.0,4.0,0.5040690999999999,0.0847409,2,1,3,1,19.0,70,1,p,232,49,51
1,2,1.0,4.0,0.4422455,0.1351183,2,1,1,1,19.0,70,1,p,233,45,55
1,1,NaN,3.0,NaN,0.371296,2,1,1,1,19.0,60,1,o,234,55,45
1,1,NaN,3.0,NaN,0.4374128,2,1,1,1,19.0,70,1,o,235,55,45
1,2,1.0,4.0,0.5707799,0.1847084,2,1,2,1,19.0,60,1,p,236,48,52
1,2,NaN,3.0,NaN,0.4022123,2,0,3,1,19.0,60,1,o,237,49,51
1,1,NaN,3.0,NaN,0.5355479000000001,2,1,2,1,19.0,60,1,o,238,52,48
1,1,NaN,4.0,NaN,0.4542419,2,1,2,1,19.0,70,1,p,239,52,48
1,2,1.0,4.0,0.29041300000000003,0.3355618,2,1,2,1,19.0,60,1,p,240,48,52
1,1,1.0,4.0,0.33756240000000004,0.2857275,2,0,2,1,19.0,50,1,p,241,52,48
1,2,NaN,3.0,NaN,1.052762,2,0,3,1,19.0,70,1,o,242,49,51
1,2,1.0,NaN,0.3872364,1.1508052,2,1,2,1,19.0,50,1,h,243,48,52
1,2,NaN,4.0,NaN,0.40405019999999997,2,0,2,1,19.0,70,1,p,244,48,52
1,1,1.0,2.0,0.5104143,0.6680995,2,0,2,1,19.0,70,1,i,245,52,48
1,1,NaN,1.0,NaN,1.019997,2,1,3,1,19.0,60,1,u,246,51,49
1,1,NaN,4.0,NaN,0.4875036,2,1,1,1,19.0,70,1,p,247,55,45
1,2,1.0,4.0,0.7064013000000001,0.38548330000000003,2,1,1,1,19.0,50,1,p,248,45,55
1,2,NaN,2.0,NaN,0.45505740000000006,2,0,3,1,19.0,50,1,i,249,49,51
1,1,NaN,3.0,NaN,0.6215861,2,1,1,1,19.0,50,1,o,250,55,45
1,2,NaN,3.0,NaN,0.3859639,2,0,3,1,19.0,60,1,o,251,49,51
1,1,NaN,2.0,NaN,0.6355677,2,1,3,1,19.0,50,1,i,252,51,49
1,1,NaN,4.0,NaN,0.6032035,2,1,1,1,19.0,60,1,p,253,55,45
1,2,1.0,3.0,0.4077675,0.5679548000000001,2,1,3,1,19.0,70,1,o,254,49,51
1,2,1.0,3.0,0.38671479999999997,0.3182777,2,1,2,1,19.0,60,1,o,255,48,52
1,2,1.0,3.0,0.47412920000000003,0.1689045,2,1,1,1,19.0,60,1,o,256,45,55
1,1,NaN,2.0,NaN,0.48840779999999995,2,1,2,1,19.0,60,1,i,257,52,48
1,1,NaN,4.0,NaN,0.5216829000000001,2,1,3,1,19.0,70,1,p,258,51,49
1,1,NaN,4.0,NaN,0.8533785,2,1,3,1,19.0,50,1,p,259,51,49
1,2,1.0,3.0,0.6189460999999999,0.5490686,2,1,1,1,19.0,70,1,o,260,45,55
1,1,NaN,3.0,NaN,0.5707361,2,1,1,1,19.0,60,1,o,261,55,45
1,2,NaN,3.0,NaN,0.786994,2,0,3,1,19.0,60,1,o,262,49,51
1,2,NaN,3.0,NaN,0.3536428,2,0,1,1,19.0,70,1,o,263,45,55
1,1,NaN,3.0,NaN,0.45500569999999996,2,1,1,1,19.0,50,1,o,264,55,45
1,1,NaN,2.0,NaN,0.5544102,2,1,3,1,19.0,70,1,i,265,51,49
1,1,NaN,3.0,NaN,0.7710909,2,1,2,1,19.0,60,1,o,266,52,48
1,2,NaN,3.0,NaN,0.7050825,2,0,1,1,19.0,50,1,o,267,45,55
1,2,NaN,4.0,NaN,0.7538687,2,0,2,1,19.0,50,1,p,268,48,52
1,1,1.0,3.0,0.5064426,0.43153270000000005,2,0,2,1,19.0,70,1,o,269,52,48
1,2,1.0,4.0,0.41142790000000007,0.35088969999999997,2,1,1,1,19.0,70,1,p,270,45,55
1,1,NaN,4.0,NaN,0.3715555,2,1,1,1,19.0,60,1,p,271,55,45
1,1,NaN,4.0,NaN,0.4216005,2,1,2,1,19.0,60,1,p,272,52,48
1,2,1.0,4.0,0.5407323,0.33530909999999997,2,1,1,1,19.0,60,1,p,273,45,55
1,2,1.0,4.0,0.43047060000000004,0.3189152,2,1,1,1,19.0,50,1,p,274,45,55
1,1,NaN,3.0,NaN,0.3882567,2,1,3,1,19.0,60,1,o,275,51,49
1,2,NaN,3.0,NaN,0.5032515999999999,2,0,3,1,19.0,60,1,o,276,49,51
1,1,NaN,3.0,NaN,0.5040140999999999,2,1,3,1,19.0,70,1,o,277,51,49
1,1,NaN,3.0,NaN,0.47053100000000003,2,1,2,1,19.0,50,1,o,278,52,48
1,1,1.0,3.0,0.4430528,0.40190370000000003,2,0,3,1,19.0,50,1,o,279,51,49
1,1,NaN,4.0,NaN,0.269586,2,1,1,1,19.0,60,1,p,280,55,45
1,2,NaN,4.0,NaN,0.5871024,2,0,2,1,19.0,50,1,p,281,48,52
1,1,NaN,4.0,NaN,0.3718072,2,1,1,1,19.0,70,1,p,282,55,45
1,1,NaN,4.0,NaN,0.5873927,2,1,3,1,19.0,70,1,p,283,51,49
1,2,NaN,3.0,NaN,0.31978579999999995,2,0,3,1,19.0,70,1,o,284,49,51
1,2,1.0,3.0,0.324801,0.6676623,2,1,3,1,19.0,60,1,o,285,49,51
1,2,1.0,NaN,0.9093283999999999,1.4011695,2,1,2,1,19.0,50,1,h,286,48,52
1,2,NaN,3.0,NaN,0.4384518,2,0,2,1,19.0,70,1,o,287,48,52
1,2,1.0,4.0,0.6012984,0.450058,2,1,3,1,19.0,70,1,p,288,49,51
1,1,NaN,4.0,NaN,0.38831679999999996,2,1,2,1,19.0,60,1,p,289,52,48
1,1,NaN,4.0,NaN,0.4052817,2,1,1,1,19.0,50,1,p,290,55,45
1,1,NaN,2.0,NaN,0.7705436999999999,2,1,1,1,19.0,50,1,i,291,55,45
1,2,NaN,3.0,NaN,0.7042879,2,0,2,1,19.0,60,1,o,292,48,52
1,1,NaN,3.0,NaN,0.5207824000000001,2,1,3,1,19.0,50,1,o,293,51,49
1,1,1.0,3.0,0.5454718000000001,0.45091359999999997,2,0,2,1,19.0,70,1,o,294,52,48
1,2,NaN,3.0,NaN,0.5045704000000001,2,0,3,1,19.0,50,1,o,295,49,51
1,2,1.0,4.0,0.3412531,0.6510111999999999,2,1,2,1,19.0,60,1,p,296,48,52
1,2,1.0,4.0,0.6911212,0.3521646,2,1,1,1,19.0,70,1,p,297,45,55
1,2,1.0,3.0,0.4482407,0.4676918,2,1,1,1,19.0,50,1,o,298,45,55
1,1,1.0,3.0,0.2555695,0.3020928,2,0,2,1,19.0,70,1,o,299,52,48
1,1,1.0,4.0,0.2239881,0.4346126,2,0,2,1,19.0,70,1,p,300,52,48
1,2,1.0,4.0,0.2187094,0.21796970000000002,2,1,3,1,19.0,70,1,p,301,49,51
1,1,1.0,4.0,0.292051,0.22455820000000004,2,0,3,1,19.0,70,1,p,302,51,49
1,2,1.0,4.0,0.8086248,0.1684548,2,1,2,1,19.0,50,1,p,303,48,52
1,2,1.0,3.0,0.5254364,0.3179328,2,1,1,1,19.0,70,1,o,304,45,55
1,2,NaN,3.0,NaN,0.4877855,2,0,2,1,19.0,60,1,o,305,48,52
1,2,NaN,4.0,NaN,0.6540024999999999,2,0,3,1,19.0,50,1,p,306,49,51
1,1,NaN,4.0,NaN,0.40369590000000005,2,1,1,1,19.0,60,1,p,307,55,45
1,1,NaN,2.0,NaN,0.1041019,2,1,2,1,19.0,60,1,i,308,52,48
1,2,NaN,3.0,NaN,0.4374402,2,0,3,1,19.0,70,1,o,309,49,51
1,1,NaN,3.0,NaN,0.4024164,2,1,3,1,19.0,50,1,o,310,51,49
1,2,NaN,3.0,NaN,0.45465790000000006,2,0,2,1,19.0,70,1,o,311,48,52
1,1,NaN,3.0,NaN,0.3042442,2,1,3,1,19.0,70,1,o,312,51,49
1,1,1.0,3.0,0.3544914,0.318284,2,0,3,1,19.0,50,1,o,313,51,49
1,2,1.0,3.0,0.38806640000000003,0.2188384,2,1,1,1,19.0,70,1,o,314,45,55
1,2,NaN,3.0,NaN,0.3380626,2,0,2,1,19.0,50,1,o,315,48,52
1,1,NaN,4.0,NaN,0.38765479999999997,2,1,1,1,19.0,60,1,p,316,55,45
1,2,1.0,4.0,0.44613230000000004,0.3326765,2,1,1,1,19.0,50,1,p,317,45,55
1,1,NaN,3.0,NaN,0.4207873,2,1,1,1,19.0,50,1,o,318,55,45
1,1,1.0,NaN,0.5131987,1.0350431,2,0,3,1,19.0,60,1,h,319,51,49
1,2,1.0,4.0,0.7078889,0.30168690000000004,2,1,1,1,19.0,60,1,p,320,45,55
1,2,1.0,3.0,0.5070797,0.40209570000000006,2,1,3,1,19.0,60,1,o,321,49,51
1,2,NaN,3.0,NaN,0.5710063,2,0,3,1,19.0,60,1,o,322,49,51
1,1,NaN,3.0,NaN,0.7049673000000001,2,1,2,1,19.0,70,1,o,323,52,48
1,2,NaN,3.0,NaN,1.0539874,2,0,2,1,19.0,60,1,o,324,48,52
1,1,NaN,4.0,NaN,0.6187071999999999,2,1,1,1,19.0,70,1,p,325,55,45
1,1,NaN,4.0,NaN,0.5836314,2,1,1,1,19.0,50,1,p,326,55,45
1,2,1.0,3.0,0.7268058000000001,0.40213150000000003,2,1,1,1,19.0,50,1,o,327,45,55
1,1,NaN,3.0,NaN,0.4877683,2,1,2,1,19.0,60,1,o,328,52,48
1,1,NaN,3.0,NaN,0.8044576999999999,2,1,2,1,19.0,50,1,o,329,52,48
1,2,1.0,4.0,0.22310100000000002,0.3517099,2,1,3,1,19.0,70,1,p,330,49,51
1,1,1.0,4.0,0.30296649999999997,0.3021243,2,0,3,1,19.0,50,1,p,331,51,49
1,2,1.0,3.0,0.47845109999999996,0.3850945,2,1,1,1,19.0,60,1,o,332,45,55
1,2,1.0,3.0,0.5414436,0.20128929999999998,2,1,1,1,19.0,50,1,o,333,45,55
1,2,1.0,3.0,0.2720261,0.1315343,2,1,2,1,19.0,50,1,o,334,48,52
1,1,NaN,4.0,NaN,0.3045279,2,1,1,1,19.0,50,1,p,335,55,45
1,1,NaN,3.0,NaN,0.38113600000000003,2,1,2,1,19.0,70,1,o,336,52,48
1,2,1.0,3.0,0.558341,0.2853375,2,1,2,1,19.0,60,1,o,337,48,52
1,2,NaN,NaN,NaN,1.4549995,2,0,1,1,19.0,70,1,h,338,45,55
1,1,NaN,3.0,NaN,0.5716201999999999,2,1,1,1,19.0,60,1,o,339,55,45
1,1,NaN,4.0,NaN,0.4210102,2,1,1,1,19.0,70,1,p,340,55,45
1,2,1.0,4.0,0.5760331999999999,0.3844817,2,1,2,1,19.0,70,1,p,341,48,52
1,2,1.0,3.0,0.5406991,0.33223600000000003,2,1,1,1,19.0,70,1,o,342,45,55
1,1,NaN,3.0,NaN,0.5716735,2,1,2,1,19.0,70,1,o,343,52,48
1,2,1.0,3.0,0.4941929,0.2682746,2,1,1,1,19.0,50,1,o,344,45,55
1,1,1.0,2.0,0.5292326,0.8021423000000001,2,0,1,1,19.0,50,1,i,345,55,45
1,1,1.0,NaN,0.6923295,1.5858268999999998,2,0,3,1,19.0,70,1,h,346,51,49
1,1,NaN,3.0,NaN,0.35485059999999996,2,1,3,1,19.0,50,1,o,347,51,49
1,1,NaN,3.0,NaN,0.4541702,2,1,3,1,19.0,70,1,o,348,51,49
1,2,NaN,2.0,NaN,0.4368674,2,0,3,1,19.0,50,1,i,349,49,51
1,2,NaN,3.0,NaN,0.8355379999999999,2,0,3,1,19.0,60,1,o,350,49,51
1,2,NaN,3.0,NaN,0.5865037,2,0,2,1,19.0,60,1,o,351,48,52
1,2,NaN,2.0,NaN,0.5550185999999999,2,0,2,1,19.0,50,1,i,352,48,52
1,1,NaN,4.0,NaN,0.6871616,2,1,1,1,19.0,60,1,p,353,55,45
1,2,NaN,3.0,NaN,0.5211706,2,0,3,1,19.0,70,1,o,354,49,51
1,1,1.0,1.0,0.5619008000000001,0.9845345999999999,2,0,3,1,19.0,60,1,u,355,51,49
1,1,NaN,3.0,NaN,0.7044394,2,1,2,1,19.0,60,1,o,356,52,48
1,2,1.0,4.0,0.3244026,0.48467330000000003,2,1,3,1,19.0,60,1,p,357,49,51
1,1,NaN,3.0,NaN,0.5019117999999999,2,1,2,1,19.0,50,1,o,358,52,48
1,1,NaN,3.0,NaN,0.5196816,2,1,2,1,19.0,60,1,o,359,52,48
1,1,1.0,4.0,0.5391988,0.46876759999999995,2,0,2,1,19.0,60,1,p,360,52,48
1,2,1.0,3.0,0.3596513,0.2994364,2,1,3,1,19.0,60,1,o,361,49,51
1,2,1.0,3.0,0.6080075,0.3520276,2,1,3,1,19.0,50,1,o,362,49,51
1,1,NaN,4.0,NaN,0.3539738,2,1,1,1,19.0,50,1,p,363,55,45
1,2,1.0,3.0,0.8850579,0.3012621,2,1,3,1,19.0,60,1,o,364,49,51
1,1,1.0,NaN,0.5079757,1.1513533,2,0,2,1,19.0,50,1,h,365,52,48
1,2,1.0,3.0,0.5579978,0.23424789999999998,2,1,1,1,19.0,50,1,o,366,45,55
1,1,NaN,3.0,NaN,0.3366494,2,1,1,1,19.0,60,1,o,367,55,45
1,1,NaN,2.0,NaN,0.33821690000000004,2,1,3,1,19.0,50,1,i,368,51,49
1,2,NaN,3.0,NaN,0.3710687,2,0,3,1,19.0,70,1,o,369,49,51
1,1,1.0,NaN,0.9053495999999999,0.8354301,2,0,1,1,19.0,60,1,h,370,55,45
1,1,NaN,2.0,NaN,0.5537366,2,1,2,1,19.0,70,1,i,371,52,48
1,2,1.0,4.0,0.6875155,0.6178808000000001,2,1,2,1,19.0,60,1,p,372,48,52
1,2,1.0,4.0,0.39901820000000005,0.5516214,2,1,1,1,19.0,50,1,p,373,45,55
1,1,1.0,3.0,0.45708469999999995,0.5316524,2,0,2,1,19.0,60,1,o,374,52,48
1,2,1.0,3.0,0.3230252,0.1849449,2,1,1,1,19.0,70,1,o,375,45,55
1,2,1.0,4.0,0.35554450000000004,0.13408029999999999,2,1,1,1,19.0,70,1,p,376,45,55
1,2,1.0,4.0,0.32295,0.1014365,2,1,2,1,19.0,50,1,p,377,48,52
1,1,1.0,4.0,0.3217129,0.1518243,2,0,3,1,19.0,60,1,p,378,51,49
1,1,NaN,3.0,NaN,0.3869127,2,1,1,1,19.0,70,1,o,379,55,45
1,2,1.0,4.0,0.7089328,0.3346125,2,1,2,1,19.0,50,1,p,380,48,52
1,1,NaN,3.0,NaN,0.6523905,2,1,3,1,19.0,50,1,o,381,51,49
1,1,NaN,3.0,NaN,0.3538577,2,1,3,1,19.0,70,1,o,382,51,49
1,1,NaN,4.0,NaN,0.42111309999999996,2,1,1,1,19.0,50,1,p,383,55,45
1,2,1.0,4.0,0.7553131,0.2687928,2,1,2,1,19.0,60,1,p,384,48,52
1,2,1.0,4.0,0.3036208,0.2852973,2,1,1,1,19.0,60,1,p,385,45,55
1,1,1.0,3.0,0.7379145,0.25203960000000003,2,0,2,1,19.0,70,1,o,386,52,48
1,2,1.0,4.0,0.4422866,0.2505546,2,1,2,1,19.0,70,1,p,387,48,52
1,1,NaN,3.0,NaN,0.4032177,2,1,3,1,19.0,70,1,o,388,51,49
1,2,1.0,3.0,0.5557481,0.2347076,2,1,3,1,19.0,70,1,o,389,49,51
2,2,NaN,4.0,NaN,0.6135036,1,1,3,1,19.0,50,0,p,0,49,51
2,1,NaN,3.0,NaN,0.7967930000000001,1,0,2,1,19.0,70,0,o,1,52,48
2,1,1.0,4.0,0.7019939000000001,0.9773629,1,1,3,1,19.0,70,0,p,2,51,49
2,2,NaN,4.0,NaN,0.38094720000000004,1,1,1,1,19.0,50,0,p,3,45,55
2,1,1.0,4.0,0.7862925000000001,0.44533950000000005,1,1,2,1,19.0,70,0,p,4,52,48
2,2,NaN,3.0,NaN,0.8811766,1,1,1,1,19.0,50,0,o,5,45,55
2,2,NaN,3.0,NaN,0.8643002000000001,1,1,3,1,19.0,70,0,o,6,49,51
2,1,NaN,3.0,NaN,0.3472553,1,0,3,1,19.0,70,0,o,7,51,49
2,2,NaN,3.0,NaN,0.39686020000000005,1,1,3,1,19.0,60,0,o,8,49,51
2,1,NaN,3.0,NaN,0.563185,1,0,3,1,19.0,50,0,o,9,51,49
2,1,1.0,3.0,0.5643946,0.6110642,1,1,1,1,19.0,70,0,o,10,55,45
2,2,NaN,4.0,NaN,0.6815683000000001,1,1,1,1,19.0,70,0,p,11,45,55
2,2,1.0,3.0,0.9203885,0.6289475,1,0,3,1,19.0,70,0,o,12,49,51
2,2,NaN,3.0,NaN,0.38141959999999997,1,1,1,1,19.0,60,0,o,13,45,55
2,1,1.0,3.0,0.5912335,0.44418820000000003,1,1,1,1,19.0,60,0,o,14,55,45
2,1,1.0,3.0,0.5751093,0.3614954,1,1,2,1,19.0,60,0,o,15,52,48
2,1,NaN,3.0,NaN,0.36368659999999997,1,0,1,1,19.0,50,0,o,16,55,45
2,2,NaN,3.0,NaN,0.3476774,1,1,2,1,19.0,70,0,o,17,48,52
2,1,NaN,3.0,NaN,0.3811495,1,0,1,1,19.0,60,0,o,18,55,45
2,2,1.0,3.0,0.4558629,0.3959517,1,0,2,1,19.0,60,0,o,19,48,52
2,2,NaN,3.0,NaN,0.44845820000000003,1,1,3,1,19.0,60,0,o,20,49,51
2,2,NaN,3.0,NaN,0.38153940000000003,1,1,2,1,19.0,60,0,o,21,48,52
2,1,NaN,3.0,NaN,0.4132398,1,0,3,1,19.0,60,0,o,22,51,49
2,1,NaN,3.0,NaN,0.3140373,1,0,3,1,19.0,50,0,o,23,51,49
2,1,1.0,3.0,0.6190249,0.5776661999999999,1,1,2,1,19.0,50,0,o,24,52,48
2,2,NaN,3.0,NaN,0.3149005,1,1,2,1,19.0,50,0,o,25,48,52
2,2,NaN,3.0,NaN,0.36330640000000003,1,1,2,1,19.0,50,0,o,26,48,52
2,1,1.0,3.0,0.8703603000000001,0.5623185,1,1,2,1,19.0,60,0,o,27,52,48
2,2,NaN,3.0,NaN,0.4015511,1,1,1,1,19.0,70,0,o,28,45,55
2,1,1.0,3.0,0.9361392,0.5812470000000001,1,1,1,1,19.0,50,0,o,29,55,45
2,1,NaN,3.0,NaN,1.1314719,1,0,2,1,19.0,60,0,o,30,52,48
2,1,1.0,3.0,0.5874166000000001,0.36065240000000004,1,1,2,1,19.0,70,0,o,31,52,48
2,1,1.0,3.0,0.5074441,0.29636599999999996,1,1,1,1,19.0,50,0,o,32,55,45
2,2,NaN,3.0,NaN,0.31754629999999995,1,1,3,1,19.0,60,0,o,33,49,51
2,1,NaN,3.0,NaN,0.397949,1,0,2,1,19.0,70,0,o,34,52,48
2,2,NaN,3.0,NaN,0.384729,1,1,3,1,19.0,70,0,o,35,49,51
2,2,NaN,3.0,NaN,0.3310033,1,1,3,1,19.0,70,0,o,36,49,51
2,2,NaN,3.0,NaN,0.33309920000000004,1,1,1,1,19.0,60,0,o,37,45,55
2,1,1.0,3.0,0.6222079,0.4467875,1,1,3,1,19.0,60,0,o,38,51,49
2,2,NaN,3.0,NaN,0.33231890000000003,1,1,1,1,19.0,50,0,o,39,45,55
2,2,1.0,3.0,0.7875749,0.3425487,1,0,3,1,19.0,50,0,o,40,49,51
2,1,NaN,3.0,NaN,0.5313564000000001,1,0,1,1,19.0,50,0,o,41,55,45
2,1,1.0,3.0,0.7192443000000001,0.5946887,1,1,1,1,19.0,70,0,o,42,55,45
2,2,NaN,3.0,NaN,0.41528809999999994,1,1,3,1,19.0,60,0,o,43,49,51
2,1,1.0,3.0,0.8044918000000001,0.46267780000000003,1,1,2,1,19.0,60,0,o,44,52,48
2,2,NaN,2.0,NaN,1.5683508999999998,1,1,2,1,19.0,70,0,i,45,48,52
2,2,1.0,NaN,0.7543771,1.6306942,1,0,1,1,19.0,50,0,h,46,45,55
2,2,NaN,3.0,NaN,1.1846883999999998,1,1,1,1,19.0,70,0,o,47,45,55
2,1,1.0,3.0,0.7212187,0.4803013,1,1,1,1,19.0,60,0,o,48,55,45
2,2,NaN,3.0,NaN,0.5326466999999999,1,1,2,1,19.0,60,0,o,49,48,52
2,1,1.0,3.0,0.7526401,0.4960536,1,1,3,1,19.0,50,0,o,50,51,49
2,1,1.0,3.0,0.6698656,0.36313029999999996,1,1,3,1,19.0,70,0,o,51,51,49
2,2,NaN,3.0,NaN,0.2997136,1,1,2,1,19.0,50,0,o,52,48,52
2,2,NaN,3.0,NaN,0.38434840000000003,1,1,2,1,19.0,50,0,o,53,48,52
2,2,NaN,3.0,NaN,0.43194440000000006,1,1,2,1,19.0,60,0,o,54,48,52
2,1,1.0,3.0,0.4528038,0.4621862,1,1,3,1,19.0,50,0,o,55,51,49
2,2,NaN,3.0,NaN,0.3814752,1,1,1,1,19.0,70,0,o,56,45,55
2,1,NaN,3.0,NaN,0.396951,1,0,3,1,19.0,70,0,o,57,51,49
2,1,1.0,3.0,0.851864,0.4784964,1,1,1,1,19.0,60,0,o,58,55,45
2,1,1.0,3.0,0.5837270999999999,0.4983924,1,1,2,1,19.0,50,0,o,59,52,48
2,2,NaN,3.0,NaN,0.9977822000000001,1,1,2,1,19.0,60,0,o,60,48,52
2,2,NaN,3.0,NaN,0.3485993,1,1,2,1,19.0,50,0,o,61,48,52
2,2,NaN,3.0,NaN,0.3148164,1,1,2,1,19.0,70,0,o,62,48,52
2,1,NaN,3.0,NaN,0.1507984,1,0,2,1,19.0,60,0,o,63,52,48
2,2,NaN,3.0,NaN,0.31561009999999995,1,1,1,1,19.0,50,0,o,64,45,55
2,1,NaN,3.0,NaN,0.5316913000000001,1,0,3,1,19.0,50,0,o,65,51,49
2,1,NaN,3.0,NaN,0.38081390000000004,1,0,1,1,19.0,60,0,o,66,55,45
2,1,1.0,3.0,0.2683412,0.494432,1,1,2,1,19.0,70,0,o,67,52,48
2,1,1.0,3.0,0.5043746,0.3470756,1,1,3,1,19.0,70,0,o,68,51,49
2,1,1.0,3.0,0.464475,0.38164770000000003,1,1,2,1,19.0,50,0,o,69,52,48
2,1,1.0,3.0,0.7527833,0.3628991,1,1,2,1,19.0,60,0,o,70,52,48
2,2,NaN,3.0,NaN,0.332036,1,1,2,1,19.0,60,0,o,71,48,52
2,2,1.0,3.0,0.5542391,0.3470547,1,0,3,1,19.0,60,0,o,72,49,51
2,2,1.0,4.0,0.6711659000000001,0.7962776999999999,1,0,3,1,19.0,50,0,p,73,49,51
2,2,1.0,3.0,0.8527212,0.32943629999999996,1,0,3,1,19.0,70,0,o,74,49,51
2,2,NaN,3.0,NaN,0.3629078,1,1,1,1,19.0,70,0,o,75,45,55
2,1,1.0,3.0,0.6069174,0.3964801,1,1,1,1,19.0,60,0,o,76,55,45
2,2,NaN,3.0,NaN,0.3187264,1,1,3,1,19.0,70,0,o,77,49,51
2,2,NaN,4.0,NaN,0.41786809999999996,1,1,1,1,19.0,60,0,p,78,45,55
2,2,NaN,3.0,NaN,0.5500168000000001,1,1,1,1,19.0,70,0,o,79,45,55
2,2,1.0,3.0,0.7353171,0.37967140000000005,1,0,3,1,19.0,60,0,o,80,49,51
2,1,NaN,3.0,NaN,0.0790303,1,0,3,1,19.0,50,0,o,81,51,49
2,2,1.0,3.0,0.58009,0.34512740000000003,1,0,2,1,19.0,50,0,o,82,48,52
2,1,NaN,3.0,NaN,0.7354321999999999,1,0,3,1,19.0,60,0,o,83,51,49
2,1,1.0,3.0,0.5695509,0.4479566,1,1,2,1,19.0,70,0,o,84,52,48
2,1,1.0,3.0,0.3867085,0.3796299,1,1,1,1,19.0,50,0,o,85,55,45
2,1,1.0,3.0,0.4254715,0.3292679,1,1,1,1,19.0,70,0,o,86,55,45
2,1,1.0,3.0,0.3748085,0.3468064,1,1,1,1,19.0,50,0,o,87,55,45
2,2,NaN,3.0,NaN,0.6160401999999999,1,1,1,1,19.0,50,0,o,88,45,55
2,1,1.0,3.0,0.5531256999999999,0.21258670000000002,1,1,3,1,19.0,70,0,o,89,51,49
2,2,NaN,3.0,NaN,0.3980778,1,1,2,1,19.0,50,0,o,90,48,52
2,1,NaN,3.0,NaN,0.48400590000000004,1,0,3,1,19.0,60,0,o,91,51,49
2,1,1.0,3.0,0.5220229000000001,0.3980428,1,1,1,1,19.0,50,0,o,92,55,45
2,2,NaN,4.0,NaN,0.3022411,1,1,1,1,19.0,50,0,p,93,45,55
2,1,1.0,3.0,0.8346359,0.36363540000000005,1,1,3,1,19.0,70,0,o,94,51,49
2,2,NaN,4.0,NaN,0.38119780000000003,1,1,3,1,19.0,70,0,p,95,49,51
2,2,NaN,3.0,NaN,0.28117420000000004,1,1,3,1,19.0,60,0,o,96,49,51
2,2,NaN,3.0,NaN,0.3318066,1,1,1,1,19.0,70,0,o,97,45,55
2,2,1.0,3.0,0.8712274999999999,0.380064,1,0,2,1,19.0,60,0,o,98,48,52
2,2,NaN,3.0,NaN,0.2848914,1,1,1,1,19.0,70,0,o,99,45,55
2,1,1.0,3.0,0.42186549999999995,0.3803208,1,1,2,1,19.0,70,0,o,100,52,48
2,1,NaN,3.0,NaN,1.0485608,1,0,2,1,19.0,70,0,o,101,52,48
2,1,1.0,3.0,0.5553949,0.3287797,1,1,3,1,19.0,70,0,o,102,51,49
2,2,1.0,3.0,0.5225862,0.3789113,1,0,2,1,19.0,60,0,o,103,48,52
2,1,1.0,3.0,0.6210226,0.3627057,1,1,2,1,19.0,60,0,o,104,52,48
2,2,NaN,3.0,NaN,0.36786220000000003,1,1,1,1,19.0,60,0,o,105,45,55
2,1,1.0,3.0,0.4791514,0.37947390000000003,1,1,1,1,19.0,60,0,o,106,55,45
2,1,1.0,3.0,0.38148350000000003,0.363235,1,1,2,1,19.0,60,0,o,107,52,48
2,1,1.0,3.0,0.48904849999999994,0.41445540000000003,1,1,1,1,19.0,60,0,o,108,55,45
2,2,NaN,2.0,NaN,1.7851294999999998,1,1,2,1,19.0,50,0,i,109,48,52
2,1,1.0,3.0,0.5719533,0.3798905,1,1,3,1,19.0,50,0,o,110,51,49
2,1,1.0,3.0,0.6456304,0.8960435999999999,1,1,2,1,19.0,50,0,o,111,52,48
2,1,1.0,3.0,0.43904719999999997,0.31221540000000003,1,1,3,1,19.0,50,0,o,112,51,49
2,2,1.0,3.0,0.4651786,0.3118295,1,0,3,1,19.0,60,0,o,113,49,51
2,2,NaN,3.0,NaN,0.815682,1,1,2,1,19.0,70,0,o,114,48,52
2,2,NaN,3.0,NaN,0.4007587,1,1,3,1,19.0,50,0,o,115,49,51
2,1,1.0,3.0,0.47708540000000005,0.39660490000000004,1,1,1,1,19.0,50,0,o,116,55,45
2,2,NaN,3.0,NaN,0.8840406,1,1,1,1,19.0,50,0,o,117,45,55
2,1,1.0,3.0,0.48462159999999993,0.3621705,1,1,1,1,19.0,70,0,o,118,55,45
2,2,1.0,3.0,0.5429668000000001,0.3290701,1,0,3,1,19.0,70,0,o,119,49,51
2,2,1.0,3.0,0.5212985,0.4628508,1,0,3,1,19.0,60,0,o,120,49,51
2,1,1.0,3.0,0.29682509999999995,0.3059861,1,1,2,1,19.0,60,0,o,121,52,48
2,1,1.0,3.0,0.2877214,0.279913,1,1,1,1,19.0,60,0,o,122,55,45
2,1,1.0,3.0,0.4229188,0.2633025,1,1,2,1,19.0,50,0,o,123,52,48
2,1,1.0,3.0,0.2959007,0.2960842,1,1,1,1,19.0,50,0,o,124,55,45
2,1,1.0,3.0,0.3764224,0.26435359999999997,1,1,2,1,19.0,70,0,o,125,52,48
2,1,1.0,3.0,0.4718174,0.21270029999999998,1,1,3,1,19.0,60,0,o,126,51,49
2,1,1.0,3.0,0.3815651,0.2422114,1,1,1,1,19.0,50,0,o,127,55,45
2,1,1.0,3.0,0.25412440000000003,0.2621952,1,1,2,1,19.0,60,0,o,128,52,48
2,2,NaN,3.0,NaN,0.34709059999999997,1,1,3,1,19.0,50,0,o,129,49,51
2,2,NaN,3.0,NaN,0.3840653,1,1,1,1,19.0,70,0,o,130,45,55
2,1,1.0,3.0,0.5783481,0.26351199999999997,1,1,3,1,19.0,50,0,o,131,51,49
2,1,1.0,3.0,0.39717909999999995,0.2091242,1,1,1,1,19.0,60,0,o,132,55,45
2,1,1.0,3.0,0.2875696,0.2958829,1,1,3,1,19.0,50,0,o,133,51,49
2,1,1.0,3.0,0.30818629999999997,0.26251240000000003,1,1,2,1,19.0,70,0,o,134,52,48
2,2,1.0,3.0,0.197578,0.3127489,1,0,1,1,19.0,60,0,o,135,45,55
2,2,NaN,3.0,NaN,0.38150229999999996,1,1,3,1,19.0,60,0,o,136,49,51
2,2,NaN,3.0,NaN,0.3302759,1,1,3,1,19.0,70,0,o,137,49,51
2,2,1.0,3.0,0.4876008,0.31248990000000004,1,0,3,1,19.0,70,0,o,138,49,51
2,2,NaN,3.0,NaN,0.5007798,1,1,1,1,19.0,50,0,o,139,45,55
2,2,NaN,3.0,NaN,0.0648551,1,1,2,1,19.0,60,0,o,140,48,52
2,1,1.0,3.0,0.3632295,0.3655834,1,1,3,1,19.0,70,0,o,141,51,49
2,2,NaN,3.0,NaN,0.3147104,1,1,1,1,19.0,50,0,o,142,45,55
2,1,1.0,3.0,0.6541614,0.3621203,1,1,3,1,19.0,70,0,o,143,51,49
2,2,NaN,3.0,NaN,0.3337598,1,1,2,1,19.0,60,0,o,144,48,52
2,2,NaN,3.0,NaN,0.3499125,1,1,2,1,19.0,50,0,o,145,48,52
2,2,NaN,3.0,NaN,0.43172730000000004,1,1,2,1,19.0,70,0,o,146,48,52
2,2,NaN,3.0,NaN,0.3841352,1,1,1,1,19.0,70,0,o,147,45,55
2,2,NaN,3.0,NaN,0.3315555,1,1,2,1,19.0,50,0,o,148,48,52
2,1,1.0,3.0,0.5078779,0.41236709999999993,1,1,1,1,19.0,70,0,o,149,55,45
2,1,1.0,3.0,0.7549609,0.34572620000000004,1,1,1,1,19.0,60,0,o,150,55,45
2,1,1.0,3.0,0.38536079999999995,0.29422170000000003,1,1,2,1,19.0,60,0,o,151,52,48
2,1,1.0,3.0,0.4195063,0.2457828,1,1,2,1,19.0,60,0,o,152,52,48
2,2,1.0,3.0,0.7699069000000001,0.2956138,1,0,2,1,19.0,50,0,o,153,48,52
2,2,1.0,3.0,0.2291107,0.279444,1,0,2,1,19.0,50,0,o,154,48,52
2,2,1.0,3.0,0.24422249999999998,0.27370570000000005,1,0,3,1,19.0,60,0,o,155,49,51
2,1,1.0,3.0,0.2227634,0.2975948,1,1,1,1,19.0,60,0,o,156,55,45
2,2,1.0,3.0,0.3725928,0.21271089999999998,1,0,2,1,19.0,70,0,o,157,48,52
2,2,1.0,3.0,0.32279159999999996,0.27959870000000003,1,0,2,1,19.0,60,0,o,158,48,52
2,1,1.0,3.0,0.3213798,0.24646260000000003,1,1,3,1,19.0,70,0,o,159,51,49
2,2,1.0,3.0,0.15449129999999997,0.31265590000000004,1,0,1,1,19.0,60,0,o,160,45,55
2,1,1.0,3.0,0.33561040000000003,0.24534560000000002,1,1,1,1,19.0,70,0,o,161,55,45
2,2,1.0,3.0,0.42012659999999996,0.279408,1,0,1,1,19.0,50,0,o,162,45,55
2,2,1.0,3.0,0.3386514,0.24669899999999997,1,0,3,1,19.0,50,0,o,163,49,51
2,1,1.0,3.0,0.13655970000000003,0.31263959999999996,1,1,3,1,19.0,60,0,o,164,51,49
2,1,1.0,3.0,0.3202026,0.2634149,1,1,3,1,19.0,50,0,o,165,51,49
2,2,NaN,3.0,NaN,0.44833429999999996,1,1,3,1,19.0,70,0,o,166,49,51
2,2,NaN,3.0,NaN,0.3669087,1,1,2,1,19.0,60,0,o,167,48,52
2,2,NaN,3.0,NaN,0.39963200000000004,1,1,3,1,19.0,70,0,o,168,49,51
2,1,NaN,3.0,NaN,0.412929,1,0,2,1,19.0,70,0,o,169,52,48
2,2,NaN,3.0,NaN,0.33087790000000006,1,1,1,1,19.0,70,0,o,170,45,55
2,1,1.0,3.0,0.5188607,0.3812995,1,1,1,1,19.0,50,0,o,171,55,45
2,2,NaN,3.0,NaN,0.3173348,1,1,3,1,19.0,60,0,o,172,49,51
2,1,1.0,3.0,0.4236034000000001,0.41173420000000005,1,1,2,1,19.0,50,0,o,173,52,48
2,2,NaN,3.0,NaN,0.3315013,1,1,1,1,19.0,70,0,o,174,45,55
2,1,1.0,3.0,0.5045777,0.42957429999999996,1,1,3,1,19.0,70,0,o,175,51,49
2,1,NaN,3.0,NaN,0.31607870000000005,1,0,1,1,19.0,50,0,o,176,55,45
2,1,1.0,3.0,0.5515469,0.4791849,1,1,2,1,19.0,70,0,o,177,52,48
2,1,1.0,3.0,0.5891075,0.42806099999999997,1,1,3,1,19.0,50,0,o,178,51,49
2,2,NaN,3.0,NaN,0.2823604,1,1,1,1,19.0,50,0,o,179,45,55
2,2,NaN,3.0,NaN,1.1690583,1,1,1,1,19.0,70,0,o,180,45,55
2,2,NaN,3.0,NaN,0.7182734000000001,1,1,2,1,19.0,60,0,o,181,48,52
2,1,1.0,3.0,0.564854,0.36329670000000003,1,1,2,1,19.0,70,0,o,182,52,48
2,1,1.0,3.0,0.5031973,0.3956646,1,1,2,1,19.0,50,0,o,183,52,48
2,2,NaN,3.0,NaN,0.3506776,1,1,3,1,19.0,60,0,o,184,49,51
2,2,1.0,3.0,0.5376058000000001,0.2966841,1,0,3,1,19.0,50,0,o,185,49,51
2,2,NaN,3.0,NaN,0.3149628,1,1,1,1,19.0,50,0,o,186,45,55
2,1,NaN,3.0,NaN,0.28231459999999997,1,0,3,1,19.0,50,0,o,187,51,49
2,2,1.0,3.0,0.3290616,0.3477814,1,0,2,1,19.0,50,0,o,188,48,52
2,2,NaN,4.0,NaN,0.3843957,1,1,1,1,19.0,60,0,p,189,45,55
2,2,NaN,4.0,NaN,0.3485759,1,1,2,1,19.0,50,0,p,190,48,52
2,1,1.0,3.0,0.43433130000000003,0.31201890000000004,1,1,2,1,19.0,60,0,o,191,52,48
2,1,1.0,3.0,0.3985896,0.29479079999999996,1,1,1,1,19.0,50,0,o,192,55,45
2,1,1.0,3.0,0.33814770000000005,0.2584612,1,1,3,1,19.0,70,0,o,193,51,49
2,1,1.0,3.0,0.3021023,0.3292915,1,1,1,1,19.0,60,0,o,194,55,45
2,1,1.0,3.0,0.23599699999999998,0.39584949999999997,1,1,3,1,19.0,60,0,o,195,51,49
2,2,NaN,3.0,NaN,0.318684,1,1,2,1,19.0,70,0,o,196,48,52
2,1,NaN,3.0,NaN,0.3343011,1,0,2,1,19.0,60,0,o,197,52,48
2,2,NaN,3.0,NaN,0.299706,1,1,1,1,19.0,70,0,o,198,45,55
2,1,1.0,3.0,0.5184294,0.39543290000000003,1,1,2,1,19.0,70,0,o,199,52,48
2,2,NaN,3.0,NaN,0.14829520000000002,1,1,2,1,19.0,60,0,o,200,48,52
2,1,1.0,3.0,0.42138729999999996,0.4799357,1,1,1,1,19.0,70,0,o,201,55,45
2,1,1.0,3.0,0.3716969,0.39590749999999997,1,1,1,1,19.0,60,0,o,202,55,45
2,1,1.0,3.0,0.7580819000000001,0.3806901,1,1,1,1,19.0,50,0,o,203,55,45
2,2,NaN,3.0,NaN,0.29842470000000004,1,1,3,1,19.0,70,0,o,204,49,51
2,2,NaN,3.0,NaN,0.3815693,1,1,1,1,19.0,50,0,o,205,45,55
2,2,NaN,3.0,NaN,0.0001182,1,1,3,1,19.0,70,0,o,206,49,51
2,1,1.0,3.0,0.47193670000000004,0.43106279999999997,1,1,3,1,19.0,70,0,o,207,51,49
2,2,NaN,3.0,NaN,0.2006206,1,1,3,1,19.0,60,0,o,208,49,51
2,1,1.0,3.0,0.4459369000000001,0.4140746,1,1,3,1,19.0,50,0,o,209,51,49
2,2,NaN,3.0,NaN,1.0809635,1,1,3,1,19.0,60,0,o,210,49,51
2,2,NaN,3.0,NaN,0.2998845,1,1,3,1,19.0,50,0,o,211,49,51
2,1,1.0,3.0,0.17253139999999997,0.8629252000000001,1,1,2,1,19.0,50,0,o,212,52,48
2,1,NaN,3.0,NaN,0.5519672,1,0,3,1,19.0,50,0,o,213,51,49
2,2,NaN,3.0,NaN,0.3177624,1,1,3,1,19.0,70,0,o,214,49,51
2,1,NaN,3.0,NaN,0.5170152,1,0,2,1,19.0,70,0,o,215,52,48
2,2,NaN,3.0,NaN,0.2847365,1,1,3,1,19.0,70,0,o,216,49,51
2,2,NaN,3.0,NaN,0.3158307,1,1,2,1,19.0,70,0,o,217,48,52
2,2,NaN,3.0,NaN,0.2819939,1,1,1,1,19.0,60,0,o,218,45,55
2,2,NaN,3.0,NaN,0.2852912,1,1,1,1,19.0,70,0,o,219,45,55
2,1,NaN,3.0,NaN,0.20243770000000003,1,0,2,1,19.0,70,0,o,220,52,48
2,1,1.0,3.0,0.5043139,0.4318037,1,1,1,1,19.0,70,0,o,221,55,45
2,2,NaN,3.0,NaN,0.1350215,1,1,1,1,19.0,50,0,o,222,45,55
2,2,NaN,3.0,NaN,0.23463379999999998,1,1,1,1,19.0,50,0,o,223,45,55
2,2,1.0,3.0,0.44369040000000004,0.39219729999999997,1,0,2,1,19.0,50,0,o,224,48,52
2,1,1.0,3.0,0.3872555,0.4136254,1,1,1,1,19.0,50,0,o,225,55,45
2,1,1.0,3.0,0.4037675,0.3292074,1,1,3,1,19.0,50,0,o,226,51,49
2,2,NaN,3.0,NaN,0.1334925,1,1,3,1,19.0,60,0,o,227,49,51
2,2,NaN,3.0,NaN,0.38441820000000004,1,1,1,1,19.0,70,0,o,228,45,55
2,1,1.0,3.0,0.3885973,0.398328,1,1,1,1,19.0,60,0,o,229,55,45
2,1,NaN,3.0,NaN,0.20160229999999998,1,0,3,1,19.0,70,0,o,230,51,49
2,1,1.0,3.0,0.43137109999999995,0.4310236,1,1,1,1,19.0,50,0,o,231,55,45
2,2,NaN,3.0,NaN,0.2991158,1,1,2,1,19.0,60,0,o,232,48,52
2,2,NaN,3.0,NaN,0.3174309,1,1,2,1,19.0,60,0,o,233,48,52
2,1,1.0,3.0,0.5723651999999999,0.49493050000000005,1,1,3,1,19.0,60,0,o,234,51,49
2,1,NaN,3.0,NaN,0.5648236999999999,1,0,2,1,19.0,60,0,o,235,52,48
2,1,1.0,3.0,0.5188872,0.4315481,1,1,1,1,19.0,60,0,o,236,55,45
2,2,NaN,3.0,NaN,0.3183267,1,1,2,1,19.0,50,0,o,237,48,52
2,1,1.0,3.0,0.4387478,0.44516990000000006,1,1,2,1,19.0,60,0,o,238,52,48
2,1,1.0,3.0,0.5199367,0.4137749,1,1,3,1,19.0,70,0,o,239,51,49
2,2,NaN,3.0,NaN,0.43382570000000004,1,1,3,1,19.0,70,0,o,240,49,51
2,1,NaN,3.0,NaN,0.11772160000000001,1,0,3,1,19.0,50,0,o,241,51,49
2,2,NaN,4.0,NaN,0.2675066,1,1,1,1,19.0,50,0,p,242,45,55
2,2,NaN,3.0,NaN,0.13456479999999998,1,1,1,1,19.0,70,0,o,243,45,55
2,1,NaN,3.0,NaN,0.45156430000000003,1,0,2,1,19.0,70,0,o,244,52,48
2,2,NaN,3.0,NaN,0.7180187,1,1,3,1,19.0,60,0,o,245,49,51
2,2,NaN,3.0,NaN,0.2512188,1,1,2,1,19.0,60,0,o,246,48,52
2,1,NaN,3.0,NaN,0.2511744,1,0,3,1,19.0,70,0,o,247,51,49
2,2,NaN,NaN,NaN,1.501443,1,1,2,1,19.0,50,0,h,248,48,52
2,1,NaN,3.0,NaN,0.6007918999999999,1,0,3,1,19.0,50,0,o,249,51,49
2,2,NaN,3.0,NaN,0.33396479999999995,1,1,2,1,19.0,50,0,o,250,48,52
2,1,1.0,3.0,0.35436999999999996,0.39630190000000004,1,1,1,1,19.0,50,0,o,251,55,45
2,1,NaN,3.0,NaN,0.2984742,1,0,3,1,19.0,70,0,o,252,51,49
2,1,1.0,3.0,0.4193054,0.32894840000000003,1,1,3,1,19.0,60,0,o,253,51,49
2,2,NaN,3.0,NaN,0.1830889,1,1,1,1,19.0,60,0,o,254,45,55
2,1,1.0,3.0,0.2251827,0.26296640000000004,1,1,1,1,19.0,60,0,o,255,55,45
2,1,1.0,3.0,0.4028492,0.2143292,1,1,2,1,19.0,60,0,o,256,52,48
2,2,NaN,3.0,NaN,0.5008239000000001,1,1,1,1,19.0,70,0,o,257,45,55
2,2,NaN,3.0,NaN,0.300489,1,1,2,1,19.0,60,0,o,258,48,52
2,1,1.0,3.0,0.3558153,0.2815919,1,1,2,1,19.0,50,0,o,259,52,48
2,2,NaN,4.0,NaN,0.282355,1,1,3,1,19.0,50,0,p,260,49,51
2,2,1.0,3.0,0.6051769,0.34622070000000005,1,0,3,1,19.0,60,0,o,261,49,51
2,2,NaN,3.0,NaN,0.6673765,1,1,1,1,19.0,50,0,o,262,45,55
2,1,1.0,3.0,0.3561264,0.3133176,1,1,2,1,19.0,70,0,o,263,52,48
2,1,1.0,3.0,0.3162942,0.2137201,1,1,1,1,19.0,50,0,o,264,55,45
2,2,1.0,3.0,0.1541249,0.2635194,1,0,2,1,19.0,70,0,o,265,48,52
2,2,1.0,3.0,0.1508735,0.313313,1,0,3,1,19.0,70,0,o,266,49,51
2,1,NaN,3.0,NaN,0.38553990000000005,1,0,2,1,19.0,60,0,o,267,52,48
2,1,1.0,3.0,0.3198835,0.3107031,1,1,1,1,19.0,70,0,o,268,55,45
2,1,1.0,4.0,0.3230765,0.3627283,1,1,1,1,19.0,60,0,p,269,55,45
2,1,NaN,3.0,NaN,0.25117110000000004,1,0,2,1,19.0,70,0,o,270,52,48
2,2,NaN,3.0,NaN,0.2847982,1,1,3,1,19.0,60,0,o,271,49,51
2,2,NaN,3.0,NaN,0.0003989,1,1,3,1,19.0,70,0,o,272,49,51
2,1,1.0,3.0,0.4148877,0.3120333,1,1,1,1,19.0,60,0,o,273,55,45
2,2,1.0,3.0,0.33809570000000005,0.24673409999999998,1,0,2,1,19.0,60,0,o,274,48,52
2,2,NaN,3.0,NaN,0.4676352,1,1,1,1,19.0,50,0,o,275,45,55
2,2,NaN,3.0,NaN,0.2846878,1,1,3,1,19.0,60,0,o,276,49,51
2,2,NaN,3.0,NaN,0.23517960000000002,1,1,2,1,19.0,60,0,o,277,48,52
2,1,1.0,3.0,0.45355790000000007,0.3635864,1,1,1,1,19.0,50,0,o,278,55,45
2,2,1.0,3.0,0.43074229999999997,0.2635212,1,0,2,1,19.0,50,0,o,279,48,52
2,2,NaN,3.0,NaN,0.4342265,1,1,3,1,19.0,50,0,o,280,49,51
2,2,NaN,4.0,NaN,0.3801447,1,1,1,1,19.0,60,0,p,281,45,55
2,1,1.0,3.0,0.4205513,0.3110505,1,1,2,1,19.0,70,0,o,282,52,48
2,1,1.0,3.0,0.31536290000000006,0.33183490000000004,1,1,3,1,19.0,70,0,o,283,51,49
2,1,NaN,3.0,NaN,0.26769709999999997,1,0,3,1,19.0,50,0,o,284,51,49
2,2,NaN,3.0,NaN,0.285355,1,1,2,1,19.0,70,0,o,285,48,52
2,2,NaN,3.0,NaN,0.2842873,1,1,2,1,19.0,50,0,o,286,48,52
2,2,NaN,4.0,NaN,0.28473699999999996,1,1,1,1,19.0,50,0,p,287,45,55
2,2,NaN,3.0,NaN,0.25074050000000003,1,1,1,1,19.0,70,0,o,288,45,55
2,2,NaN,3.0,NaN,0.167803,1,1,1,1,19.0,70,0,o,289,45,55
2,1,1.0,3.0,0.43965640000000006,0.3616902,1,1,1,1,19.0,70,0,o,290,55,45
2,1,NaN,3.0,NaN,0.23213899999999998,1,0,3,1,19.0,50,0,o,291,51,49
2,2,1.0,3.0,0.5407133000000001,0.3126361,1,0,3,1,19.0,70,0,o,292,49,51
2,1,1.0,3.0,0.6484885,0.33165690000000003,1,1,3,1,19.0,70,0,o,293,51,49
2,1,1.0,3.0,0.4048879,0.2799644,1,1,1,1,19.0,50,0,o,294,55,45
2,1,NaN,3.0,NaN,0.2005735,1,0,3,1,19.0,60,0,o,295,51,49
2,1,1.0,3.0,0.2726662,0.29712150000000004,1,1,1,1,19.0,60,0,o,296,55,45
2,1,1.0,3.0,0.5031175,0.2803039,1,1,2,1,19.0,50,0,o,297,52,48
2,1,1.0,3.0,0.37246999999999997,0.22993979999999997,1,1,2,1,19.0,60,0,o,298,52,48
2,1,1.0,3.0,0.23827710000000002,0.26307270000000005,1,1,2,1,19.0,60,0,o,299,52,48
2,1,1.0,3.0,0.5544679,0.364797,1,1,1,1,19.0,60,0,o,300,55,45
2,2,NaN,3.0,NaN,0.3358699,1,1,3,1,19.0,60,0,o,301,49,51
2,2,NaN,3.0,NaN,0.3172937,1,1,3,1,19.0,50,0,o,302,49,51
2,2,NaN,3.0,NaN,0.2679356,1,1,1,1,19.0,50,0,o,303,45,55
2,2,1.0,3.0,0.37062209999999995,0.32856799999999997,1,0,3,1,19.0,60,0,o,304,49,51
2,2,NaN,3.0,NaN,0.400989,1,1,2,1,19.0,50,0,o,305,48,52
2,1,1.0,3.0,0.4535083,0.2966598,1,1,3,1,19.0,70,0,o,306,51,49
2,1,1.0,3.0,0.4348624,0.26425190000000004,1,1,3,1,19.0,50,0,o,307,51,49
2,2,NaN,3.0,NaN,0.1348348,1,1,1,1,19.0,70,0,o,308,45,55
2,1,1.0,3.0,0.343995,0.23159320000000003,1,1,2,1,19.0,60,0,o,309,52,48
2,1,1.0,3.0,0.5051306,0.21438870000000002,1,1,2,1,19.0,70,0,o,310,52,48
2,1,NaN,3.0,NaN,0.3341941,1,0,3,1,19.0,70,0,o,311,51,49
2,1,1.0,3.0,0.45276540000000004,0.2617492,1,1,2,1,19.0,70,0,o,312,52,48
2,2,1.0,3.0,0.485084,0.6285519,1,0,2,1,19.0,70,0,o,313,48,52
2,2,NaN,3.0,NaN,0.23350820000000003,1,1,1,1,19.0,70,0,o,314,45,55
2,2,1.0,3.0,0.6903516,0.46372890000000005,1,0,2,1,19.0,60,0,o,315,48,52
2,2,NaN,3.0,NaN,0.21765929999999997,1,1,1,1,19.0,50,0,o,316,45,55
2,1,1.0,3.0,0.38697800000000004,0.3149833,1,1,1,1,19.0,50,0,o,317,55,45
2,2,1.0,3.0,0.4053859,0.28101079999999995,1,0,2,1,19.0,60,0,o,318,48,52
2,1,1.0,3.0,0.26928309999999994,0.29742340000000006,1,1,1,1,19.0,70,0,o,319,55,45
2,1,1.0,3.0,0.3217492,0.2979112,1,1,3,1,19.0,50,0,o,320,51,49
2,1,1.0,3.0,0.1874718,0.31212790000000007,1,1,3,1,19.0,60,0,o,321,51,49
2,2,NaN,3.0,NaN,0.3172615,1,1,1,1,19.0,60,0,o,322,45,55
2,2,NaN,3.0,NaN,0.28456190000000003,1,1,3,1,19.0,70,0,o,323,49,51
2,1,1.0,3.0,0.45293420000000006,0.3308475,1,1,2,1,19.0,50,0,o,324,52,48
2,1,1.0,3.0,0.6463831,0.2645134,1,1,1,1,19.0,60,0,o,325,55,45
2,1,1.0,3.0,0.3722492,0.2808507,1,1,2,1,19.0,60,0,o,326,52,48
2,2,NaN,3.0,NaN,0.2843623,1,1,2,1,19.0,50,0,o,327,48,52
2,2,1.0,3.0,0.5190094,0.2308567,1,0,3,1,19.0,70,0,o,328,49,51
2,1,1.0,3.0,0.4362161,0.2958013,1,1,1,1,19.0,50,0,o,329,55,45
2,1,1.0,3.0,0.3546419,0.31377790000000005,1,1,1,1,19.0,70,0,o,330,55,45
2,2,1.0,3.0,0.3203968,0.296358,1,0,2,1,19.0,50,0,o,331,48,52
2,1,1.0,3.0,0.4013257,0.2488871,1,1,1,1,19.0,60,0,o,332,55,45
2,1,1.0,NaN,0.44609,1.4979133999999998,1,1,2,1,19.0,50,0,h,333,52,48
2,1,NaN,3.0,NaN,0.7837708999999999,1,0,3,1,19.0,50,0,o,334,51,49
2,2,1.0,3.0,0.756184,0.2810385,1,0,3,1,19.0,70,0,o,335,49,51
2,2,NaN,3.0,NaN,0.301483,1,1,2,1,19.0,50,0,o,336,48,52
2,1,1.0,3.0,0.4308044,0.2131359,1,1,3,1,19.0,50,0,o,337,51,49
2,2,1.0,3.0,0.4199085999999999,0.26302859999999995,1,0,3,1,19.0,60,0,o,338,49,51
2,2,NaN,3.0,NaN,0.28184509999999996,1,1,1,1,19.0,50,0,o,339,45,55
2,2,NaN,3.0,NaN,0.2519521,1,1,2,1,19.0,70,0,o,340,48,52
2,1,1.0,3.0,0.3698617,0.3483965,1,1,1,1,19.0,60,0,o,341,55,45
2,2,1.0,3.0,0.9557114,0.2134596,1,0,2,1,19.0,60,0,o,342,48,52
2,2,NaN,4.0,NaN,0.0672289,1,1,1,1,19.0,70,0,p,343,45,55
2,1,1.0,3.0,0.6673363,0.2810842,1,1,1,1,19.0,50,0,o,344,55,45
2,1,1.0,3.0,0.48847299999999994,0.19752460000000002,1,1,2,1,19.0,70,0,o,345,52,48
2,2,1.0,3.0,0.4714295,0.1967471,1,0,3,1,19.0,70,0,o,346,49,51
2,1,NaN,3.0,NaN,0.28162790000000004,1,0,2,1,19.0,70,0,o,347,52,48
2,1,1.0,3.0,0.3298092,0.2463091,1,1,1,1,19.0,50,0,o,348,55,45
2,1,NaN,3.0,NaN,0.13243370000000002,1,0,3,1,19.0,70,0,o,349,51,49
2,2,NaN,3.0,NaN,0.1830424,1,1,1,1,19.0,50,0,o,350,45,55
2,1,1.0,3.0,0.5397374,0.29739109999999996,1,1,3,1,19.0,70,0,o,351,51,49
2,1,NaN,3.0,NaN,0.2345266,1,0,2,1,19.0,60,0,o,352,52,48
2,2,NaN,3.0,NaN,0.28419099999999997,1,1,1,1,19.0,60,0,o,353,45,55
2,2,NaN,3.0,NaN,0.3340219,1,1,3,1,19.0,60,0,o,354,49,51
2,2,NaN,3.0,NaN,0.21904229999999997,1,1,3,1,19.0,50,0,o,355,49,51
2,2,NaN,3.0,NaN,0.2492874,1,1,2,1,19.0,60,0,o,356,48,52
2,1,NaN,3.0,NaN,0.4484758,1,0,3,1,19.0,60,0,o,357,51,49
2,1,1.0,3.0,0.8042585999999999,0.3313509,1,1,2,1,19.0,60,0,o,358,52,48
2,2,NaN,3.0,NaN,0.3169375,1,1,1,1,19.0,70,0,o,359,45,55
2,2,NaN,3.0,NaN,0.28129940000000003,1,1,1,1,19.0,70,0,o,360,45,55
2,1,1.0,3.0,0.4880642,0.3302718,1,1,2,1,19.0,60,0,o,361,52,48
2,1,1.0,3.0,0.7562806,0.2634072,1,1,1,1,19.0,70,0,o,362,55,45
2,2,NaN,3.0,NaN,0.267926,1,1,1,1,19.0,50,0,o,363,45,55
2,2,NaN,3.0,NaN,0.3174117,1,1,3,1,19.0,70,0,o,364,49,51
2,1,1.0,3.0,0.488241,0.1977638,1,1,1,1,19.0,60,0,o,365,55,45
2,1,1.0,3.0,0.6843393,0.33101420000000004,1,1,2,1,19.0,60,0,o,366,52,48
2,1,1.0,3.0,0.42146540000000005,0.2643159,1,1,1,1,19.0,50,0,o,367,55,45
2,1,NaN,3.0,NaN,0.2810762,1,0,3,1,19.0,70,0,o,368,51,49
2,2,NaN,3.0,NaN,0.2844988,1,1,3,1,19.0,70,0,o,369,49,51
2,2,NaN,3.0,NaN,0.300536,1,1,2,1,19.0,50,0,o,370,48,52
2,2,NaN,3.0,NaN,0.200924,1,1,1,1,19.0,50,0,o,371,45,55
2,2,NaN,3.0,NaN,0.23537950000000002,1,1,3,1,19.0,50,0,o,372,49,51
2,1,1.0,3.0,0.40633379999999997,0.2647156,1,1,2,1,19.0,70,0,o,373,52,48
2,2,NaN,3.0,NaN,0.28485079999999996,1,1,3,1,19.0,60,0,o,374,49,51
2,2,1.0,3.0,0.35244380000000003,0.2309888,1,0,2,1,19.0,50,0,o,375,48,52
2,1,NaN,3.0,NaN,0.3979992,1,0,3,1,19.0,50,0,o,376,51,49
2,1,1.0,3.0,0.8073537,0.2297174,1,1,2,1,19.0,70,0,o,377,52,48
2,1,1.0,3.0,0.4410161,0.22893270000000002,1,1,1,1,19.0,50,0,o,378,55,45
2,2,NaN,3.0,NaN,0.7007372,1,1,2,1,19.0,60,0,o,379,48,52
2,1,1.0,3.0,0.5242519,0.21504829999999997,1,1,2,1,19.0,50,0,o,380,52,48
2,2,NaN,3.0,NaN,0.0518476,1,1,2,1,19.0,60,0,o,381,48,52
2,2,1.0,3.0,0.388928,0.2469179,1,0,2,1,19.0,70,0,o,382,48,52
2,2,NaN,3.0,NaN,0.1177588,1,1,1,1,19.0,70,0,o,383,45,55
2,2,NaN,3.0,NaN,0.2813503,1,1,1,1,19.0,60,0,o,384,45,55
2,2,NaN,3.0,NaN,0.034386599999999996,1,1,3,1,19.0,60,0,o,385,49,51
2,1,1.0,3.0,0.44806850000000004,0.33017529999999995,1,1,3,1,19.0,60,0,o,386,51,49
2,1,1.0,3.0,0.38473320000000005,0.8468716999999999,1,1,3,1,19.0,50,0,o,387,51,49
2,1,1.0,3.0,0.386988,0.31471129999999997,1,1,3,1,19.0,70,0,o,388,51,49
2,1,1.0,3.0,0.4116682,0.2645593,1,1,1,1,19.0,60,0,o,389,55,45
2,2,NaN,3.0,NaN,0.41529499999999997,2,0,3,1,19.0,60,1,o,0,49,51
2,2,1.0,3.0,0.4305213,0.2961491,2,1,3,1,19.0,70,1,o,1,49,51
2,1,NaN,4.0,NaN,0.252161,2,1,2,1,19.0,50,1,p,2,52,48
2,1,NaN,3.0,NaN,0.3019393,2,1,2,1,19.0,70,1,o,3,52,48
2,2,1.0,3.0,0.7711475,0.29827329999999996,2,1,2,1,19.0,50,1,o,4,48,52
2,1,NaN,3.0,NaN,0.2313067,2,1,1,1,19.0,50,1,o,5,55,45
2,1,NaN,4.0,NaN,0.1646035,2,1,1,1,19.0,70,1,p,6,55,45
2,2,1.0,3.0,0.3718189,0.34712209999999993,2,1,3,1,19.0,60,1,o,7,49,51
2,2,NaN,3.0,NaN,1.8518411,2,0,3,1,19.0,70,1,o,9,49,51
2,1,NaN,3.0,NaN,0.5350268,2,1,1,1,19.0,60,1,o,10,55,45
2,1,1.0,3.0,0.23879679999999998,0.36244570000000004,2,0,3,1,19.0,70,1,o,11,51,49
2,1,1.0,3.0,0.6539989,0.2793983,2,0,3,1,19.0,60,1,o,12,51,49
2,2,1.0,3.0,0.2537578,0.31337729999999997,2,1,2,1,19.0,60,1,o,13,48,52
2,2,1.0,3.0,0.2727824,0.2796427,2,1,1,1,19.0,50,1,o,14,45,55
2,1,NaN,3.0,NaN,0.700902,2,1,2,1,19.0,70,1,o,15,52,48
2,1,1.0,3.0,0.3707132,0.3307636,2,0,1,1,19.0,50,1,o,16,55,45
2,2,1.0,3.0,0.488458,0.27960300000000005,2,1,1,1,19.0,50,1,o,17,45,55
2,2,1.0,3.0,0.37278140000000004,0.2810886,2,1,1,1,19.0,60,1,o,18,45,55
2,2,NaN,3.0,NaN,0.35117309999999996,2,0,2,1,19.0,50,1,o,19,48,52
2,1,NaN,3.0,NaN,0.28446350000000004,2,1,3,1,19.0,50,1,o,20,51,49
2,1,1.0,3.0,0.18837879999999999,0.3478139,2,0,3,1,19.0,50,1,o,21,51,49
2,2,1.0,3.0,0.27279050000000005,0.280194,2,1,2,1,19.0,70,1,o,22,48,52
2,1,1.0,3.0,0.2711803,0.33012990000000003,2,0,2,1,19.0,60,1,o,23,52,48
2,1,1.0,3.0,0.3370172,0.2954112,2,0,2,1,19.0,60,1,o,24,52,48
2,1,1.0,NaN,0.4718866,1.6808897,2,0,3,1,19.0,70,1,h,25,51,49
2,2,1.0,3.0,0.9427416999999999,0.680532,2,1,1,1,19.0,70,1,o,26,45,55
2,2,1.0,3.0,0.43189390000000005,0.3638499,2,1,3,1,19.0,50,1,o,27,49,51
2,2,1.0,3.0,0.9370710999999999,0.3963855,2,1,2,1,19.0,60,1,o,28,48,52
2,1,NaN,3.0,NaN,0.2993818,2,1,1,1,19.0,60,1,o,29,55,45
2,2,1.0,3.0,0.8180333000000001,0.380871,2,1,2,1,19.0,50,1,o,30,48,52
2,1,1.0,3.0,0.5043965,0.2796407,2,0,3,1,19.0,70,1,o,31,51,49
2,2,1.0,3.0,0.46926940000000006,0.2969722,2,1,3,1,19.0,60,1,o,32,49,51
2,1,NaN,3.0,NaN,0.4021135,2,1,1,1,19.0,70,1,o,33,55,45
2,2,1.0,3.0,0.8530742,0.2649103,2,1,3,1,19.0,70,1,o,34,49,51
2,2,1.0,3.0,0.4561762,0.20291589999999998,2,1,2,1,19.0,60,1,o,35,48,52
2,1,1.0,3.0,0.4707291,0.2793036,2,0,2,1,19.0,60,1,o,36,52,48
2,2,1.0,3.0,0.32997150000000003,0.28040640000000006,2,1,2,1,19.0,60,1,o,37,48,52
2,1,NaN,3.0,NaN,0.3821682,2,1,3,1,19.0,70,1,o,38,51,49
2,2,1.0,3.0,0.43606239999999996,0.22987510000000003,2,1,3,1,19.0,70,1,o,39,49,51
2,2,1.0,3.0,0.2927539,0.24590689999999998,2,1,1,1,19.0,50,1,o,40,45,55
2,2,1.0,3.0,0.5066111,0.2312794,2,1,2,1,19.0,70,1,o,41,48,52
2,1,1.0,3.0,0.22240970000000002,0.3482737,2,0,1,1,19.0,50,1,o,42,55,45
2,2,NaN,3.0,NaN,0.31544809999999995,2,0,3,1,19.0,60,1,o,43,49,51
2,1,1.0,3.0,0.1881139,0.2811342,2,0,3,1,19.0,60,1,o,44,51,49
2,1,NaN,4.0,NaN,0.3483683,2,1,1,1,19.0,60,1,p,45,55,45
2,2,1.0,3.0,0.35471929999999996,0.3469672,2,1,1,1,19.0,70,1,o,47,45,55
2,1,1.0,4.0,0.5087005,0.42980690000000005,2,0,2,1,19.0,70,1,p,48,52,48
2,1,NaN,3.0,NaN,0.7511369000000001,2,1,2,1,19.0,70,1,o,49,52,48
2,1,1.0,3.0,0.38293979999999994,0.2978535,2,0,2,1,19.0,60,1,o,50,52,48
2,2,1.0,3.0,0.30435559999999995,0.4012715,2,1,1,1,19.0,60,1,o,51,45,55
2,2,1.0,3.0,0.1546622,0.3131773,2,1,3,1,19.0,50,1,o,52,49,51
2,2,1.0,3.0,0.1706012,0.2785038,2,1,1,1,19.0,70,1,o,53,45,55
2,2,1.0,4.0,0.186818,0.2969274,2,1,2,1,19.0,50,1,p,54,48,52
2,1,1.0,3.0,0.3222704,0.2468384,2,0,3,1,19.0,50,1,o,55,51,49
2,1,1.0,4.0,0.2380607,0.44680200000000003,2,0,1,1,19.0,60,1,p,56,55,45
2,1,1.0,3.0,0.1376979,0.2958191,2,0,2,1,19.0,50,1,o,57,52,48
2,1,NaN,3.0,NaN,0.3348007,2,1,1,1,19.0,50,1,o,58,55,45
2,1,1.0,3.0,0.3155636,0.2638439,2,0,3,1,19.0,50,1,o,59,51,49
2,2,1.0,3.0,0.7364144,0.41290070000000006,2,1,2,1,19.0,50,1,o,60,48,52
2,2,1.0,3.0,0.1698667,0.2466882,2,1,2,1,19.0,70,1,o,61,48,52
2,1,1.0,3.0,0.2215697,0.24652190000000002,2,0,3,1,19.0,50,1,o,62,51,49
2,2,1.0,3.0,0.7373674,0.2462276,2,1,1,1,19.0,50,1,o,63,45,55
2,1,NaN,3.0,NaN,0.21486149999999998,2,1,2,1,19.0,60,1,o,64,52,48
2,1,NaN,3.0,NaN,0.1843152,2,1,2,1,19.0,60,1,o,65,52,48
2,1,NaN,3.0,NaN,0.33397740000000004,2,1,3,1,19.0,50,1,o,66,51,49
2,1,NaN,3.0,NaN,0.235704,2,1,3,1,19.0,60,1,o,67,51,49
2,1,1.0,3.0,0.1954193,0.29657490000000003,2,0,2,1,19.0,70,1,o,68,52,48
2,1,1.0,3.0,0.7527351,0.33088059999999997,2,0,1,1,19.0,60,1,o,69,55,45
2,2,NaN,3.0,NaN,0.2510922,2,0,3,1,19.0,50,1,o,70,49,51
2,2,NaN,3.0,NaN,0.0508816,2,0,1,1,19.0,70,1,o,71,45,55
2,2,1.0,3.0,0.6679333000000001,0.2300993,2,1,3,1,19.0,70,1,o,72,49,51
2,2,1.0,3.0,0.854816,0.3451145,2,1,2,1,19.0,60,1,o,73,48,52
2,2,1.0,3.0,0.3888837,0.21480990000000003,2,1,1,1,19.0,60,1,o,74,45,55
2,2,1.0,3.0,0.2552725,0.23116460000000003,2,1,2,1,19.0,60,1,o,75,48,52
2,1,1.0,3.0,0.9120269,0.19692939999999998,2,0,3,1,19.0,70,1,o,76,51,49
2,1,NaN,3.0,NaN,0.28342649999999997,2,1,1,1,19.0,50,1,o,77,55,45
2,1,1.0,3.0,0.518116,0.24681060000000002,2,0,1,1,19.0,60,1,o,78,55,45
2,1,NaN,3.0,NaN,0.0465814,2,1,3,1,19.0,70,1,o,79,51,49
2,2,1.0,3.0,0.8341109,0.2610089,2,1,1,1,19.0,70,1,o,80,45,55
2,1,NaN,3.0,NaN,0.21863649999999998,2,1,2,1,19.0,50,1,o,81,52,48
2,1,1.0,NaN,0.38673,1.7144363999999999,2,0,1,1,19.0,70,1,h,82,55,45
2,1,1.0,NaN,0.7200359000000001,1.2314035,2,0,1,1,19.0,50,1,h,83,55,45
2,2,1.0,3.0,0.6669046999999999,0.2795837,2,1,2,1,19.0,50,1,o,84,48,52
2,2,1.0,3.0,0.5712863,0.3304205,2,1,1,1,19.0,50,1,o,85,45,55
2,1,NaN,3.0,NaN,0.2673612,2,1,2,1,19.0,70,1,o,86,52,48
2,2,1.0,3.0,0.7647225000000001,0.2798552,2,1,3,1,19.0,60,1,o,87,49,51
2,2,1.0,3.0,0.9150497999999999,0.3628015,2,1,3,1,19.0,70,1,o,88,49,51
2,2,1.0,3.0,0.540047,0.2482245,2,1,3,1,19.0,60,1,o,89,49,51
2,1,NaN,3.0,NaN,0.3985284,2,1,1,1,19.0,50,1,o,90,55,45
2,1,1.0,3.0,0.4214742,0.31336929999999996,2,0,2,1,19.0,60,1,o,91,52,48
2,2,1.0,3.0,0.5642771,0.3122537,2,1,3,1,19.0,70,1,o,92,49,51
2,1,1.0,3.0,0.36760429999999994,0.246819,2,0,2,1,19.0,70,1,o,93,52,48
2,1,1.0,3.0,0.7061054,0.5302271,2,0,2,1,19.0,60,1,o,94,52,48
2,1,NaN,3.0,NaN,0.21365429999999996,2,1,3,1,19.0,50,1,o,95,51,49
2,2,1.0,3.0,0.2506145,0.2633268,2,1,3,1,19.0,50,1,o,96,49,51
2,1,NaN,3.0,NaN,0.2645183,2,1,1,1,19.0,60,1,o,97,55,45
2,2,1.0,3.0,0.388045,0.24800650000000002,2,1,3,1,19.0,60,1,o,98,49,51
2,2,1.0,3.0,0.45581759999999993,0.28098720000000005,2,1,2,1,19.0,70,1,o,99,48,52
2,1,1.0,3.0,0.43762429999999997,0.2468438,2,0,3,1,19.0,60,1,o,100,51,49
2,1,NaN,3.0,NaN,0.1319586,2,1,1,1,19.0,70,1,o,101,55,45
2,1,NaN,3.0,NaN,0.2835801,2,1,3,1,19.0,70,1,o,102,51,49
2,2,NaN,3.0,NaN,0.031656000000000004,2,0,3,1,19.0,70,1,o,103,49,51
2,2,1.0,3.0,0.40306559999999997,0.2458839,2,1,2,1,19.0,50,1,o,104,48,52
2,1,NaN,3.0,NaN,0.1340825,2,1,3,1,19.0,50,1,o,105,51,49
2,2,1.0,3.0,0.5523680000000001,0.22867910000000002,2,1,1,1,19.0,50,1,o,106,45,55
2,2,NaN,3.0,NaN,0.6682090999999999,2,0,2,1,19.0,60,1,o,107,48,52
2,2,1.0,3.0,0.390536,0.2963815,2,1,2,1,19.0,60,1,o,108,48,52
2,1,NaN,3.0,NaN,0.3008143,2,1,1,1,19.0,50,1,o,109,55,45
2,1,1.0,3.0,0.41749090000000005,0.7472741,2,0,2,1,19.0,50,1,o,110,52,48
2,2,1.0,3.0,0.590539,0.3631493,2,1,1,1,19.0,60,1,o,111,45,55
2,2,1.0,3.0,0.8371805,0.41321369999999996,2,1,1,1,19.0,50,1,o,112,45,55
2,2,NaN,3.0,NaN,0.38205479999999997,2,0,3,1,19.0,60,1,o,113,49,51
2,2,1.0,3.0,0.4456001,0.264394,2,1,2,1,19.0,50,1,o,114,48,52
2,2,1.0,3.0,0.46693779999999996,0.28074499999999997,2,1,1,1,19.0,70,1,o,115,45,55
2,1,NaN,3.0,NaN,0.13437449999999998,2,1,2,1,19.0,70,1,o,116,52,48
2,1,NaN,3.0,NaN,1.265786,2,1,1,1,19.0,60,1,o,117,55,45
2,1,1.0,NaN,0.7058309,1.2127956,2,0,3,1,19.0,70,1,h,118,51,49
2,2,1.0,3.0,0.3907277,0.33030349999999997,2,1,1,1,19.0,70,1,o,119,45,55
2,2,1.0,3.0,0.430595,0.31302559999999996,2,1,3,1,19.0,60,1,o,120,49,51
2,1,NaN,3.0,NaN,0.2020281,2,1,3,1,19.0,70,1,o,121,51,49
2,2,1.0,3.0,0.4727037,0.281558,2,1,1,1,19.0,70,1,o,122,45,55
2,2,NaN,3.0,NaN,0.36526640000000005,2,0,1,1,19.0,50,1,o,123,45,55
2,2,1.0,3.0,0.35684940000000004,0.26457579999999997,2,1,2,1,19.0,70,1,o,124,48,52
2,2,1.0,3.0,0.8549068000000001,0.296394,2,1,2,1,19.0,60,1,o,125,48,52
2,1,NaN,3.0,NaN,0.28406909999999996,2,1,1,1,19.0,60,1,o,126,55,45
2,2,1.0,3.0,0.37113029999999997,0.2634965,2,1,1,1,19.0,50,1,o,127,45,55
2,1,NaN,3.0,NaN,0.21491910000000003,2,1,1,1,19.0,50,1,o,128,55,45
2,2,1.0,3.0,0.3917443,0.2144598,2,1,1,1,19.0,60,1,o,129,45,55
2,2,1.0,3.0,0.43775010000000003,0.16378689999999999,2,1,3,1,19.0,50,1,o,130,49,51
2,1,1.0,3.0,0.6051380999999999,0.280609,2,0,3,1,19.0,50,1,o,131,51,49
2,1,NaN,3.0,NaN,0.23193119999999998,2,1,2,1,19.0,70,1,o,132,52,48
2,2,1.0,3.0,0.3148034,0.24719229999999998,2,1,2,1,19.0,50,1,o,133,48,52
2,1,NaN,3.0,NaN,0.31757709999999995,2,1,1,1,19.0,70,1,o,134,55,45
2,1,NaN,3.0,NaN,0.21681839999999997,2,1,3,1,19.0,60,1,o,135,51,49
2,1,NaN,3.0,NaN,0.5834835999999999,2,1,3,1,19.0,50,1,o,136,51,49
2,2,1.0,3.0,0.3793778,0.2958538,2,1,3,1,19.0,70,1,o,137,49,51
2,2,1.0,3.0,0.3052437,0.2982968,2,1,1,1,19.0,70,1,o,138,45,55
2,2,1.0,3.0,0.38893890000000003,0.23094070000000003,2,1,2,1,19.0,50,1,o,139,48,52
2,2,NaN,3.0,NaN,0.15043399999999998,2,0,2,1,19.0,60,1,o,140,48,52
2,2,1.0,3.0,0.18818629999999997,0.2467236,2,1,3,1,19.0,70,1,o,141,49,51
2,1,NaN,3.0,NaN,0.2477445,2,1,1,1,19.0,50,1,o,142,55,45
2,1,1.0,3.0,0.47062950000000003,0.22929770000000002,2,0,3,1,19.0,70,1,o,143,51,49
2,1,1.0,3.0,0.3696242,0.22834429999999997,2,0,2,1,19.0,60,1,o,144,52,48
2,1,NaN,3.0,NaN,0.2016638,2,1,2,1,19.0,50,1,o,145,52,48
2,1,1.0,3.0,0.5246203,0.2148557,2,0,2,1,19.0,70,1,o,146,52,48
2,1,1.0,3.0,0.4741174,0.19821070000000002,2,0,2,1,19.0,60,1,o,147,52,48
2,2,1.0,3.0,0.3716114,0.18097879999999997,2,1,3,1,19.0,60,1,o,148,49,51
2,1,NaN,3.0,NaN,0.31783629999999996,2,1,1,1,19.0,60,1,o,149,55,45
2,1,NaN,3.0,NaN,0.3509042,2,1,2,1,19.0,50,1,o,150,52,48
2,2,1.0,3.0,0.3495836,0.24664360000000002,2,1,2,1,19.0,60,1,o,151,48,52
2,1,NaN,3.0,NaN,0.3830254,2,1,2,1,19.0,70,1,o,152,52,48
2,2,1.0,3.0,0.68876,0.2813047,2,1,1,1,19.0,50,1,o,153,45,55
2,2,1.0,3.0,0.47269920000000004,0.3809,2,1,1,1,19.0,50,1,o,154,45,55
2,2,1.0,3.0,0.576495,0.2806594,2,1,3,1,19.0,70,1,o,155,49,51
2,1,1.0,3.0,0.5538814000000001,0.24600300000000003,2,0,3,1,19.0,50,1,o,156,51,49
2,2,1.0,3.0,0.3578264,0.2118493,2,1,1,1,19.0,70,1,o,157,45,55
2,2,NaN,3.0,NaN,0.26505759999999995,2,0,2,1,19.0,50,1,o,158,48,52
2,2,1.0,3.0,0.43545329999999993,0.2135259,2,1,1,1,19.0,60,1,o,159,45,55
2,2,1.0,4.0,0.45368270000000005,0.27983070000000004,2,1,2,1,19.0,50,1,p,160,48,52
2,2,1.0,4.0,0.447014,0.3147188,2,1,3,1,19.0,60,1,p,161,49,51
2,1,NaN,3.0,NaN,0.2676435,2,1,1,1,19.0,50,1,o,162,55,45
2,1,NaN,4.0,NaN,0.067858,2,1,1,1,19.0,60,1,p,163,55,45
2,1,1.0,4.0,0.7730576,0.3457774,2,0,3,1,19.0,60,1,p,164,51,49
2,2,1.0,3.0,0.438747,0.29707870000000003,2,1,2,1,19.0,60,1,o,165,48,52
2,1,NaN,4.0,NaN,0.31691959999999997,2,1,1,1,19.0,70,1,p,166,55,45
2,1,NaN,4.0,NaN,0.2991871,2,1,3,1,19.0,50,1,p,167,51,49
2,2,1.0,3.0,0.6873389,0.3635472,2,1,1,1,19.0,70,1,o,168,45,55
2,1,NaN,4.0,NaN,0.7676527,2,1,2,1,19.0,60,1,p,169,52,48
2,1,NaN,3.0,NaN,0.2514824,2,1,1,1,19.0,60,1,o,170,55,45
2,1,NaN,3.0,NaN,0.2676058,2,1,2,1,19.0,60,1,o,171,52,48
2,2,1.0,3.0,0.3168762,0.8811023000000001,2,1,3,1,19.0,60,1,o,172,49,51
2,1,NaN,3.0,NaN,0.3305951,2,1,2,1,19.0,70,1,o,173,52,48
2,1,1.0,3.0,0.8867499,0.2785318,2,0,3,1,19.0,70,1,o,175,51,49
2,2,1.0,3.0,0.4043025,0.3134866,2,1,3,1,19.0,50,1,o,176,49,51
2,1,1.0,3.0,0.35646059999999996,0.2306357,2,0,3,1,19.0,70,1,o,177,51,49
2,1,NaN,3.0,NaN,0.318655,2,1,1,1,19.0,50,1,o,178,55,45
2,2,1.0,3.0,0.390498,0.2648546,2,1,2,1,19.0,70,1,o,179,48,52
2,2,1.0,3.0,0.5215227,0.330364,2,1,2,1,19.0,60,1,o,180,48,52
2,1,1.0,3.0,0.8046933000000001,0.2802766,2,0,2,1,19.0,60,1,o,181,52,48
2,2,NaN,3.0,NaN,0.033277499999999995,2,0,3,1,19.0,60,1,o,182,49,51
2,2,1.0,3.0,0.352086,0.2451283,2,1,1,1,19.0,60,1,o,183,45,55
2,1,NaN,3.0,NaN,0.6155579000000001,2,1,1,1,19.0,60,1,o,184,55,45
2,1,NaN,4.0,NaN,0.13500879999999998,2,1,3,1,19.0,70,1,p,185,51,49
2,1,NaN,3.0,NaN,0.2847814,2,1,3,1,19.0,50,1,o,186,51,49
2,2,1.0,3.0,0.48883760000000004,0.21379139999999996,2,1,2,1,19.0,50,1,o,187,48,52
2,2,1.0,3.0,0.4645513,0.21348649999999997,2,1,1,1,19.0,70,1,o,188,45,55
2,2,1.0,3.0,0.33910799999999997,0.23041399999999998,2,1,2,1,19.0,70,1,o,189,48,52
2,1,NaN,3.0,NaN,0.3340281,2,1,3,1,19.0,70,1,o,190,51,49
2,1,1.0,3.0,0.2380498,0.26346479999999994,2,0,2,1,19.0,70,1,o,191,52,48
2,1,NaN,3.0,NaN,0.13281210000000002,2,1,3,1,19.0,50,1,o,192,51,49
2,2,1.0,3.0,0.2039193,0.21443720000000002,2,1,3,1,19.0,60,1,o,193,49,51
2,1,1.0,3.0,0.40481880000000003,0.2142929,2,0,3,1,19.0,60,1,o,194,51,49
2,1,NaN,3.0,NaN,0.034102099999999996,2,1,1,1,19.0,50,1,o,195,55,45
2,1,NaN,3.0,NaN,0.24905500000000003,2,1,1,1,19.0,70,1,o,196,55,45
2,2,1.0,3.0,0.2035683,0.2459706,2,1,3,1,19.0,70,1,o,197,49,51
2,2,NaN,3.0,NaN,0.3173617,2,0,1,1,19.0,70,1,o,198,45,55
2,2,1.0,3.0,0.32115609999999994,0.2300106,2,1,1,1,19.0,50,1,o,199,45,55
2,1,NaN,3.0,NaN,0.26666540000000005,2,1,1,1,19.0,60,1,o,200,55,45
2,2,1.0,3.0,0.3056992,0.23145529999999997,2,1,1,1,19.0,50,1,o,201,45,55
2,1,NaN,3.0,NaN,0.0179263,2,1,2,1,19.0,50,1,o,202,52,48
2,2,1.0,3.0,0.22209179999999998,0.2644511,2,1,2,1,19.0,50,1,o,203,48,52
2,1,NaN,3.0,NaN,0.098272,2,1,2,1,19.0,70,1,o,204,52,48
2,2,1.0,3.0,0.4725018,0.2466699,2,1,3,1,19.0,50,1,o,205,49,51
2,1,1.0,NaN,0.6575445,1.3624131000000002,2,0,1,1,19.0,50,1,h,206,55,45
2,1,NaN,3.0,NaN,1.0319055,2,1,2,1,19.0,60,1,o,207,52,48
2,2,1.0,3.0,0.3149134,0.2626099,2,1,3,1,19.0,70,1,o,208,49,51
2,2,1.0,3.0,0.3384225,0.21435869999999999,2,1,2,1,19.0,60,1,o,209,48,52
2,2,1.0,3.0,0.7876566999999999,0.3308791,2,1,2,1,19.0,50,1,o,210,48,52
2,2,1.0,3.0,0.2211085,0.2300192,2,1,1,1,19.0,70,1,o,211,45,55
2,2,1.0,3.0,0.6008260999999999,0.2642387,2,1,3,1,19.0,70,1,o,212,49,51
2,2,1.0,3.0,0.354141,0.2306291,2,1,1,1,19.0,50,1,o,213,45,55
2,1,1.0,3.0,0.48783909999999997,0.2301632,2,0,1,1,19.0,60,1,o,214,55,45
2,1,1.0,3.0,0.6380808000000001,0.2296607,2,0,3,1,19.0,50,1,o,215,51,49
2,1,NaN,3.0,NaN,0.3005842,2,1,2,1,19.0,70,1,o,216,52,48
2,1,NaN,3.0,NaN,0.2512553,2,1,2,1,19.0,50,1,o,217,52,48
2,1,NaN,3.0,NaN,0.8678843,2,1,1,1,19.0,60,1,o,218,55,45
2,1,NaN,3.0,NaN,0.3013495,2,1,3,1,19.0,50,1,o,219,51,49
2,1,NaN,3.0,NaN,0.2162639,2,1,2,1,19.0,60,1,o,220,52,48
2,1,NaN,3.0,NaN,0.3493973,2,1,2,1,19.0,70,1,o,221,52,48
2,2,NaN,3.0,NaN,0.6667985,2,0,3,1,19.0,70,1,o,222,49,51
2,1,NaN,3.0,NaN,0.3143438,2,1,1,1,19.0,50,1,o,223,55,45
2,2,1.0,3.0,0.4177356,0.26278179999999995,2,1,1,1,19.0,70,1,o,224,45,55
2,2,1.0,3.0,0.5697419,0.2314601,2,1,3,1,19.0,60,1,o,225,49,51
2,1,NaN,3.0,NaN,0.26871890000000004,2,1,2,1,19.0,60,1,o,226,52,48
2,2,1.0,3.0,0.8720923,0.38160079999999996,2,1,3,1,19.0,50,1,o,227,49,51
2,1,NaN,3.0,NaN,0.2482274,2,1,3,1,19.0,60,1,o,228,51,49
2,1,NaN,3.0,NaN,0.3178021,2,1,1,1,19.0,70,1,o,229,55,45
2,2,1.0,3.0,0.4713278,0.2630802,2,1,2,1,19.0,50,1,o,230,48,52
2,2,1.0,3.0,0.4223835,0.2637117,2,1,2,1,19.0,60,1,o,231,48,52
2,1,NaN,3.0,NaN,0.1482216,2,1,1,1,19.0,50,1,o,232,55,45
2,2,1.0,3.0,0.28905759999999997,0.24790079999999998,2,1,2,1,19.0,70,1,o,233,48,52
2,2,1.0,3.0,0.6546602,0.2809797,2,1,3,1,19.0,60,1,o,234,49,51
2,2,1.0,3.0,0.4206772,0.2634031,2,1,1,1,19.0,50,1,o,235,45,55
2,2,1.0,3.0,0.19145610000000002,0.21332240000000002,2,1,2,1,19.0,60,1,o,236,48,52
2,1,NaN,3.0,NaN,0.14885910000000002,2,1,3,1,19.0,70,1,o,237,51,49
2,2,1.0,3.0,0.35589899999999997,0.2294328,2,1,1,1,19.0,60,1,o,238,45,55
2,1,NaN,3.0,NaN,0.0508971,2,1,3,1,19.0,70,1,o,239,51,49
2,2,1.0,3.0,0.848316,0.36349349999999997,2,1,3,1,19.0,60,1,o,240,49,51
2,1,1.0,3.0,0.45196260000000005,0.2645862,2,0,3,1,19.0,70,1,o,241,51,49
2,2,1.0,3.0,0.1793215,0.2603449,2,1,3,1,19.0,60,1,o,242,49,51
2,2,1.0,3.0,0.23874520000000002,0.23055720000000002,2,1,2,1,19.0,50,1,o,243,48,52
2,1,NaN,3.0,NaN,0.1506438,2,1,3,1,19.0,60,1,o,244,51,49
2,2,1.0,3.0,0.1205836,0.21239770000000002,2,1,2,1,19.0,70,1,o,245,48,52
2,1,NaN,3.0,NaN,0.06592680000000001,2,1,3,1,19.0,50,1,o,246,51,49
2,2,1.0,3.0,0.2555042,0.1964933,2,1,1,1,19.0,60,1,o,247,45,55
2,2,1.0,3.0,0.47095929999999997,0.24617199999999997,2,1,2,1,19.0,60,1,o,248,48,52
2,1,NaN,4.0,NaN,0.26729040000000004,2,1,1,1,19.0,50,1,p,249,55,45
2,1,1.0,3.0,0.6794498000000001,0.3642614,2,0,2,1,19.0,70,1,o,250,52,48
2,2,1.0,3.0,0.5381125,0.1978956,2,1,3,1,19.0,50,1,o,251,49,51
2,1,1.0,3.0,0.49713359999999995,0.16356410000000002,2,0,2,1,19.0,60,1,o,252,52,48
2,1,NaN,3.0,NaN,0.3177083,2,1,3,1,19.0,50,1,o,253,51,49
2,1,1.0,3.0,0.49185500000000004,0.23022800000000002,2,0,1,1,19.0,60,1,o,254,55,45
2,2,1.0,3.0,0.5417278,0.43015190000000003,2,1,3,1,19.0,70,1,o,255,49,51
2,1,NaN,3.0,NaN,0.1505246,2,1,1,1,19.0,70,1,o,256,55,45
2,1,NaN,3.0,NaN,0.2849784,2,1,2,1,19.0,60,1,o,257,52,48
2,1,NaN,3.0,NaN,0.1183414,2,1,3,1,19.0,70,1,o,258,51,49
2,2,NaN,3.0,NaN,0.2841323,2,0,2,1,19.0,60,1,o,259,48,52
2,1,NaN,3.0,NaN,0.1007194,2,1,1,1,19.0,50,1,o,260,55,45
2,1,NaN,3.0,NaN,0.333868,2,1,2,1,19.0,70,1,o,261,52,48
2,2,1.0,3.0,0.6360891,0.2114407,2,1,1,1,19.0,50,1,o,262,45,55
2,2,1.0,3.0,0.2543793,0.212731,2,1,1,1,19.0,70,1,o,263,45,55
2,2,1.0,3.0,0.2198705,0.24557489999999998,2,1,3,1,19.0,70,1,o,264,49,51
2,2,1.0,3.0,0.5202971,0.2803324,2,1,2,1,19.0,50,1,o,265,48,52
2,2,1.0,3.0,0.4194795,0.1812473,2,1,1,1,19.0,50,1,o,266,45,55
2,2,1.0,3.0,0.42128699999999997,0.1980652,2,1,1,1,19.0,70,1,o,267,45,55
2,1,1.0,3.0,0.7382694000000001,0.2476605,2,0,2,1,19.0,50,1,o,268,52,48
2,1,1.0,3.0,0.4179388,0.17875,2,0,1,1,19.0,60,1,o,269,55,45
2,2,1.0,3.0,0.5318761,0.2955018,2,1,2,1,19.0,60,1,o,270,48,52
2,2,1.0,3.0,0.3054628,0.2472549,2,1,2,1,19.0,50,1,o,271,48,52
2,2,1.0,3.0,0.2544927,0.21236620000000003,2,1,1,1,19.0,50,1,o,272,45,55
2,2,1.0,3.0,0.5413528000000001,0.2646191,2,1,2,1,19.0,50,1,o,273,48,52
2,1,1.0,3.0,0.4483189,0.23125259999999997,2,0,2,1,19.0,60,1,o,274,52,48
2,1,NaN,4.0,NaN,0.08146410000000001,2,1,1,1,19.0,60,1,p,275,55,45
2,1,NaN,4.0,NaN,0.2825032,2,1,1,1,19.0,70,1,p,276,55,45
2,2,NaN,3.0,NaN,0.16518129999999998,2,0,3,1,19.0,50,1,o,277,49,51
2,1,NaN,3.0,NaN,0.33157509999999996,2,1,2,1,19.0,60,1,o,278,52,48
2,2,1.0,3.0,0.3899625,0.2254895,2,1,3,1,19.0,70,1,o,279,49,51
2,2,NaN,3.0,NaN,0.4830647,2,0,3,1,19.0,60,1,o,280,49,51
2,1,NaN,3.0,NaN,0.2682437,2,1,1,1,19.0,50,1,o,281,55,45
2,1,NaN,3.0,NaN,0.1350568,2,1,3,1,19.0,70,1,o,282,51,49
2,2,1.0,3.0,0.3565244,0.2648208,2,1,1,1,19.0,70,1,o,283,45,55
2,1,1.0,3.0,0.7293441999999999,0.2453725,2,0,2,1,19.0,70,1,o,284,52,48
2,1,NaN,3.0,NaN,0.300898,2,1,3,1,19.0,50,1,o,285,51,49
2,2,1.0,3.0,0.5734094,0.24604279999999998,2,1,3,1,19.0,60,1,o,286,49,51
2,2,1.0,3.0,0.3682207,0.1795771,2,1,2,1,19.0,70,1,o,287,48,52
2,1,NaN,3.0,NaN,0.0817326,2,1,1,1,19.0,50,1,o,288,55,45
2,2,1.0,3.0,0.33897859999999996,0.2474922,2,1,1,1,19.0,70,1,o,289,45,55
2,2,1.0,3.0,0.40392659999999997,0.1973662,2,1,1,1,19.0,50,1,o,290,45,55
2,1,NaN,3.0,NaN,0.2174549,2,1,3,1,19.0,60,1,o,291,51,49
2,2,1.0,3.0,0.2033833,0.1627565,2,1,2,1,19.0,60,1,o,292,48,52
2,2,1.0,3.0,0.3415478,0.31351690000000004,2,1,1,1,19.0,60,1,o,293,45,55
2,1,NaN,3.0,NaN,0.2671599,2,1,1,1,19.0,60,1,o,294,55,45
2,1,1.0,3.0,0.4936041,0.1788101,2,0,3,1,19.0,70,1,o,295,51,49
2,1,NaN,3.0,NaN,0.24830589999999997,2,1,3,1,19.0,50,1,o,296,51,49
2,2,1.0,3.0,0.555808,0.19775420000000002,2,1,3,1,19.0,70,1,o,297,49,51
2,1,NaN,3.0,NaN,0.1516225,2,1,2,1,19.0,70,1,o,298,52,48
2,1,NaN,3.0,NaN,0.3505643,2,1,2,1,19.0,50,1,o,299,52,48
2,2,1.0,3.0,0.2584888,0.5613963000000001,2,1,1,1,19.0,70,1,o,301,45,55
2,1,1.0,3.0,0.33743340000000005,0.24625529999999998,2,0,3,1,19.0,70,1,o,302,51,49
2,2,1.0,3.0,0.300942,0.279471,2,1,1,1,19.0,60,1,o,303,45,55
2,2,1.0,3.0,0.31933090000000003,0.2455084,2,1,1,1,19.0,50,1,o,304,45,55
2,1,NaN,3.0,NaN,0.6660957,2,1,2,1,19.0,70,1,o,305,52,48
2,1,1.0,3.0,0.22478299999999998,0.2478388,2,0,2,1,19.0,60,1,o,306,52,48
2,2,1.0,3.0,0.22987960000000002,0.24696550000000003,2,1,2,1,19.0,50,1,o,307,48,52
2,2,1.0,3.0,0.3208017,0.2292915,2,1,3,1,19.0,70,1,o,308,49,51
2,2,1.0,3.0,0.1349,0.1804293,2,1,3,1,19.0,60,1,o,309,49,51
2,2,1.0,3.0,0.3209517,0.21342080000000002,2,1,2,1,19.0,60,1,o,310,48,52
2,2,NaN,3.0,NaN,0.24985729999999998,2,0,1,1,19.0,50,1,o,311,45,55
2,1,NaN,4.0,NaN,0.41488149999999996,2,1,1,1,19.0,50,1,p,312,55,45
2,1,NaN,3.0,NaN,0.28469140000000004,2,1,2,1,19.0,60,1,o,313,52,48
2,1,NaN,3.0,NaN,0.0512179,2,1,1,1,19.0,60,1,o,314,55,45
2,1,1.0,3.0,0.3384685,0.1973728,2,0,3,1,19.0,70,1,o,315,51,49
2,2,1.0,3.0,0.5701663,0.1461532,2,1,3,1,19.0,50,1,o,316,49,51
2,2,1.0,3.0,0.3224462,0.22971239999999998,2,1,3,1,19.0,70,1,o,317,49,51
2,1,NaN,3.0,NaN,0.0297751,2,1,3,1,19.0,50,1,o,318,51,49
2,1,1.0,3.0,0.3016209,0.2128717,2,0,3,1,19.0,60,1,o,319,51,49
2,2,1.0,3.0,0.35160790000000003,0.162427,2,1,2,1,19.0,50,1,o,320,48,52
2,1,NaN,3.0,NaN,0.2349551,2,1,2,1,19.0,50,1,o,321,52,48
2,1,NaN,3.0,NaN,0.06860039999999999,2,1,1,1,19.0,50,1,o,322,55,45
2,2,1.0,3.0,0.41400190000000003,0.18131860000000002,2,1,2,1,19.0,70,1,o,323,48,52
2,2,1.0,3.0,0.3053643,0.1634527,2,1,1,1,19.0,70,1,o,324,45,55
2,1,NaN,3.0,NaN,0.1165417,2,1,1,1,19.0,70,1,o,325,55,45
2,1,NaN,3.0,NaN,0.16654129999999998,2,1,3,1,19.0,50,1,o,326,51,49
2,2,1.0,3.0,0.2681053,0.2464544,2,1,2,1,19.0,60,1,o,327,48,52
2,1,NaN,4.0,NaN,0.3156624,2,1,1,1,19.0,60,1,p,328,55,45
2,2,1.0,3.0,0.3370312,0.1803567,2,1,3,1,19.0,60,1,o,329,49,51
2,1,NaN,3.0,NaN,0.8178225,2,1,1,1,19.0,50,1,o,330,55,45
2,1,1.0,NaN,0.5764397,1.4300342,2,0,1,1,19.0,70,1,h,331,55,45
2,1,1.0,3.0,0.6705814999999999,0.2963159,2,0,3,1,19.0,60,1,o,332,51,49
2,1,1.0,3.0,0.26774970000000003,0.24482929999999997,2,0,2,1,19.0,50,1,o,333,52,48
2,1,NaN,3.0,NaN,0.1174243,2,1,3,1,19.0,70,1,o,334,51,49
2,1,NaN,3.0,NaN,0.1316819,2,1,2,1,19.0,60,1,o,335,52,48
2,1,NaN,3.0,NaN,0.016728,2,1,2,1,19.0,70,1,o,336,52,48
2,2,1.0,3.0,0.3723515,0.26438540000000005,2,1,3,1,19.0,70,1,o,337,49,51
2,1,NaN,3.0,NaN,0.0847523,2,1,3,1,19.0,50,1,o,338,51,49
2,2,1.0,3.0,0.6406056,0.2803069,2,1,2,1,19.0,50,1,o,339,48,52
2,1,NaN,3.0,NaN,0.1970634,2,1,1,1,19.0,60,1,o,340,55,45
2,2,1.0,3.0,0.5394889,0.2128814,2,1,3,1,19.0,60,1,o,341,49,51
2,1,NaN,3.0,NaN,1.1981648999999999,2,1,2,1,19.0,70,1,o,342,52,48
2,1,NaN,4.0,NaN,0.39903740000000004,2,1,3,1,19.0,50,1,p,343,51,49
2,2,1.0,3.0,0.43184040000000007,0.22910940000000002,2,1,2,1,19.0,50,1,o,344,48,52
2,2,NaN,3.0,NaN,0.1508475,2,0,2,1,19.0,70,1,o,345,48,52
2,2,1.0,3.0,0.4556451,0.1966216,2,1,2,1,19.0,60,1,o,346,48,52
2,1,1.0,NaN,0.35229279999999996,1.4979835,2,0,1,1,19.0,60,1,h,347,55,45
2,2,1.0,3.0,0.738604,0.2969325,2,1,1,1,19.0,60,1,o,348,45,55
2,2,1.0,3.0,0.5896869,0.2472801,2,1,3,1,19.0,50,1,o,349,49,51
2,2,NaN,3.0,NaN,0.3166363,2,0,3,1,19.0,60,1,o,350,49,51
2,2,1.0,3.0,0.20906239999999998,0.24654099999999998,2,1,3,1,19.0,70,1,o,351,49,51
2,1,NaN,3.0,NaN,0.1835653,2,1,1,1,19.0,50,1,o,352,55,45
2,2,1.0,3.0,0.5416354999999999,0.24798579999999998,2,1,2,1,19.0,60,1,o,353,48,52
2,2,1.0,3.0,0.3209829,0.17868710000000002,2,1,1,1,19.0,50,1,o,354,45,55
2,1,NaN,3.0,NaN,0.0846727,2,1,2,1,19.0,60,1,o,355,52,48
2,2,1.0,3.0,0.1710668,0.21252849999999998,2,1,1,1,19.0,70,1,o,356,45,55
2,1,NaN,3.0,NaN,0.1497674,2,1,3,1,19.0,70,1,o,357,51,49
2,2,1.0,3.0,0.28718190000000005,0.2127616,2,1,1,1,19.0,50,1,o,358,45,55
2,2,1.0,3.0,0.44913679999999995,0.44568199999999997,2,1,1,1,19.0,70,1,o,359,45,55
2,1,1.0,3.0,0.4357785,0.23007170000000002,2,0,2,1,19.0,70,1,o,360,52,48
2,1,1.0,3.0,0.22186079999999997,0.2813372,2,0,2,1,19.0,50,1,o,361,52,48
2,2,1.0,3.0,0.23933829999999998,0.2458844,2,1,1,1,19.0,50,1,o,362,45,55
2,1,1.0,3.0,0.20559850000000002,0.8311593,2,0,1,1,19.0,60,1,o,363,55,45
2,2,1.0,3.0,0.5673686,0.19596629999999998,2,1,3,1,19.0,70,1,o,364,49,51
2,2,1.0,3.0,0.39797140000000003,0.2631739,2,1,2,1,19.0,50,1,o,365,48,52
2,1,NaN,3.0,NaN,0.3499511,2,1,2,1,19.0,60,1,o,366,52,48
2,1,NaN,3.0,NaN,0.1831479,2,1,2,1,19.0,70,1,o,367,52,48
2,2,1.0,3.0,0.2023822,0.19567220000000002,2,1,1,1,19.0,70,1,o,368,45,55
2,2,1.0,3.0,0.2855804,0.1790639,2,1,3,1,19.0,60,1,o,369,49,51
2,1,1.0,3.0,0.4223615,0.3810265,2,0,3,1,19.0,70,1,o,370,51,49
2,2,1.0,3.0,0.5564760999999999,0.21350149999999998,2,1,2,1,19.0,50,1,o,371,48,52
2,1,NaN,3.0,NaN,0.3167645,2,1,1,1,19.0,70,1,o,372,55,45
2,1,1.0,3.0,0.37001540000000005,0.16276020000000002,2,0,2,1,19.0,60,1,o,373,52,48
2,2,1.0,3.0,0.4190096,0.19642179999999998,2,1,1,1,19.0,60,1,o,374,45,55
2,1,NaN,3.0,NaN,0.6835176,2,1,1,1,19.0,50,1,o,375,55,45
2,2,1.0,3.0,0.41221840000000004,0.2128435,2,1,1,1,19.0,50,1,o,376,45,55
2,1,NaN,3.0,NaN,0.21837289999999998,2,1,3,1,19.0,60,1,o,377,51,49
2,2,1.0,3.0,0.3720762,0.1800236,2,1,2,1,19.0,60,1,o,378,48,52
2,1,NaN,3.0,NaN,0.134508,2,1,1,1,19.0,50,1,o,379,55,45
2,1,1.0,3.0,0.6146718000000001,0.1799994,2,0,3,1,19.0,70,1,o,380,51,49
2,1,NaN,3.0,NaN,0.049106,2,1,3,1,19.0,50,1,o,381,51,49
2,1,NaN,3.0,NaN,0.1502501,2,1,1,1,19.0,60,1,o,382,55,45
2,2,1.0,3.0,0.3039555,0.179446,2,1,3,1,19.0,50,1,o,383,49,51
2,2,1.0,3.0,0.4546686,0.1459157,2,1,1,1,19.0,70,1,o,384,45,55
2,2,1.0,3.0,0.4881710999999999,0.2135427,2,1,3,1,19.0,70,1,o,385,49,51
2,1,1.0,3.0,0.3198255,0.163247,2,0,3,1,19.0,50,1,o,386,51,49
2,2,1.0,3.0,0.4233914000000001,0.1801616,2,1,2,1,19.0,70,1,o,387,48,52
2,2,1.0,3.0,0.3850915,0.1949515,2,1,2,1,19.0,60,1,o,388,48,52
2,2,1.0,3.0,0.20361120000000002,0.180077,2,1,3,1,19.0,60,1,o,389,49,51
3,2,NaN,3.0,NaN,0.7632441,1,1,3,1,NaN,60,0,o,0,49,51
3,1,NaN,3.0,NaN,0.7132928000000001,1,0,2,1,NaN,50,0,o,1,52,48
3,2,1.0,2.0,0.7555681,1.3276253999999998,1,0,2,1,NaN,70,0,i,2,48,52
3,2,NaN,3.0,NaN,1.3642905,1,1,1,1,NaN,50,0,o,3,45,55
3,2,NaN,2.0,NaN,1.4811683999999998,1,1,1,1,NaN,70,0,i,4,45,55
3,2,NaN,3.0,NaN,1.2144055,1,1,3,1,NaN,70,0,o,5,49,51
