Subj_idx,Block,Trial,RT_stop,Stimulus,Response,Error,Confidence,RT_confidence,ErrorDirectionJudgment,RT_directionJudgment
1,1,1,4.48580498866213,11,12,1,3,11.69646133,-1,9.02850952800009
1,1,2,4.62657596371882,11,12,1,3,2.10594119100006,-1,3.46297769500006
1,1,3,4.37551020408163,11,12,1,2,1.07390087199997,1,1.392314618
1,1,4,4.02285714285714,11,11,0,3,1.54289983699982,1,1.65064172300004
1,1,5,4.89360544217687,11,12,1,2,1.33259528500002,1,4.05823354599988
1,1,6,4.61496598639456,11,11,0,2,2.72838564899985,1,3.65341330899992
1,1,7,4.7092970521542,11,12,1,2,1.85310050599992,1,0.795615269999871
1,1,8,3.88063492063492,11,11,0,3,1.16185219499994,1,1.02995999199993
1,1,9,4.18975056689342,11,11,0,2,0.800903425999877,1,0.499686918999942
1,1,10,4.19265306122449,11,11,0,2,1.60435929699997,-1,1.726927961
1,1,11,4.25360544217687,11,12,1,3,7.18475337700011,-1,0.620470080000132
1,1,12,4.51482993197279,11,11,0,1,1.8951376,-1,2.02924985000004
1,1,13,4.55111111111111,11,12,1,1,1.20345600099995,1,1.08657786999993
1,1,14,4.70204081632653,11,11,0,2,1.22946629000012,1,0.799359987000116
1,1,15,3.96770975056689,11,11,0,2,0.840064555000026,1,0.930178954999974
1,1,16,5.14176870748299,11,12,1,2,3.29085588699991,1,0.696942669000009
1,1,17,4.35519274376417,11,11,0,1,1.64480619899996,1,0.30981971999995
1,1,18,3.71519274376417,11,10,-1,2,2.92677324300007,-1,0.609395734000145
1,1,19,3.81823129251701,11,11,0,3,2.51280571200004,-1,1.94916930600016
1,1,20,6.15909297052154,11,16,5,1,1.40150218200006,1,1.05878297999993
1,1,21,4.45678004535147,11,11,0,3,1.43429891799997,1,0.395801500000061
1,1,22,4.1665306122449,11,11,0,2,0.881892600000128,1,0.465977831000146
1,1,23,4.35519274376417,11,11,0,2,2.72582708200002,1,0.442897521999839
1,1,24,4.05043083900227,11,12,1,3,1.98967048899999,-1,0.926761361999979
1,1,25,4.33342403628118,11,11,0,1,2.24870218699994,-1,0.0159076370000548
1,1,26,4.52498866213152,11,12,1,2,1.09566407800003,1,1.43961596400004
1,1,27,3.92997732426304,11,10,-1,2,1.65524700999981,1,0.239722909999955
1,1,28,3.3015873015873,11,9,-2,1,1.4090126000001,-1,0.11501906500007
1,1,29,4.35954648526077,11,11,0,1,3.04363291599998,1,0.410893614000088
1,1,30,4.76154195011338,11,12,1,3,1.31055390100005,1,1.11536556399983
1,1,31,4.2507029478458,11,11,0,1,1.45064094899999,-1,0.0343133439998837
1,1,32,4.36825396825397,11,11,0,1,1.26333847599994,1,0.382683009999937
1,1,33,4.63673469387755,11,11,0,2,1.62318115000016,1,0.249047836000045
1,1,34,4.30004535147392,11,11,0,2,2.35012440000014,1,0.234214312999939
1,1,35,4.51918367346939,11,12,1,1,1.31460561799986,1,0.263255891000199
1,1,36,4.73541950113379,11,12,1,2,1.90188531499984,1,0.723396393999792
1,1,37,4.10122448979592,11,10,-1,1,1.8024349960001,-1,0.0161566579999999
1,1,38,4.41469387755102,11,11,0,2,2.66445694000004,-1,1.73415307699997
1,1,39,4.28263038548753,11,11,0,3,0.869517144999918,1,0.981033258000025
1,1,40,2.72253968253968,11,7,-4,1,1.81581391500004,-1,0.0325529869999173
1,1,41,4.65850340136054,11,12,1,3,1.52592068800004,1,0.281850929000029
1,1,42,4.40453514739229,11,11,0,3,0.939670768000042,1,0.984122035000155
1,1,43,4.20426303854875,11,11,0,2,1.95513839299997,1,0.550054927000019
1,1,44,4.31020408163265,11,12,1,3,0.839645630999939,-1,0.839226525999948
1,1,45,4.98358276643991,11,12,1,2,1.26001072999998,1,0.0159526050001659
1,1,46,4.80798185941043,11,12,1,3,1.686131617,1,2.79877664200012
1,1,47,4.18249433106576,11,10,-1,3,1.103986072,-1,1.67835055700016
1,1,48,4.65705215419501,11,12,1,2,2.70604378799999,1,2.9364048949999
1,1,49,4.04027210884354,11,10,-1,1,1.27214000599997,-1,0.0850250749999759
1,1,50,3.9546485260771,11,11,0,2,0.967692486000033,1,2.48376694500007
1,1,51,4.57868480725624,11,11,0,3,1.90624291299991,-1,0.671452627999997
1,1,52,4.74412698412698,11,11,0,3,1.37036216499996,-1,0.661360515000069
1,1,53,4.79201814058957,11,11,0,3,0.711046803000045,1,1.08505102100003
1,1,54,1.40045351473923,11,4,-7,1,1.51911802600011,-1,0.364241966999998
1,1,55,4.00834467120181,11,11,0,2,1.14138488699996,-1,0.81839730899992
1,1,56,5.1156462585034,11,12,1,1,3.98211132699998,1,0.0233457419999468
1,1,57,4.26666666666667,11,11,0,2,1.20100352500003,-1,0.0431352349999088
1,1,58,4.46548752834467,11,12,1,2,0.999900539000009,1,0.123565236999866
1,1,59,3.75873015873016,11,10,-1,3,0.907980429999952,-1,0.674457416999985
1,1,60,5.8659410430839,11,14,3,1,0.926839197000163,1,0.0517540650000683
1,1,61,4.65124716553288,11,11,0,3,0.979894870999942,-1,0.472112887000094
1,1,62,4.97052154195011,11,11,0,3,0.586229711999977,1,0.325212641000007
1,1,63,3.59473922902494,11,10,-1,2,1.16322096999988,-1,0.48089424900013
1,1,64,4.35954648526077,11,11,0,2,1.16128196499994,-1,0.588694358000112
1,1,65,4.24489795918367,11,11,0,3,1.74523697099994,1,0.0169709589999911
1,1,66,3.99963718820862,11,10,-1,3,2.08724354799983,-1,0.0162172850000388
1,1,67,4.46258503401361,11,11,0,2,1.31707602300003,1,0.016933076999976
1,1,68,3.58893424036281,11,10,-1,1,1.89700166400007,1,0.0165671150000435
1,1,69,4.62367346938776,11,11,0,2,1.39906939799994,1,0.0336300049998499
1,1,70,3.6237641723356,11,10,-1,2,1.93100083099989,-1,0.0159081419999438
1,1,71,3.6324716553288,11,9,-2,1,1.82931231299995,-1,0.0160846000001129
1,1,72,3.95755102040816,11,10,-1,1,1.94681457700017,1,0.110876576999999
1,1,73,4.75573696145125,11,12,1,1,1.11969321300012,1,0.0160547099999349
1,1,74,4.35374149659864,11,11,0,3,1.57023583199998,1,0.437988324999878
1,1,75,3.92562358276644,11,12,1,3,1.61564235700007,1,1.71405297000001
1,1,76,4.2507029478458,11,11,0,3,1.65022453199981,1,0.856524526000157
1,1,77,4.86603174603175,11,13,2,2,0.951658055000053,1,0.0162152770001285
1,1,78,4.44226757369614,11,11,0,3,1.25784125299992,-1,1.54711581300012
1,1,79,3.79791383219955,11,11,0,3,1.41811250799992,1,0.523279040000034
1,1,80,4.16507936507937,11,11,0,3,3.92867886700014,1,1.48266171399996
1,1,81,4.55981859410431,11,11,0,3,0.734841276999987,-1,0.556577513000093
1,1,82,4.46258503401361,11,11,0,3,2.01140058199985,-1,2.68287388099998
1,2,1,7.87011337868481,19,20,1,2,1.739713768,1,0.0158886900001107
1,2,2,7.94702947845805,19,19,0,3,3.456833706,-1,0.69246882099992
1,2,3,7.80916099773243,19,19,0,3,1.47646339400012,1,0.497205243000053
1,2,4,7.92961451247166,19,20,1,2,1.74805770300009,1,0.0164939969999978
1,2,5,7.78013605442177,19,18,-1,3,2.06710639500011,1,1.78573620299994
1,2,6,7.57260770975057,19,19,0,3,3.28985288400008,1,0.016574903999981
1,2,7,5.77160997732426,19,16,-3,2,2.98955484500016,-1,1.22944088999998
1,2,8,7.50439909297052,19,19,0,2,2.01967380799988,1,0.0161092749999625
1,2,9,7.91074829931973,19,19,0,3,0.572875907000025,-1,1.20927033499993
1,2,10,6.72072562358277,19,18,-1,2,1.90042498800017,-1,0.392435809000062
1,2,11,7.55664399092971,19,19,0,2,3.02652338600001,1,0.0159625390001565
1,2,12,7.62920634920635,19,19,0,3,3.41920877500002,1,0.0160038920000716
1,2,13,6.99646258503401,19,19,0,3,0.986078518000113,-1,1.77426187000015
1,2,14,7.58421768707483,19,18,-1,1,2.28517134100002,1,2.49894244500001
1,2,15,7.69160997732426,19,19,0,3,2.06590219400005,-1,0.81416940500003
1,2,16,7.73514739229025,19,19,0,1,1.74903859999995,1,0.0161985320000895
1,2,17,6.72943310657596,19,18,-1,1,0.899848475999988,1,0.0159550860000763
1,2,18,7.05451247165533,19,18,-1,2,1.13223034200018,1,1.13665986099977
1,2,19,7.98185941043084,19,19,0,2,1.42578535599978,1,0.0169174420002491
1,2,20,7.74095238095238,19,19,0,3,1.28890605700008,-1,2.16876273100024
1,2,21,6.58140589569161,19,16,-3,2,2.69404371100018,-1,0.0511243800001466
1,2,22,7.89913832199546,19,19,0,3,3.35003665499971,1,1.52050161099987
1,2,23,7.21995464852608,19,19,0,1,2.39090047500031,-1,0.016181914000299
1,2,24,7.39410430839002,19,18,-1,2,1.18709528799991,1,0.0162581750000754
1,2,25,5.90367346938775,19,16,-3,1,0.699959275999845,1,2.65071197299994
1,2,26,7.66258503401361,19,19,0,3,2.62076547700008,1,0.0159611049998603
1,2,27,6.64090702947846,19,17,-2,3,1.85469253700012,-1,0.165692486999887
1,2,28,7.3578231292517,19,19,0,1,1.77186567700028,1,1.22239672800015
1,2,29,0.00580498866213152,19,1,-18,1,4.92488281199985,-1,1.23395666199985
1,2,30,7.80916099773243,19,20,1,2,2.44191574500019,1,0.0169521259999783
1,2,31,7.26784580498866,19,19,0,2,6.82980216599981,1,0.183920666000176
1,2,32,8.54929705215419,19,20,1,1,2.47333478600012,1,0.350776923000012
1,2,33,7.10530612244898,19,18,-1,2,2.72849062899968,-1,0.0768351299998358
1,2,34,6.61478458049887,19,18,-1,2,1.37217768699975,1,0.0161586059998626
1,2,35,7.0269387755102,19,18,-1,1,0.571862452000005,-1,1.4225760090003
1,2,36,8.2184126984127,19,21,2,1,1.35996548100002,1,0.0159217519999402
1,2,37,5.60181405895692,19,14,-5,2,2.37062883899989,-1,0.0159757129999889
1,2,38,7.51020408163265,19,19,0,3,1.97367439400023,-1,0.326689838999755
1,2,39,6.22875283446712,19,15,-4,1,1.86240476900002,-1,0.0167555980001453
1,2,40,7.06612244897959,19,17,-2,2,1.29014353899993,-1,2.25841817499986
1,2,41,7.50585034013605,19,20,1,1,2.00931751899998,1,0.112882984999942
1,2,42,6.95437641723356,19,19,0,3,1.32946282000012,-1,0.0615676089996668
1,2,43,8.24163265306122,19,19,0,2,2.44235777500035,1,0.0162270150003678
1,2,44,8.0950566893424,19,19,0,1,1.0872949489999,1,0.0622272000000521
1,2,45,7.15609977324263,19,19,0,2,1.43116246,-1,0.527542686999823
1,2,46,8.13424036281179,19,19,0,3,1.17102927399992,1,0.885916939999788
1,2,47,7.12417233560091,19,18,-1,3,2.66670341999998,-1,0.0163724290000573
1,2,48,7.80625850340136,19,19,0,3,1.06867509499989,-1,0.0158905880002749
1,2,49,7.80190476190476,19,19,0,3,5.00771985600022,-1,1.59892017399989
1,2,50,7.43619047619048,19,19,0,3,2.77077463900014,1,0.46909599799983
1,2,51,7.59727891156463,19,19,0,3,1.67973508400019,-1,0.0164508200000455
1,2,52,7.44634920634921,19,19,0,2,1.6262287200002,-1,0.015879882000263
1,2,53,6.46530612244898,19,17,-2,1,2.31839429500042,-1,0.0164612319999833
1,2,54,7.75691609977324,19,19,0,1,1.43698090499993,1,0.015922619000321
1,2,55,7.0530612244898,19,19,0,2,1.64110664200007,1,0.0159210860001622
1,2,56,7.47827664399093,19,17,-2,2,2.44669451499976,1,0.0162564689999272
1,2,57,6.4,19,17,-2,1,2.28268725499993,1,0.735708216000148
1,2,58,7.83963718820862,19,18,-1,2,1.70889062699962,-1,0.0251968389998183
1,2,59,6.86004535147392,19,18,-1,2,1.77236545000005,1,0.0166999489997579
1,2,60,4.8152380952381,19,13,-6,1,1.30984034599987,-1,0.0440086990001873
1,2,61,7.08353741496599,19,19,0,1,3.95510126499994,-1,0.876064503999714
1,2,62,3.53814058956916,19,10,-9,1,1.76636414200038,-1,0.161922077000327
1,2,63,7.39990929705215,19,19,0,3,0.317018871000073,-1,0.892314997000085
1,2,64,6.620589569161,19,17,-2,1,1.63251158100002,-1,0.0168515370000932
1,3,1,3.73551020408163,11,11,0,2,5.12717698000006,1,0.0159909549997792
1,3,2,4.20281179138322,11,11,0,2,2.28584540100019,1,0.0166740529998606
1,3,3,4.16798185941043,11,10,-1,2,4.62954244299999,1,1.95519116200012
1,3,4,4.43501133786848,11,11,0,1,4.38690704200008,1,0.6399670159999
1,3,5,4.90956916099773,11,12,1,2,4.00301870900012,1,1.18574353000031
1,3,6,4.35954648526077,11,12,1,3,1.15749363900022,1,0.618620563999684
1,3,7,4.21006802721088,11,12,1,3,5.95451480400015,1,0.0159975690003193
1,3,8,4.34213151927438,11,11,0,2,3.40295205499979,-1,0.0163173800001459
1,3,9,4.060589569161,11,10,-1,3,1.51313701200024,-1,0.0165615420000904
1,3,10,4.0431746031746,11,11,0,1,5.12765036400015,-1,0.015929394000068
1,3,11,4.01850340136054,11,11,0,3,0.681718956000168,1,0.441079458999866
1,3,12,4.21442176870748,11,10,-1,1,1.57960432800019,-1,0.0159392770001432
1,3,13,3.85741496598639,11,10,-1,2,1.11321431299984,1,0.725926499999787
1,3,14,4.14766439909297,11,10,-1,3,0.395522690000234,-1,0.472400427000139
1,3,15,3.91981859410431,11,10,-1,2,1.10812365600032,1,0.449199606000093
1,3,16,4.62222222222222,11,11,0,3,1.82296259000032,-1,0.0163645869997708
1,3,17,4.60335600907029,11,12,1,1,2.13166173399986,1,0.201988641999833
1,3,18,4.0431746031746,11,11,0,2,1.85522915499996,1,0.0159280499997294
1,3,19,3.9459410430839,11,11,0,2,2.28326130100004,-1,0.344765530000132
1,3,20,4.60480725623583,11,13,2,1,0.94035098600034,1,0.0319871679998869
1,3,21,5.47990929705215,11,14,3,3,0.751897248000205,1,0.765018087999579
1,3,22,4.88199546485261,11,12,1,2,1.53266456900019,1,0.0161834460000136
1,3,23,3.54975056689342,11,11,0,3,1.6521396410003,1,0.164973546000056
1,3,24,4.75283446712018,11,12,1,2,0.868498386999818,1,0.0164664620001531
1,3,25,3.38721088435374,11,10,-1,2,2.14357780699993,-1,0.0179390249995777
1,3,26,4.15492063492063,11,11,0,3,0.795044857999983,-1,0.447658604000026
1,3,27,3.65859410430839,11,9,-2,1,1.3394968560001,-1,0.0169358519997331
1,3,28,4.04027210884354,11,11,0,2,1.2698784690001,-1,0.220385589999751
1,3,29,4.52934240362812,11,12,1,1,1.08700522500021,1,0.0159677719998399
1,3,30,4.64544217687075,11,11,0,3,1.31061427300028,1,1.01902821900012
1,3,31,4.76879818594104,11,11,0,2,1.22024444099998,1,0.0164361560000543
1,3,32,4.54820861678005,11,11,0,1,1.0950311040001,1,0.0159422749998157
1,3,33,4.10848072562358,11,10,-1,3,1.86007374199971,-1,0.016583780000019
1,3,34,3.80226757369615,11,11,0,3,0.950387509999928,-1,0.505351731999781
1,3,35,4.77170068027211,11,11,0,3,1.61262206999982,-1,0.630341842000234
1,3,36,4.77460317460317,11,12,1,3,1.08003359599979,-1,2.72738983999989
1,3,37,4.01850340136054,11,11,0,1,1.11245543299992,1,0.0168365700001232
1,3,38,4.45968253968254,11,12,1,1,1.35882385400009,1,0.0162118700000065
1,3,39,4.1447619047619,11,12,1,1,1.02442860599967,1,0.016906397999719
1,3,40,4.40743764172336,11,11,0,3,0.662465649000296,-1,0.566238989999874
1,3,41,4.01124716553288,11,10,-1,2,1.86523236099993,1,0.0873195019999002
1,3,42,4.5902947845805,11,12,1,2,1.96762014599972,1,0.0169519429996399
1,3,43,4.85877551020408,11,12,1,1,2.69914707299995,1,0.0165043330002845
1,3,44,4.85442176870748,11,12,1,1,3.05531922,1,0.016869349999979
1,3,45,4.69333333333333,11,11,0,3,0.961538774000019,1,2.17317143300033
1,3,46,5.70049886621315,11,14,3,1,0.727180600999873,1,0.0168842680000125
1,3,47,5.06630385487528,11,13,2,2,1.38171161899982,1,1.50348494199989
1,3,48,4.80943310657596,11,11,0,2,1.6260820690004,1,0.0165609499999846
1,3,49,5.49442176870748,11,14,3,1,1.15366316200016,1,0.0163997270001346
1,3,50,4.5859410430839,11,12,1,2,1.51591408700006,-1,0.0164044089997333
1,3,51,4.72380952380952,11,12,1,2,1.5737496390002,1,0.0163438600002337
1,3,52,5.0053514739229,11,12,1,1,2.07094718200005,1,0.0160465769999973
1,3,53,4.21006802721088,11,10,-1,2,0.968545837999955,1,0.0162581880003927
1,3,54,4.35083900226757,11,11,0,3,0.540368372000103,-1,0.570232753000255
1,3,55,4.40163265306122,11,11,0,2,1.27784456500012,-1,0.238140956999814
1,3,56,3.9415873015873,11,12,1,1,2.29379129800009,1,0.851937535000161
1,3,57,4.83555555555556,11,13,2,1,1.26061953899989,1,0.0168983580001623
1,3,58,6.5015873015873,11,16,5,1,1.62525980800001,1,0.0169062019999728
1,3,59,4.78185941043084,11,11,0,3,1.72769440299999,-1,0.0168586849999883
1,3,60,4.30004535147392,11,11,0,3,2.20235630200023,1,0.0160334399997737
1,3,61,4.81233560090703,11,12,1,1,1.41135353600021,1,0.0759149509999588
1,3,62,4.91972789115646,11,13,2,1,1.03024433400014,1,0.0161034830002791
1,3,63,5.2346485260771,11,14,3,1,1.41571443300018,1,0.0160144819997186
1,3,64,4.18104308390023,11,11,0,3,1.57887812499985,-1,0.524016628000027
1,3,65,4.21006802721088,11,11,0,3,1.81091313499974,1,0.163120321999941
1,3,66,5.88045351473923,11,14,3,1,1.42163833599989,1,0.127417993000108
1,3,67,4.06349206349206,11,11,0,3,2.04305852700008,1,0.360713577999832
1,3,68,4.10122448979592,11,11,0,2,1.24460178100026,1,0.045580186999814
1,3,69,4.08816326530612,11,11,0,1,1.66369222699996,1,0.190887604000181
1,3,70,5.49587301587302,11,13,2,1,1.49612800500017,1,0.0159943789999488
1,3,71,3.75727891156463,11,11,0,3,1.91123080999978,-1,0.507917734999864
1,3,72,4.23038548752834,11,11,0,2,2.08466204000024,1,0.474094874999992
1,3,73,8.4346485260771,11,22,11,1,1.38781697899958,1,0.0158623980000812
1,3,74,4.3784126984127,11,11,0,3,1.73991842600026,-1,0.886781252999754
1,3,75,6.48707482993197,11,17,6,1,0.833833456999855,1,0.208989266000117
1,3,76,4.00253968253968,11,10,-1,3,1.76365511199992,-1,26.0227289069999
1,3,77,3.91256235827664,11,10,-1,3,0.691088232000311,-1,1.29066343600016
1,3,78,4.19120181405896,11,11,0,3,3.08196060299997,-1,0.296959577000052
1,3,79,4.38421768707483,11,11,0,3,1.64801680300025,-1,0.989741039000364
1,3,80,4.64108843537415,11,11,0,3,0.548982656999669,-1,0.392017133000081
1,3,81,4.24780045351474,11,11,0,3,1.42842942000016,1,2.12658917999988
1,3,82,3.83854875283447,11,11,0,2,7.46240796499978,1,1.07311054299998
1,4,1,7.25768707482993,19,17,-2,2,2.43477833099996,-1,0.0160742379998737
1,4,2,6.65541950113379,19,17,-2,2,1.89796704199989,-1,1.71380158400007
1,4,3,8.2227664399093,19,20,1,3,2.18768442700002,1,0.0206118209998749
1,4,4,7.94993197278912,19,20,1,1,2.31352881300018,1,0.255419404999884
1,4,5,8.3287074829932,19,20,1,1,3.21243181999989,1,0.0162610790002873
1,4,6,6.87600907029478,19,17,-2,1,1.28182040000002,-1,1.20200502899979
1,4,7,7.81786848072562,19,19,0,2,2.02021153999976,1,0.444444160999865
1,4,8,7.01968253968254,19,19,0,3,2.06205456099997,-1,1.81275536799967
1,4,9,8.79891156462585,19,21,2,2,1.97591315799991,1,1.36854665299961
1,4,10,0.00580498866213152,19,1,-18,1,1.87356499999987,-1,0.406905219999771
1,4,11,7.80916099773243,19,19,0,1,2.15991396900017,-1,0.0671259069999905
1,4,12,7.10240362811791,19,18,-1,3,2.978201076,-1,1.23654746900002
1,4,13,7.73369614512472,19,19,0,2,2.9861949430001,1,0.106635286000255
1,4,14,7.86721088435374,19,19,0,2,2.24187759000006,1,1.05788876399993
1,4,15,7.98040816326531,19,20,1,1,1.15046783300022,-1,1.01828055700025
1,4,16,8.00362811791383,19,20,1,2,2.89779601100008,-1,0.502940551999927
1,4,17,1.31337868480726,19,4,-15,1,1.35536510100019,-1,0.678672215999995
1,4,18,6.73959183673469,19,17,-2,3,2.38302221000004,-1,0.015933534999931
1,4,19,7.74820861678005,19,20,1,2,1.96767495299991,-1,0.0164217390001795
1,4,20,7.70467120181406,19,19,0,2,3.3555501400001,-1,0.588378256999931
1,4,21,6.79183673469388,19,20,1,3,1.52991281000004,1,0.462268752999989
1,4,22,7.11691609977324,19,18,-1,2,1.42065438500003,1,0.990379731000303
1,4,23,7.6887074829932,19,20,1,2,2.65816278099965,1,0.349607510999704
1,4,24,6.71637188208617,19,19,0,1,1.43542582300006,1,0.39585070999965
1,4,25,8.08925170068027,19,19,0,1,1.40983095900037,1,0.306902061000073
1,4,26,6.89777777777778,19,17,-2,3,3.84354513400012,1,0.488626240000031
1,4,27,7.80625850340136,19,21,2,1,1.22094003600023,1,0.0167349719999947
1,4,28,7.82222222222222,19,19,0,3,1.09894185400026,-1,0.057018701999823
1,4,29,6.78312925170068,19,18,-1,3,0.84496275499987,-1,0.0556765050000649
1,4,30,6.68734693877551,19,16,-3,2,2.07818401499981,-1,0.40209840999978
1,4,31,8.49560090702948,19,23,4,2,1.91321517799997,-1,0.503198170999895
1,4,32,9.19365079365079,19,23,4,1,0.700868397000249,1,0.123391949000052
1,4,33,8.94403628117914,19,22,3,2,2.04624288000014,1,0.501257365000129
1,4,34,7.5871201814059,19,19,0,3,0.952627114999814,-1,1.58916075999969
1,4,35,10.4373696145125,19,26,7,1,1.52160279800046,1,0.245846730999801
1,4,36,8.50140589569161,19,21,2,1,0.645386776000123,1,0.015929369999867
1,4,37,8.61315192743764,19,21,2,3,6.60740924299989,-1,1.45315763399958
1,4,38,6.90503401360544,19,16,-3,1,1.06112363900047,-1,0.0160929260000557
1,4,39,7.09514739229025,19,18,-1,2,1.61242235100053,-1,0.0170772949995808
1,4,40,7.30557823129252,19,17,-2,2,3.02523441999983,-1,0.337311870000121
1,4,41,7.12707482993197,19,19,0,3,1.95061363399964,-1,0.34637862100044
1,4,42,7.45215419501134,19,19,0,1,0.724441780000234,1,0.106776257999627
1,4,43,8.54349206349206,19,21,2,1,0.730812216000231,1,0.544819518999248
1,4,44,7.11836734693878,19,16,-3,1,0.924340650999511,-1,0.0168061109998234
1,4,45,8.52897959183673,19,21,2,1,0.684120942999471,1,0.0827852450001956
1,4,46,9.7146485260771,19,23,4,1,0.587595074000092,1,0.0387377569995806
1,4,47,5.82530612244898,19,16,-3,2,1.24614618499982,-1,0.10360428399963
1,4,48,8.45351473922902,19,20,1,3,3.14413191199947,1,0.370943870000701
1,4,49,7.78739229024943,19,20,1,2,1.86043483000049,1,0.0676527599998735
1,4,50,7.51600907029478,19,19,0,3,2.09923225500006,1,0.479543825000292
1,4,51,7.61614512471655,19,19,0,3,0.865322521999587,1,0.194378707999931
1,4,52,8.2227664399093,19,21,2,2,0.999703329000113,1,0.0415950719998364
1,4,53,7.62195011337869,19,19,0,1,1.85254945299948,-1,0.172047650000422
1,4,54,9.52888888888889,19,22,3,2,2.31777042500016,1,1.13896925100016
1,4,55,7.70612244897959,19,20,1,1,1.3577660130004,1,0.0418246250001175
1,4,56,5.40299319727891,19,15,-4,1,1.94707506400027,-1,0.341828749999877
1,4,57,8.09650793650794,19,19,0,2,0.878056504999222,1,0.668601082999885
1,4,58,7.80335600907029,19,20,1,2,2.95949184999972,1,0.450385860000097
1,4,59,7.98185941043084,19,19,0,2,1.16095525799938,1,0.268497069000659
1,4,60,7.20544217687075,19,19,0,2,1.82398396799999,-1,0.360110480000003
1,4,61,6.82956916099773,19,19,0,2,1.29810864999945,1,0.240325521000159
1,4,62,8.11102040816326,19,21,2,1,2.64093454199974,1,1.39186225599951
1,4,63,7.95718820861678,19,20,1,2,1.72774176799976,1,0.123965688000681
1,4,64,8.67990929705215,19,22,3,1,1.2807969000005,1,0.520659734999754
2,1,1,8.09650793650794,19,20,1,3,1.78996687200015,1,1.12741703400025
2,1,2,7.26784580498866,19,19,0,3,1.83496113799993,1,0.690095336998638
2,1,3,6.13732426303855,19,17,-2,2,2.01233329099887,1,4.38210397599869
2,1,4,7.71918367346939,19,20,1,3,1.58609855000032,1,3.86937090500032
2,1,5,6.85278911564626,19,17,-2,2,2.21359353799926,-1,1.87852089899934
2,1,6,7.55809523809524,19,19,0,2,1.69184693699935,1,0.0812530589992093
2,1,7,7.78448979591837,19,19,0,2,7.4282284280016,1,4.92018231300062
2,1,8,7.47392290249433,19,18,-1,3,1.92755505300011,-1,0.642703991999952
2,1,9,5.91528344671202,19,15,-4,2,0.87435589100096,1,0.49685896399933
2,1,10,7.20399092970522,19,17,-2,2,0.718329033001282,-1,2.04217481399974
2,1,11,7.59002267573696,19,19,0,2,1.58836275999965,1,0.911455405999732
2,1,12,7.36362811791383,19,18,-1,2,1.63131171600071,1,0.238056558999233
2,1,13,8.61170068027211,19,19,0,1,1.49623565500042,1,0.0168631160013319
2,1,14,11.6854421768707,19,27,8,1,1.48592751599972,1,1.05237864999981
2,1,15,7.12562358276644,19,19,0,2,3.3261294640015,-1,1.99168434199964
2,1,16,6.86875283446712,19,16,-3,2,1.78892739599905,-1,0.208147980998547
2,1,17,5.60471655328798,19,15,-4,2,1.04971118899994,-1,0.193479457999274
2,1,18,5.54231292517007,19,13,-6,3,2.53540035300102,-1,0.411265331000322
2,1,19,6.39709750566893,19,18,-1,3,1.86774453599901,-1,1.0572511270002
2,1,20,7.55809523809524,19,19,0,3,1.14773076200072,1,0.407356345000153
2,1,21,7.3621768707483,19,20,1,3,1.570773301999,1,0.566464860999986
2,1,22,7.09950113378685,19,19,0,3,1.28269651499977,1,0.850641338998685
2,1,23,7.71482993197279,19,20,1,3,1.21689056700052,-1,0.762680912999713
2,1,24,6.96018140589569,19,19,0,3,0.968833397000708,1,0.748558642999342
2,1,25,8.03555555555556,19,19,0,3,1.53311736199976,1,0.6100990369996
2,1,26,7.59437641723356,19,20,1,3,1.11842407399854,1,0.0169226640009583
2,1,27,6.96163265306122,19,20,1,3,1.36722263299998,1,0.793624076999549
2,1,28,7.83528344671202,19,20,1,1,1.25299839200125,1,0.292209269000523
2,1,29,10.2356462585034,19,25,6,3,0.735332676000326,1,0.0161830599990935
2,1,30,8.70312925170068,19,20,1,2,1.0550119920008,1,0.896020718999353
2,1,31,7.94848072562358,19,20,1,1,2.55064051599948,1,2.41603385100098
2,1,32,7.76997732426304,19,19,0,3,3.37838284700047,1,0.0161774089992832
2,1,33,7.94848072562358,19,20,1,2,2.4671214480004,1,0.0729524329999549
2,1,34,9.21832199546485,19,23,4,1,0.434735240000009,1,0.741017181000643
2,1,35,8.8497052154195,19,22,3,1,0.987614179999582,1,0.134604555998521
2,1,36,8.27065759637188,19,21,2,2,12.3726944109985,-1,1.5657425240006
2,1,37,7.81351473922903,19,20,1,2,2.34529129200018,-1,1.11692004399993
2,1,38,7.87591836734694,19,20,1,2,1.70961629999874,1,0.188096462999965
2,1,39,8.68861678004535,19,21,2,2,2.81067056300162,-1,1.13221281799997
2,1,40,6.57414965986395,19,19,0,1,1.51050990899967,-1,0.0920510259984439
2,1,41,7.82222222222222,19,19,0,2,0.931333032000111,1,0.0502998479987582
2,1,42,8.11537414965986,19,20,1,2,0.962324727001032,1,0.582339856000544
2,1,43,6.65832199546485,19,17,-2,3,1.85275759599972,1,0.531968162000339
2,1,44,5.87755102040816,19,16,-3,2,1.53534306199981,1,0.234742439999536
2,1,45,6.60462585034014,19,15,-4,3,1.59713436200036,-1,0.271518261999518
2,1,46,8.28517006802721,19,20,1,3,2.13856286899863,1,0.016529137001271
2,1,47,7.18802721088435,19,19,0,3,1.86201638099919,1,0.323481359000652
2,1,48,12.5228117913832,19,30,11,1,1.9436144930005,1,1.33928046300025
2,1,49,6.97904761904762,19,17,-2,2,4.21913488700011,1,0.200563717000477
2,1,50,7.39120181405896,19,20,1,2,1.26918528399983,1,0.0161818159995164
2,1,51,6.29696145124717,19,16,-3,3,2.94914935400084,-1,0.319890329999907
2,1,52,7.81641723356009,19,18,-1,2,1.99137242899997,1,1.47290250999868
2,1,53,5.6453514739229,19,15,-4,1,1.1716128829994,-1,0.351771137000469
2,1,54,6.74539682539683,19,17,-2,3,2.06895686399912,-1,0.0160090749996016
2,1,55,9.13850340136054,19,23,4,1,1.35556590899978,-1,0.0162118420012121
2,1,56,6.50013605442177,19,16,-3,2,1.15733051799907,1,0.409577852000439
2,1,57,7.77868480725624,19,20,1,2,1.09334569499879,1,0.0167241659983119
2,1,58,6.84408163265306,19,18,-1,2,1.40056647799975,1,0.225472083999193
2,1,59,7.44344671201814,19,19,0,2,1.27581386600104,1,0.237098638999669
2,1,60,6.55092970521542,19,16,-3,2,2.76715028699982,-1,0.103935962999458
2,1,61,7.73514739229025,19,19,0,2,2.19226076800078,-1,0.0162321700008761
2,2,1,4.02140589569161,11,10,-1,2,1.26971245099958,1,0.54908038099893
2,2,2,3.94303854875283,11,11,0,3,1.33028029900015,1,0.190245634999883
2,2,3,4.30730158730159,11,11,0,2,1.14694701199915,-1,0.167618076000508
2,2,4,2.35392290249433,11,7,-4,3,1.57283418000043,-1,0.103182602999368
2,2,5,4.53369614512472,11,11,0,3,1.32949578800071,1,0.799515849999807
2,2,6,4.56562358276644,11,11,0,3,1.27202083100019,1,0.359355751001203
2,2,7,4.61206349206349,11,11,0,3,1.31475939400116,1,0.825127218999114
2,2,8,4.38857142857143,11,11,0,3,1.00216453400026,1,0.196454020000601
2,2,9,4.82975056689342,11,11,0,3,1.27792827700068,1,0.111182209000617
2,2,10,4.96326530612245,11,12,1,3,1.14709442299863,1,1.15220162600053
2,2,11,4.50902494331066,11,11,0,3,1.08742171700032,1,0.14163274800012
2,2,12,4.04462585034014,11,11,0,3,1.07178634199954,1,0.0560166830000526
2,2,13,4.5815873015873,11,11,0,3,1.21414193800047,1,0.0883320419998199
2,2,14,4.32471655328798,11,11,0,3,1.07329069700063,1,0.016794299999674
2,2,15,4.52934240362812,11,11,0,3,0.909566629001347,1,0.172537073000058
2,2,16,4.50031746031746,11,11,0,3,0.977154873999098,1,0.14896613000019
2,2,17,4.62367346938776,11,11,0,3,1.05512832199929,1,0.0169965420009248
2,2,18,4.81378684807256,11,11,0,3,0.804619750999336,1,0.055539207000038
2,2,19,4.31020408163265,11,11,0,3,0.698398487000304,1,0.145620495000912
2,2,20,4.32761904761905,11,12,1,3,0.816902489999848,1,0.0896662859995558
2,2,21,4.39002267573696,11,11,0,1,1.0952440050005,1,1.52693660600016
2,2,22,5.17659863945578,11,13,2,2,1.27862551600083,-1,0.133337752999068
2,2,23,4.22458049886621,11,11,0,3,1.45010777300013,1,0.202557488000821
2,2,24,4.32616780045351,11,11,0,3,1.05871920000027,1,0.106826361999993
2,2,25,4.64544217687075,11,11,0,3,0.896170745001655,1,0.0626678650005488
2,2,26,3.7340589569161,11,10,-1,3,1.27595289800047,-1,0.107790231999388
2,2,27,4.49015873015873,11,11,0,3,0.93536909300019,1,0.0875342350009305
2,2,28,4.51337868480726,11,12,1,1,1.32873021200066,-1,0.477117411999643
2,2,29,4.19990929705215,11,11,0,3,0.958543204000307,1,0.171075718000793
2,2,30,0.632743764172336,11,2,-9,1,1.72714379600075,-1,0.0744262360003631
2,2,31,4.48145124716553,11,11,0,3,1.23862306000046,1,0.023572955000418
2,2,32,2.84009070294785,11,9,-2,1,1.34094297999945,-1,0.104019550000885
2,2,33,3.58748299319728,11,10,-1,3,1.49344558300072,-1,0.068373922000319
2,2,34,4.4930612244898,11,11,0,1,1.4919579540001,-1,0.05732657399858
2,2,35,4.66285714285714,11,13,2,3,2.27790290200028,1,1.73192858599941
2,2,36,4.41759637188209,11,11,0,3,0.849278394000066,1,0.0161781659990083
2,2,37,3.34367346938776,11,10,-1,2,1.02875809000034,1,2.3093198229999
2,2,38,4.24344671201814,11,12,1,3,1.37256583400085,-1,0.142811911000535
2,2,39,4.58448979591837,11,11,0,3,3.59346630300024,1,40.8971936779999
2,2,40,3.93433106575964,11,11,0,3,1.75194729099894,1,0.483345100001316
2,2,41,4.40308390022676,11,12,1,3,0.964476376000675,1,1.8805602400007
2,2,42,4.3740589569161,11,11,0,3,0.917045543001223,1,0.106097251000392
2,2,43,4.54965986394558,11,11,0,3,2.94536088399946,1,0.452382049999869
2,2,44,3.73551020408163,11,10,-1,2,1.37658889100021,-1,0.211512101999688
2,2,45,4.22458049886621,11,11,0,3,0.862835940000878,1,0.0803087889999006
2,2,46,4.2550566893424,11,10,-1,1,1.12998961999983,-1,0.960155672999463
2,2,47,4.66285714285714,11,11,0,3,0.845232984000177,1,0.141336752998541
2,2,48,4.32036281179138,11,11,0,3,1.02892318100021,1,0.142463770000177
2,2,49,4.678820861678,11,11,0,3,1.09068950999972,1,0.274288243001138
2,2,50,3.88063492063492,11,10,-1,3,0.845047398001043,1,0.0952825679996749
2,2,51,4.32326530612245,11,11,0,3,0.869338978998712,1,0.0558788509988517
2,2,52,3.81532879818594,11,10,-1,1,1.83137611500024,1,0.991872454998884
2,2,53,5.16643990929705,11,12,1,2,2.8367777300009,-1,0.155307581999296
2,2,54,2.53968253968254,11,8,-3,1,1.42374738399849,-1,0.105603431000418
2,2,55,3.90385487528345,11,11,0,2,2.09190902000046,1,0.48991634199956
2,2,56,4.59609977324263,11,12,1,3,2.20153230600044,1,0.160578697999881
2,2,57,4.41759637188209,11,11,0,3,0.921619782000562,1,1.84673511799883
2,2,58,4.59174603174603,11,11,0,3,1.69153047699911,1,0.569948647000274
2,2,59,4.20861678004535,11,11,0,3,3.63968678499987,1,0.34291611899971
2,2,60,4.56417233560091,11,12,1,2,1.27987783299977,-1,1.0712566000002
2,2,61,6.20408163265306,11,15,4,1,1.33065456000077,1,0.383721657999558
2,2,62,4.69913832199546,11,11,0,2,1.55940638799984,1,0.561328777999734
2,2,63,1.57315192743764,11,5,-6,1,1.44233058999998,-1,0.307583330000853
2,2,64,4.1578231292517,11,10,-1,2,1.59214849300042,-1,0.209950540998761
2,2,65,4.07219954648526,11,11,0,3,0.729042028999174,1,1.00060987300094
2,2,66,4.91827664399093,11,12,1,2,1.11184594599945,1,0.124656181000319
2,2,67,4.04172335600907,11,10,-1,2,1.27454531799958,-1,0.322939820000101
2,2,68,3.52943310657596,11,10,-1,2,0.914238090999788,-1,0.168312579000485
2,2,69,4.54530612244898,11,11,0,2,1.76463017200149,-1,0.175624581999728
2,2,70,4.12589569160998,11,12,1,2,1.11359253400042,-1,0.16755570100031
2,2,71,2.68770975056689,11,7,-4,3,2.23153436600114,-1,0.326079841001047
2,2,72,5.97768707482993,11,16,5,2,0.0729222730005858,1,0.969821517999662
2,2,73,4.08526077097506,11,10,-1,2,0.770668688001024,1,0.11953130099937
2,2,74,4.78331065759637,11,11,0,2,6.34485751600005,1,0.10276051999972
2,2,75,4.10702947845805,11,11,0,2,1.61377949999951,1,0.335587774001397
2,2,76,6.02557823129252,11,16,5,2,0.682196266001483,1,1.37149332300032
2,2,77,4.09832199546485,11,10,-1,3,1.45652969399998,-1,0.141884762999325
2,2,78,4.37696145124717,11,11,0,3,1.00681157999861,1,0.121615908001331
2,2,79,4.70204081632653,11,11,0,3,0.973063340001318,1,0.0886480540011689
2,2,80,3.37995464852608,11,9,-2,3,0.832916146000571,1,0.0495562380001502
2,2,81,4.16507936507937,11,11,0,3,1.15803947399945,1,0.0894837720006763
2,2,82,4.63818594104308,11,11,0,3,0.701593374998993,1,0.0193308609996166
2,2,83,4.34503401360544,11,11,0,3,0.628624908000347,1,0.0314572510014841
2,2,84,4.12444444444444,11,11,0,3,0.779160939000576,1,0.016111617000206
2,2,85,3.40462585034014,11,8,-3,1,0.431209204998595,-1,2.43309891599893
2,2,86,3.89079365079365,11,10,-1,2,1.26806534499883,1,0.354878657000882
2,2,87,3.41333333333333,11,10,-1,2,1.18507966200013,-1,0.738300621000235
2,2,88,3.60199546485261,11,10,-1,2,0.622452883000733,-1,0.242320838999149
2,3,1,7.27945578231293,19,20,1,2,1.88288249099969,1,0.83253961400078
2,3,2,7.53342403628118,19,20,1,2,1.11943305899877,-1,0.084910937001041
2,3,3,7.18077097505669,19,20,1,3,1.49624486800167,1,0.246499531998779
2,3,4,7.27510204081633,19,18,-1,3,1.03755629599982,-1,0.949358551000842
2,3,5,7.11546485260771,19,19,0,3,1.12672272500095,1,0.0749826499995834
2,3,6,7.50439909297052,19,18,-1,1,2.23079098099879,-1,0.767805554000006
2,3,7,8.10956916099773,19,20,1,1,2.19922853199932,1,1.0083551179996
2,3,8,7.8875283446712,19,20,1,1,2.7820817110005,1,0.766692244998922
2,3,9,7.75111111111111,19,19,0,3,1.88810053399902,1,14.5016689469994
2,3,10,7.70612244897959,19,19,0,3,0.966287786999601,1,0.0962656120009342
2,3,11,7.47972789115646,19,19,0,3,1.41492244600158,1,1.29676460299925
2,3,12,8.96290249433107,19,23,4,1,1.00849826000012,1,0.842562136998822
2,3,13,7.21414965986395,19,18,-1,2,0.790838219998477,1,0.0834204269995098
2,3,14,7.20399092970522,19,18,-1,1,1.39426855199963,-1,0.834592383000199
2,3,15,9.07755102040816,19,23,4,2,1.72986628400031,1,0.238020324999525
2,3,16,2.85024943310658,19,7,-12,1,2.90817363199858,-1,28.0227840330008
2,3,17,7.44925170068027,19,19,0,3,1.46291043800011,1,0.10952422399896
2,3,18,7.92235827664399,19,19,0,3,2.2407993429988,-1,0.0884724379993713
2,3,19,7.92380952380952,19,20,1,2,1.21692527800042,1,0.128942702000131
2,3,20,5.4334693877551,19,15,-4,3,1.02989827200145,1,0.06998246799958
2,3,21,6.56979591836735,19,18,-1,2,0.761405678000301,1,0.206472554000356
2,3,22,7.97605442176871,19,19,0,3,0.963025580998874,1,0.0802371970003151
2,3,23,7.70031746031746,19,20,1,2,0.946475718999864,1,0.102156061000642
2,3,24,8.02249433106576,19,19,0,3,0.807821742999295,1,0.179507917000592
2,3,25,0.417959183673469,19,2,-17,1,1.88668952700027,-1,0.115985499000089
2,3,26,7.56680272108844,19,18,-1,2,1.32144267600052,1,0.22393986499992
2,3,27,6.85569160997732,19,19,0,1,0.740304379000008,1,0.770665994999945
2,3,28,7.94848072562358,19,19,0,2,1.00212811799975,-1,0.150095374001467
2,3,29,6.74104308390023,19,17,-2,1,0.879508105999776,-1,0.0167224500000884
2,3,30,8.07909297052154,19,19,0,3,1.31951509400096,1,0.0166814339991106
2,3,31,7.30848072562358,19,18,-1,3,1.20969909800078,1,0.0825385579992144
2,3,32,5.91963718820862,19,16,-3,1,2.01853913700143,-1,0.180009924999467
2,3,33,7.35201814058957,19,19,0,3,2.09953973900156,-1,1.92075519599894
2,3,34,7.71047619047619,19,20,1,2,0.708925402999739,-1,0.835082076000617
2,3,35,7.14303854875283,19,17,-2,1,1.36887558600029,-1,0.0999085130006279
2,3,36,8.87002267573696,19,23,4,1,1.21543328999905,-1,0.119802445999085
2,3,37,8.53043083900227,19,21,2,1,1.37210678800147,1,0.0315876800013939
2,3,38,7.75691609977324,19,20,1,2,2.21425759799968,1,1.63913216900073
2,3,39,7.45360544217687,19,19,0,3,1.58176832699974,1,0.85676506100026
2,3,40,7.74240362811791,19,18,-1,3,1.19431576300121,-1,0.116122769000867
2,3,41,6.82521541950113,19,17,-2,3,0.535985157999676,-1,0.90379399000085
2,3,42,6.98340136054422,19,18,-1,2,1.56600088400046,-1,0.143980508000823
2,3,43,8.61605442176871,19,22,3,1,0.928725473999293,1,0.535314430000653
2,3,44,7.22575963718821,19,19,0,2,1.14129235700057,-1,0.114913548999539
2,3,45,6.65977324263039,19,17,-2,2,0.941220266000528,-1,0.130119832998389
2,3,46,8.28952380952381,19,19,0,3,3.44625013100085,1,0.253919669999959
2,3,47,7.82367346938775,19,20,1,1,1.37286888899871,1,0.264275604999057
2,3,48,7.84399092970522,19,20,1,2,0.973700912001732,-1,0.120952133000173
2,3,49,7.09804988662132,19,20,1,2,1.34883507999984,-1,0.111648849999256
2,3,50,8.47818594104308,19,20,1,3,2.39854295899931,1,0.0633178330008377
2,3,51,8.32290249433107,19,20,1,2,1.63548660400011,1,0.452004454999042
2,3,52,6.91083900226757,19,18,-1,2,1.27540137399956,1,0.14667634000034
2,3,53,8.02539682539683,19,20,1,1,1.50765075199888,-1,0.0740068840004824
2,3,54,7.86575963718821,19,21,2,1,0.89901872000155,-1,0.257885883000199
2,3,55,8.27646258503401,19,21,2,2,1.73949379800069,-1,1.11718135099909
2,3,56,7.67274376417234,19,19,0,2,0.848469938000562,-1,0.857542803998513
2,3,57,8.85696145124717,19,22,3,1,4.39907502999995,1,0.454109347001577
2,3,58,8.25904761904762,19,20,1,1,0.966023167999083,-1,0.0493990079994546
2,3,59,7.93687074829932,19,22,3,1,1.88131170599991,-1,0.0798206960007519
2,3,60,7.52761904761905,19,19,0,3,1.5188020250007,-1,0.131538429001012
2,3,61,8.3112925170068,19,21,2,2,2.61799425400022,1,0.113953891999699
2,3,62,6.82521541950113,19,18,-1,2,0.771973511000397,-1,0.240731775000313
2,3,63,7.61324263038549,19,20,1,2,0.981486913000481,-1,0.0397344880002493
2,4,1,4.50176870748299,11,11,0,3,1.58700965699973,1,0.188174123000863
2,4,2,5.03292517006803,11,11,0,3,0.731337043000167,1,0.0253901910000423
2,4,3,4.17814058956916,11,11,0,3,1.06516304499928,1,0.832801491000282
2,4,4,4.42049886621315,11,12,1,3,1.19628194500001,1,0.712506341000335
2,4,5,4.16943310657596,11,11,0,3,0.672708325999338,1,0.0568478060013149
2,4,6,4.09687074829932,11,11,0,3,0.833260360001077,1,0.105253357000038
2,4,7,3.81242630385488,11,11,0,3,0.796723330000532,1,0.0325163860015891
2,4,8,4.5815873015873,11,12,1,2,1.04911878700113,1,0.360258569000507
2,4,9,4.62077097505669,11,11,0,3,0.64805351799987,1,0.047280150000006
2,4,10,4.54530612244898,11,11,0,3,0.696563335000974,1,0.103178635999939
2,4,11,0.654512471655329,11,2,-9,1,1.50289975099986,-1,0.307008770998436
2,4,12,4.3784126984127,11,11,0,3,0.963552931001686,1,0.119154268999409
2,4,13,4.5859410430839,11,11,0,3,0.596433871000045,1,0.0640747470006318
2,4,14,3.91691609977324,11,12,1,2,1.44344524999906,1,0.0911948020002455
2,4,15,4.55256235827664,11,12,1,2,0.844312061999517,1,0.708408491000228
2,4,16,4.42195011337868,11,11,0,3,0.542218343000059,1,0.113698218001446
2,4,17,0.772063492063492,11,3,-8,1,1.27541974000087,-1,0.0256031930002791
2,4,18,4.39002267573696,11,11,0,3,1.10146199800147,1,0.132358823000686
2,4,19,4.49741496598639,11,11,0,3,0.763744908001172,1,0.0640416639998875
2,4,20,4.39873015873016,11,11,0,3,1.14373514399995,-1,0.340578613000616
2,4,21,4.04462585034014,11,10,-1,3,1.22386615599862,-1,0.0892003770004521
2,4,22,4.28408163265306,11,11,0,3,0.995945868999115,-1,0.111800853001114
2,4,23,4.35519274376417,11,11,0,3,0.775233942998966,1,0.036751040001036
2,4,24,4.038820861678,11,10,-1,1,1.20062569000038,-1,0.0591086460008228
2,4,25,3.54394557823129,11,8,-3,2,1.52164273000017,-1,0.0558109439989494
2,4,26,4.67301587301587,11,12,1,2,1.78655282199907,1,0.748768577999726
2,4,27,4.73687074829932,11,12,1,2,1.01186375200086,1,0.0386561849991267
2,4,28,4.7891156462585,11,11,0,3,0.80793197300045,1,0.131312868999885
2,4,29,4.19700680272109,11,12,1,3,0.755377360001148,1,0.0239967550005531
2,4,30,3.86031746031746,11,10,-1,2,1.98387233699941,-1,0.77861438599939
2,4,31,4.25650793650794,11,11,0,3,1.70624339700043,1,1.47302733499964
2,4,32,4.42630385487528,11,11,0,3,0.713355468000373,1,0.0169040720011253
2,4,33,2.66013605442177,11,8,-3,1,0.678157457001362,-1,72.6871457829984
2,4,34,4.64544217687075,11,11,0,3,0.768204666001111,1,1.24406991700016
2,4,35,4.31165532879819,11,11,0,3,0.889545162999639,1,0.112732792000315
2,4,36,4.84136054421769,11,11,0,3,1.24665432200163,1,0.0324576319999323
2,4,37,3.96045351473923,11,11,0,3,0.861466885000482,1,0.0554824470000312
2,4,38,4.56852607709751,11,10,-1,3,1.38091037300001,-1,0.200730837001174
2,4,39,3.92997732426304,11,11,0,3,0.9346123790001,1,0.0351240740001231
2,4,40,4.24780045351474,11,11,0,3,0.687784550000288,1,0.0888296339999215
2,4,41,4.30004535147392,11,10,-1,3,0.827780314999472,-1,0.0951072499992733
2,4,42,1.65732426303855,11,5,-6,1,0.662772863999635,-1,0.0726743970008101
2,4,43,3.84580498866213,11,11,0,3,0.533383329999197,1,0.0834862619994965
2,4,44,3.25079365079365,11,9,-2,3,0.755016981998779,1,0.0650769080002647
2,4,45,3.86321995464853,11,10,-1,3,0.952798469001209,1,0.0168975189990306
2,4,46,4.49160997732426,11,13,2,3,0.59150586800024,1,0.0515661999997974
2,4,47,3.60780045351474,11,10,-1,3,0.778250760000446,-1,0.0860662849991058
2,4,48,2.83283446712018,11,7,-4,1,0.799644939001155,-1,0.0818956700004492
2,4,49,4.15637188208617,11,11,0,1,1.65827923500001,1,0.584482045000186
2,4,50,4.09977324263039,11,11,0,2,0.484964700999626,1,0.333521562000897
2,4,51,4.15927437641723,11,11,0,3,0.517174258000523,1,0.221236118999514
2,4,52,4.47709750566893,11,11,0,3,0.476582343999326,1,0.0170386480003799
2,4,53,4.46258503401361,11,11,0,3,0.390834484998777,1,0.0755329120001988
2,4,54,3.54249433106576,11,10,-1,1,0.485403941000186,1,0.190313388000504
2,4,55,4.43356009070295,11,11,0,3,0.395322613001554,1,0.0561639930001547
2,4,56,4.37551020408163,11,11,0,3,0.299533470000824,1,0.0662865759986744
2,4,57,3.61795918367347,11,10,-1,3,1.05798223300008,-1,0.016571608999584
2,4,58,4.08090702947846,11,11,0,3,0.456446344998767,1,0.632760055999825
2,4,59,4.64399092970522,11,11,0,3,1.37906871900122,1,0.0159985549998964
2,4,60,3.87918367346939,11,10,-1,3,0.961683432999052,-1,0.166824576999716
2,4,61,3.64988662131519,11,10,-1,2,1.10614295999949,1,0.375061728998844
2,4,62,5.28979591836735,11,11,0,3,0.427503924998746,1,0.166617355000199
2,4,63,2.07092970521542,11,6,-5,1,1.37555759700081,-1,0.290745099999185
2,4,64,4.28843537414966,11,11,0,1,1.34384374100046,-1,36.8120359970017
2,4,65,4.33487528344671,11,11,0,3,1.33751099300025,1,0.998757446001036
2,4,66,4.3871201814059,11,11,0,2,0.521863418000066,-1,0.35908629900041
2,4,67,4.99954648526077,11,12,1,2,0.867901343000995,1,0.340526017000229
2,4,68,4.69043083900227,11,11,0,2,1.26682835300016,1,0.47970623800029
2,4,69,5.60326530612245,11,13,2,1,1.76850473599916,-1,0.15632274500058
2,4,70,4.34648526077097,11,12,1,3,1.22482663499977,1,0.0892262770012167
2,4,71,4.43210884353741,11,11,0,2,1.38753277100113,1,0.016766632999861
2,4,72,4.30730158730159,11,11,0,2,1.860352478001,1,0.866464874001394
2,4,73,1.40335600907029,11,5,-6,1,1.48382714800027,-1,34.9943614259992
2,4,74,3.94448979591837,11,11,0,1,1.89765920999889,-1,0.0169754569997167
2,4,75,4.31020408163265,11,11,0,3,0.781489400000282,1,0.135546629999226
2,4,76,4.62222222222222,11,11,0,3,0.614145793000716,1,0.0166736089995538
2,4,77,3.69922902494331,11,11,0,3,1.27400154300085,1,0.0169578330005606
2,4,78,4.22748299319728,11,11,0,3,0.509329201000583,1,0.131298759000856
2,4,79,4.30875283446712,11,11,0,3,0.451851698999235,1,0.158604280000873
2,4,80,5.24625850340136,11,12,1,3,0.891119457999594,-1,0.0168290580004395
2,4,81,3.58458049886621,11,10,-1,2,0.638945966999017,-1,0.103284632001305
2,4,82,4.00399092970522,11,11,0,3,0.676565449000918,-1,0.0525146959989797
3,1,1,8.33160997732426,19,20,1,2,1.31302291300381,-1,2.29640459499205
3,1,2,9.14866213151927,19,23,4,1,3.76228739198996,1,1.08437111999956
3,1,3,8.77278911564626,19,20,1,2,2.78440170500835,1,1.03292174499074
3,1,4,6.78603174603175,19,17,-2,2,1.4549556330021,-1,0.775470994994976
3,1,5,8.37079365079365,19,20,1,2,1.39494865899906,1,0.901425040996401
3,1,6,8.95274376417234,19,21,2,2,0.990905327998917,-1,0.249232339003356
3,1,7,9.79156462585034,19,24,5,1,2.59113812599389,1,1.47947242599912
3,1,8,8.81487528344671,19,22,3,2,1.01290037599392,1,2.75226938199194
3,1,9,11.961179138322,19,30,11,2,1.79316323400417,-1,0.633639046005555
3,1,10,7.80190476190476,19,19,0,2,1.56003754799895,-1,0.524267777000205
3,1,11,8.93678004535147,19,23,4,2,0.659000857995125,1,0.313428959998419
3,1,12,8.9730612244898,19,23,4,2,0.571122610999737,1,0.221652025997173
3,1,13,7.74095238095238,19,19,0,2,1.64859759400133,-1,0.935994407991529
3,1,14,8.90775510204082,19,23,4,1,1.96216138599266,1,0.276373929998954
3,1,15,11.3603628117914,19,30,11,1,1.53856154099049,-1,0.0164172270015115
3,1,16,11.3603628117914,19,28,9,1,0.49119284900371,1,0.115087418002076
3,1,17,9.6972335600907,19,24,5,2,3.12829036501353,1,0.274732712990954
3,1,18,15.8013832199546,19,NaN,980,1,3.40828067000257,1,0.263810356991598
3,1,19,8.40126984126984,19,20,1,2,0.932120304001728,-1,0.425717250007438
3,1,20,8.38530612244898,19,20,1,2,1.00635592899926,1,0.840674665989354
3,1,21,7.88172335600907,19,21,2,1,2.42331647599349,-1,0.911834087004536
3,1,22,9.27201814058957,19,22,3,2,1.28669048199663,1,0.356451797997579
3,1,23,13.2934240362812,19,32,13,1,1.68896556200343,1,0.65531200300029
3,1,24,8.04136054421769,19,20,1,2,4.36413118999917,1,0.252985522005474
3,1,25,8.15746031746032,19,21,2,2,1.26184521699906,1,0.556113380007446
3,1,26,8.02104308390023,19,22,3,2,2.69595931300137,1,1.20618852599
3,1,27,7.57260770975057,19,18,-1,2,2.56741635799699,1,1.69784757000161
3,1,28,9.36925170068027,19,24,5,1,2.08670813799836,-1,0.0473948860017117
3,1,29,8.64798185941043,19,23,4,2,1.95059993700124,1,0.249808627995662
3,1,30,9.05868480725624,19,22,3,2,1.69187863299157,-1,0.433901323995087
3,1,31,9.71319727891157,19,24,5,2,1.15410098500433,-1,1.06916014901071
3,1,32,8.24888888888889,19,21,2,2,0.535545340011595,1,0.0151504160021432
3,1,33,11.7217233560091,19,30,11,1,1.10837401500612,-1,1.31477828900097
3,1,34,15.2061678004535,19,39,20,1,2.65352292200259,1,0.546918720996473
3,1,35,12.9654421768707,19,32,13,2,1.5353889449907,-1,0.602901011996437
3,1,36,9.87718820861678,19,25,6,2,0.969355319000897,1,0.0860279759945115
3,1,37,12.5416780045351,19,34,15,2,1.46056724399386,1,0.236776787001872
3,1,38,7.73514739229025,19,17,-2,2,0.635990912996931,-1,0.293224731998635
3,1,39,9.70303854875283,19,24,5,2,1.8360784270044,-1,0.147150019998662
3,1,40,10.3430385487528,19,28,9,1,0.748828967989539,1,0.146150611995836
3,1,41,8.7481179138322,19,22,3,1,1.1114128420013,1,0.197066580003593
3,1,42,9.95990929705215,19,25,6,2,0.85194124901318,-1,0.342969999008346
3,1,43,10.460589569161,19,28,9,1,0.537503864004975,1,0.0850995389919262
3,1,44,9.32571428571429,19,24,5,2,0.487563082991983,1,0.135670118004782
3,1,45,8.07473922902494,19,21,2,2,0.793538154000998,1,0.421612719001132
3,1,46,8.95854875283447,19,23,4,2,1.33093421100057,-1,0.0166092270083027
3,1,47,7.17061224489796,19,19,0,2,0.926645022991579,1,0.293808219998027
3,1,48,7.95428571428571,19,19,0,2,0.977599281992298,-1,0.0163277870015008
3,1,49,8.46657596371882,19,21,2,2,0.502851063996786,1,0.131781638003304
3,1,50,11.8160544217687,19,29,10,2,0.859607869992033,1,0.0160929059929913
3,1,51,9.14285714285714,19,25,6,2,0.519589787989389,-1,0.0684400919999462
3,1,52,9.21977324263039,19,23,4,2,0.68379991898837,-1,0.194281080010114
3,1,53,13.1947392290249,19,31,12,2,0.907009193004342,1,0.904414339005598
3,1,54,8.91356009070295,19,23,4,2,1.99157427300815,-1,1.36857247399166
3,1,55,8.85115646258503,19,23,4,2,0.829308122003567,1,0.0160537979973014
3,1,56,11.8363718820862,19,29,10,1,0.373179663001793,1,0.15262346000236
3,2,1,4.74557823129252,11,12,1,3,5.22751093099941,-1,2.13847549600177
3,2,2,4.87473922902494,11,12,1,2,1.73304832499707,-1,0.418597973999567
3,2,3,4.04607709750567,11,11,0,3,3.37946807900153,-1,0.0527142900100444
3,2,4,4.32036281179138,11,11,0,3,2.20035708299838,-1,1.92050297799869
3,2,5,4.27102040816327,11,11,0,3,1.40230403699388,-1,1.25929046599776
3,2,6,4.16072562358277,11,11,0,3,3.34003654799017,-1,0.878213181000319
3,2,7,4.1534693877551,11,11,0,2,1.55625726698781,1,0.871622880003997
3,2,8,4.01560090702948,11,11,0,2,1.10470812900166,-1,0.183697437998489
3,2,9,5.15192743764172,11,13,2,2,0.957624741990003,1,0.468052347001503
3,2,10,4.45678004535147,11,11,0,2,1.27759129100014,-1,0.21306586600258
3,2,11,4.67736961451247,11,11,0,3,0.898166233993834,-1,0.151967868994689
3,2,12,4.27827664399093,11,11,0,2,1.60394737801107,-1,0.0624136250116862
3,2,13,4.26521541950113,11,11,0,2,0.731462431998807,-1,0.54632249099086
3,2,14,6.48417233560091,11,15,4,1,1.96644429300795,1,1.22413096099626
3,2,15,4.20571428571429,11,12,1,2,1.14367693499662,1,0.564775419989019
3,2,16,4.18394557823129,11,10,-1,3,1.28457698499551,-1,0.268138225001167
3,2,17,4.06784580498866,11,11,0,2,0.910191356000723,1,1.77318978199037
3,2,18,7.81641723356009,11,19,8,1,1.99233521199494,1,0.314618389005773
3,2,19,4.39147392290249,11,11,0,2,1.58251172798919,1,0.529435692005791
3,2,20,4.68462585034014,11,11,0,2,2.66000794900174,-1,0.363299847012968
3,2,21,3.85741496598639,11,10,-1,2,0.986366876997636,-1,0.472511441999814
3,2,22,4.21151927437642,11,11,0,3,2.67983000999084,1,1.02195143500285
3,2,23,4.62802721088435,11,11,0,2,0.800162129002274,1,0.459330206009327
3,2,24,4.49596371882086,11,11,0,3,0.971893077992718,-1,0.790902420994826
3,2,25,4.28988662131519,11,11,0,2,1.51127253999584,1,0.931145397000364
3,2,26,4.37115646258503,11,11,0,2,2.05386601798818,1,2.19751805100532
3,2,27,5.00825396825397,11,12,1,2,1.78513006800495,1,0.140744025004096
3,2,28,4.36680272108844,11,11,0,2,1.05664341000374,-1,0.286331898998469
3,2,29,5.05034013605442,11,13,2,2,0.711113262004801,1,0.271022449000156
3,2,30,4.74557823129252,11,13,2,2,0.948616430992843,-1,0.737968164001359
3,2,31,4.87473922902494,11,11,0,2,1.84094912199362,1,1.24218398700759
3,2,32,4.47419501133787,11,12,1,2,1.42398915499507,-1,0.146049236005638
3,2,33,3.94303854875283,11,12,1,3,0.889316956992843,-1,0.328432852998958
3,2,34,4.16362811791383,11,11,0,3,1.40037201199448,-1,0.0579176339961123
3,2,35,4.87038548752834,11,12,1,3,1.28981259999273,1,0.553556850005407
3,2,36,4.70639455782313,11,11,0,3,1.21597720199497,-1,0.392343433006317
3,2,37,5.01986394557823,11,12,1,1,3.20623350801179,1,0.278228059003595
3,2,38,4.28988662131519,11,11,0,3,1.44583552899712,-1,0.270584868994774
3,2,39,3.78630385487528,11,12,1,3,1.52353725901048,-1,0.129341313993791
3,2,40,4.14621315192744,11,10,-1,2,1.62178047599446,1,0.798966784001095
3,2,41,4.92408163265306,11,12,1,2,0.502415372000542,1,0.0457372870005202
3,2,42,7.96299319727891,11,20,9,1,1.51588655500382,1,0.128461167987552
3,2,43,4.24344671201814,11,11,0,2,1.20896507799625,-1,0.291650382001535
3,2,44,11.3414965986395,11,30,19,1,0.543480345004355,1,0.107966651004972
3,2,45,4.56562358276644,11,13,2,2,0.599614870006917,1,0.2426786700089
3,2,46,4.75573696145125,11,12,1,2,0.542578607986798,-1,0.0267510620033136
3,2,47,5.10403628117914,11,12,1,2,0.538394363000407,1,0.0709999760001665
3,2,48,4.14185941043084,11,11,0,2,1.02734252798837,1,0.694091518002097
3,2,49,5.46104308390023,11,14,3,2,0.764169587986544,1,0.0163921740022488
3,2,50,4.40743764172336,11,11,0,2,0.889526207000017,-1,0.311669172995607
3,2,51,5.33913832199547,11,13,2,2,0.683457584993448,1,0.186075919991708
3,2,52,4.74848072562358,11,11,0,2,0.765639969002223,1,0.283332450009766
3,2,53,4.61931972789116,11,10,-1,2,1.11201724299463,-1,0.0215089760022238
3,2,54,6.05750566893424,11,15,4,2,0.660621425995487,1,0.142486662007286
3,2,55,4.49596371882086,11,12,1,2,1.31020602100762,1,0.0998230799887097
3,2,56,4.41469387755102,11,11,0,3,1.34080877300585,-1,0.464862363995053
3,2,57,4.50757369614512,11,11,0,3,0.741992019989993,-1,2.65313877500012
3,2,58,4.82684807256236,11,12,1,3,1.25896770899999,1,0.0566503580048447
3,2,59,4.54240362811791,11,12,1,2,1.1025051940087,1,0.221906800012221
3,2,60,4.35954648526077,11,11,0,3,0.527647643990349,-1,0.181085318996338
3,2,61,4.48725623582766,11,11,0,2,1.24444928999583,1,0.125842560999445
3,2,62,6.16054421768707,11,15,4,1,1.59129638101149,1,0.23181985199335
3,2,63,4.97342403628118,11,13,2,1,1.87968787900172,-1,0.101989360002335
3,2,64,4.98503401360544,11,13,2,2,0.821971094002947,-1,0.500993104986264
3,2,65,5.25641723356009,11,13,2,2,0.775802176009165,1,0.220555174993933
3,2,66,6.03718820861678,11,14,3,2,2.65445034799632,1,0.485227049997775
3,2,67,6.47691609977324,11,15,4,2,0.50299498399545,1,0.252694908005651
3,2,68,8.48253968253968,11,21,10,1,2.15053145500133,1,0.249390001990832
3,2,69,4.43791383219955,11,12,1,2,0.856496250999044,1,0.199691611996968
3,2,70,4.36680272108844,11,10,-1,2,2.24355089700839,1,0.445088802996906
3,2,71,5.18385487528345,11,14,3,2,1.17623957099568,1,0.674193250000826
3,2,72,4.6831746031746,11,12,1,2,1.18111911499,-1,1.39260616399406
3,2,73,4.82684807256236,11,11,0,2,0.814093893990503,1,0.367982581010438
3,2,74,5.46975056689342,11,13,2,2,10.7082580789865,1,0.488487712005735
3,2,75,4.48580498866213,11,11,0,3,0.925117623002734,1,0.62873997099814
3,2,76,4.89795918367347,11,12,1,2,1.21074638699065,1,0.0910100340115605
3,2,77,8.30403628117914,11,20,9,1,1.43654100999993,1,0.13813906100404
3,2,78,5.61342403628118,11,15,4,2,1.89733672500006,-1,0.13578170099936
3,2,79,4.47709750566893,11,11,0,3,0.4237310430035,-1,0.105515346993343
3,2,80,4.0649433106576,11,12,1,2,0.513741857997957,1,0.128526640997734
3,2,81,4.64253968253968,11,12,1,2,0.706152148006367,1,0.133079747000011
3,2,82,4.28408163265306,11,11,0,3,1.18278850099887,1,0.426517533007427
3,2,83,4.94585034013605,11,13,2,2,0.64562417299021,1,0.10858566800016
3,3,1,9.03111111111111,19,22,3,2,1.23519540599955,-1,1.4436573869898
3,3,2,9.62757369614513,19,25,6,2,1.83789279298799,1,0.15071394800907
3,3,3,7.58566893424036,19,18,-1,3,2.57880535899312,-1,0.195112485002028
3,3,4,10.7551927437642,19,26,7,1,1.41299481500755,1,0.212720367999282
3,3,5,8.89759637188209,19,22,3,2,0.740011625006446,1,0.172064707992831
3,3,6,10.6231292517007,19,26,7,1,0.870035521002137,1,0.325165532995015
3,3,7,8.00362811791383,19,20,1,2,0.726196745003108,1,0.195571578005911
3,3,8,7.30267573696145,19,19,0,1,1.6139730480063,1,0.352288616006263
3,3,9,8.81632653061224,19,21,2,2,0.783707941998728,1,0.396979719997034
3,3,10,6.72362811791383,19,17,-2,1,1.58219392900355,-1,0.0165538389992435
3,3,11,15.4049886621315,19,37,18,1,1.81563836500573,1,0.735750238993205
3,3,12,7.58421768707483,19,19,0,2,0.504283567992388,1,0.0481288169976324
3,3,13,7.22285714285714,19,18,-1,2,0.375493106999784,1,0.0177729589922819
3,3,14,8.60154195011338,19,21,2,2,7.81634577800287,1,0.132194662000984
3,3,15,9.61886621315193,19,24,5,2,0.450799971993547,1,0.0171280759968795
3,3,16,9.7015873015873,19,23,4,1,0.497833440007525,1,0.319843199991737
3,3,17,13.1700680272109,19,33,14,1,0.71934975500335,1,0.335204178001732
3,3,18,7.32009070294785,19,19,0,2,0.979211826008395,1,0.574074040996493
3,3,19,8.30113378684807,19,20,1,2,5.42694876600581,1,1.5039607630024
3,3,20,8.79891156462585,19,23,4,2,0.42904597800225,1,0.0164245499909157
3,3,21,7.96009070294785,19,20,1,1,0.939026759995613,1,0.35214480200375
3,3,22,10.7421315192744,19,26,7,2,1.39009667899518,1,0.104545855996548
3,3,23,8.540589569161,19,20,1,2,7.19321601300908,1,0.0827561299956869
3,3,24,11.7463945578231,19,28,9,1,0.843479545001173,1,0.444990199990571
3,3,25,9.24154195011338,19,22,3,2,3.14523067300615,-1,1.43714925000677
3,3,26,13.4298412698413,19,34,15,1,0.908457514000474,1,0.291346159996465
3,3,27,8.75392290249433,19,22,3,2,0.98248839500593,1,0.104243832000066
3,3,28,16.4961224489796,19,NaN,980,1,1.17059024800255,1,0.150587239986635
3,3,29,8.20244897959184,19,20,1,2,1.77812415799417,-1,0.330789255007403
3,3,30,10.4039909297052,19,28,9,2,1.04642581898952,-1,0.070151045001694
3,3,31,9.96571428571429,19,25,6,2,0.500761971998145,-1,0.068547839007806
3,3,32,6.96743764172336,19,18,-1,2,0.705305252995458,-1,0.133822236006381
3,3,33,10.7842176870748,19,28,9,2,0.503021117998287,-1,0.0228302939940477
3,3,34,15.316462585034,19,36,17,2,0.612010094992002,1,0.0783541590062669
3,3,35,10.0019954648526,19,24,5,2,0.430337081998005,1,0.01790855199215
3,3,36,10.4852607709751,19,28,9,1,0.490375093999319,1,0.0167766220110934
3,3,37,11.9524716553288,19,31,12,2,0.678506661002757,1,0.016473550000228
3,3,38,7.90204081632653,19,20,1,3,0.7434987930028,-1,0.0526891589979641
3,3,39,7.96879818594104,19,20,1,2,0.811233963002451,-1,0.0864399540005252
3,3,40,11.982947845805,19,29,10,1,0.478834510009619,1,0.030830899006105
3,3,41,9.56371882086168,19,24,5,1,0.483377773998654,1,0.0191828219976742
3,3,42,7.97605442176871,19,20,1,2,0.589625692999107,1,0.226643681002315
3,3,43,7.45650793650794,19,20,1,2,0.763386678008828,-1,0.0179101249959785
3,3,44,8.41142857142857,19,21,2,2,0.576902085012989,1,0.0162690750003094
3,3,45,9.97587301587302,19,25,6,1,0.543355632005841,1,0.0349717050121399
3,3,46,6.8324716553288,19,16,-3,2,0.919474562004325,-1,0.0748319400008768
3,3,47,8.69587301587302,19,21,2,2,1.640517627995,1,0.623489181001787
3,3,48,10.1427664399093,19,27,8,2,1.41922525600239,-1,0.0176907169952756
3,3,49,10.0368253968254,19,26,7,2,0.61718005099101,1,0.0160271230124636
3,3,50,15.6342857142857,19,38,19,1,0.493143362997216,1,0.476392584008863
3,3,51,8.18068027210884,19,21,2,2,0.518761195009574,1,0.0165133099944796
3,3,52,9.66675736961451,19,24,5,2,1.42932750300679,1,0.199307388000307
3,3,53,11.5446712018141,19,30,11,1,0.434843770999578,1,0.0373228499956895
3,3,54,8.63201814058957,19,24,5,2,2.31065177900018,-1,0.421103517001029
3,3,55,13.4341950113379,19,34,15,1,0.368996352000977,1,0.0165699229983147
3,3,56,7.83963718820862,19,20,1,2,0.66138612900977,1,1.02820189499471
3,3,57,7.76126984126984,19,20,1,1,2.02162573000533,1,0.197532438003691
3,4,1,4.5902947845805,11,12,1,2,0.580418290002854,1,0.0162786389992107
3,4,2,4.33922902494331,11,11,0,3,0.625687389008817,-1,0.595239810994826
3,4,3,4.34938775510204,11,12,1,3,1.26455815200461,1,1.14368559300783
3,4,4,4.35229024943311,11,11,0,3,1.0953547389945,1,0.300784660998033
3,4,5,4.81959183673469,11,12,1,3,1.19786744599696,1,0.0165061909938231
3,4,6,6.37823129251701,11,16,5,2,0.439737504988443,1,0.0165650189883308
3,4,7,3.28417233560091,11,9,-2,1,2.13993763100007,-1,0.0166117539920378
3,4,8,4.55981859410431,11,12,1,2,2.72148142498918,1,0.158496225005365
3,4,9,0.00580498866213152,11,1,-10,1,1.82794275500055,-1,0.371753876999719
3,4,10,3.95319727891156,11,10,-1,1,2.28927718699561,-1,5.48536252800841
3,4,11,4.2768253968254,11,12,1,1,3.37958721400355,1,0.404505707992939
3,4,12,4.87473922902494,11,12,1,2,1.25998627899389,1,0.016369789998862
3,4,13,4.21877551020408,11,11,0,2,1.61134903600032,-1,0.0161454469925957
3,4,14,4.55981859410431,11,12,1,2,1.41582006000681,1,0.0170051859895466
3,4,15,9.14430839002268,11,23,12,1,0.854766333010048,1,0.105062954011373
3,4,16,6.42176870748299,11,17,6,1,1.12397794099525,1,0.207898445005412
3,4,17,4.17814058956916,11,11,0,2,2.00105718999112,1,0.0342170060030185
3,4,18,4.69913832199546,11,11,0,3,0.655318637989694,1,0.695654834999004
3,4,19,4.45387755102041,11,11,0,3,1.73659166900325,1,0.147464180001407
3,4,20,4.24054421768707,11,12,1,2,1.08217804999731,1,0.136833853001008
3,4,21,5.0009977324263,11,12,1,2,1.21914851998736,1,0.0991199970012531
3,4,22,5.12725623582766,11,13,2,1,0.94180105200212,1,0.218988252992858
3,4,23,5.51619047619048,11,14,3,1,1.25734149799973,1,0.474715570002445
3,4,24,5.11854875283447,11,13,2,2,0.813558099995134,1,0.166092838000623
3,4,25,8.51736961451247,11,22,11,1,0.425253609995707,1,0.227476132000447
3,4,26,4.02721088435374,11,11,0,2,0.722147945998586,1,0.11209907400189
3,4,27,4.45097505668934,11,12,1,2,0.830236002992024,1,0.0978821159951622
3,4,28,5.8615873015873,11,14,3,2,0.877253515005577,1,0.307124350001686
3,4,29,8.5318820861678,11,21,10,1,1.389212020993,1,0.161107292995439
3,4,30,4.3653514739229,11,11,0,2,1.1351960059983,1,0.114370822993806
3,4,31,6.27954648526077,11,16,5,2,2.24776423900039,1,0.120757666009013
3,4,32,4.71510204081633,11,12,1,2,1.64125853599398,1,0.60914781500469
3,4,33,5.40299319727891,11,15,4,2,0.730026984994765,1,0.102770337005495
3,4,34,12.8841723356009,11,31,20,1,1.51058558801014,1,0.299931374000153
3,4,35,3.9372335600907,11,11,0,3,0.560683728996082,-1,0.582207026003744
3,4,36,4.85006802721088,11,12,1,2,6.18127056500816,1,0.124853386994801
3,4,37,4.45968253968254,11,11,0,3,1.18151949199091,-1,0.0654507279978134
3,4,38,4.8152380952381,11,12,1,2,0.522642272000667,1,0.10524074199202
3,4,39,5.60471655328798,11,14,3,1,0.459926444993471,1,0.876198621990625
3,4,40,8.63927437641723,11,21,10,1,0.403374510002322,1,0.0313588329881895
3,4,41,5.67727891156463,11,14,3,2,0.574676417003502,1,0.0175879750022432
3,4,42,5.90512471655329,11,14,3,2,0.673857957008295,1,0.0579079639865085
3,4,43,5.12580498866213,11,13,2,2,0.397729764998076,1,0.0165612999990117
3,4,44,9.42149659863946,11,23,12,1,0.334689267008798,1,0.0444639310007915
3,4,45,11.2007256235828,11,28,17,1,0.333755719009787,1,0.0922849839989794
3,4,46,12.424126984127,11,31,20,2,0.868322999987868,1,0.0162970530072926
3,4,47,8.43609977324263,11,20,9,2,0.463740523002343,-1,0.0165414590010187
3,4,48,4.23473922902494,11,11,0,2,0.709115596997435,-1,1.44293339199794
3,4,49,4.39727891156463,11,11,0,2,1.40704924300371,-1,0.225154316998669
3,4,50,4.33052154195011,11,11,0,3,0.799162426992552,-1,0.163734159999876
3,4,51,4.75863945578231,11,11,0,3,0.753863741992973,-1,0.0529487909952877
3,4,52,4.83410430839002,11,11,0,3,1.28784017100406,-1,0.238202777007245
3,4,53,4.48,11,12,1,3,0.500037200996303,1,0.017549408992636
3,4,54,4.41034013605442,11,11,0,3,0.961505176994251,1,0.150851377999061
3,4,55,4.65995464852608,11,12,1,2,0.706013191011152,1,0.072672126989346
3,4,56,5.78902494331066,11,15,4,1,1.11605485400651,1,0.264576409012079
3,4,57,4.88344671201814,11,12,1,2,5.82160415800172,1,0.225849698996171
3,4,58,4.50902494331066,11,11,0,2,0.946705979004037,-1,0.0164368770056171
3,4,59,4.66285714285714,11,12,1,2,1.0877870520053,-1,0.0164475709898397
3,4,60,4.35083900226757,11,11,0,2,1.76097583898809,-1,0.0164251039968804
3,4,61,5.56553287981859,11,13,2,2,0.899729387994739,1,0.0163197000074433
3,4,62,5.36235827664399,11,12,1,2,0.353113940000185,1,0.0157379269949161
3,4,63,4.58013605442177,11,11,0,3,0.451616842998192,1,0.0172498770116363
3,4,64,5.47120181405896,11,14,3,2,0.842523613013327,1,0.0439651170017896
3,4,65,8.71038548752835,11,21,10,1,0.823153585006366,1,0.113853139991988
3,4,66,3.74131519274376,11,11,0,3,0.969567630003439,-1,0.107889835009701
3,4,67,4.43646258503401,11,11,0,3,0.85761986199941,-1,0.0175899049936561
3,4,68,4.83120181405896,11,13,2,2,1.35386894499243,1,0.0926472709979862
3,4,69,5.21868480725624,11,14,3,2,0.544794026995078,1,0.573767509005847
3,4,70,4.55111111111111,11,11,0,2,0.573984030997963,1,0.114157923002494
3,4,71,4.29859410430839,11,10,-1,2,0.555415998998797,-1,0.232918310008245
3,4,72,4.49451247165533,11,11,0,2,0.420733798004221,1,0.0164362520008581
3,4,73,4.67156462585034,11,13,2,2,1.03818740800489,1,0.278461718000472
3,4,74,5.12,11,11,0,2,0.608784983007354,1,0.130420131012215
3,4,75,4.14621315192744,11,10,-1,2,0.945644404011546,-1,0.0152223030017922
3,4,76,4.8021768707483,11,11,0,2,0.652923476998694,1,0.0164367299876176
3,4,77,4.71945578231293,11,10,-1,2,0.591794611013029,-1,0.131108657995355
3,4,78,4.92408163265306,11,13,2,2,1.23002741800155,1,0.392349672998535
3,4,79,6.23310657596372,11,15,4,2,0.521775956993224,1,0.110231997998198
3,4,80,4.58739229024943,11,12,1,2,0.890424184995936,1,0.146134918002645
3,4,81,5.06340136054422,11,11,0,2,0.532347681990359,1,0.21584721301042
3,4,82,4.65269841269841,11,13,2,2,0.518160124003771,1,0.0164304479985731
3,4,83,6.95002267573696,11,17,6,1,0.61812699699658,1,0.292629192990717
3,4,84,4.87473922902494,11,12,1,2,0.399927392994869,1,0.625868950999575
4,1,1,7.16480725623583,11,17,6,1,2.66603402099281,1,1.30459316899942
4,1,2,4.79201814058957,11,13,2,2,2.07346915199014,-1,1.50417730100162
4,1,3,5.17079365079365,11,14,3,2,1.55419032598729,-1,2.31752104699262
4,1,4,4.72816326530612,11,12,1,2,1.19246563600609,1,1.23455479700351
4,1,5,5.1069387755102,11,13,2,2,1.72617012300179,-1,1.13916590101144
4,1,6,5.03002267573696,11,12,1,3,2.48447931598639,1,0.490160314002424
4,1,7,4.281179138322,11,11,0,2,1.25600039800338,1,2.83818090699788
4,1,8,5.63083900226757,11,13,2,2,0.903233314995305,1,1.02180717200099
4,1,9,5.88335600907029,11,13,2,2,0.98043594599585,1,0.784137799986638
4,1,10,4.97197278911565,11,12,1,2,0.88667253399035,1,1.06870627999888
4,1,11,5.95736961451247,11,16,5,1,0.298630948003847,-1,1.56962990299508
4,1,12,6.25632653061225,11,15,4,2,1.21466018201318,-1,2.07155594200594
4,1,13,5.63083900226757,11,14,3,2,0.691573224001331,-1,0.641910827995162
4,1,14,5.22884353741497,11,13,2,2,0.775015958002768,-1,0.0182603339926573
4,1,15,4.91392290249433,11,13,2,2,0.817936473002192,1,0.101249572995584
4,1,16,4.85006802721088,11,12,1,1,3.04174956599309,1,0.599698167003226
4,1,17,5.0227664399093,11,13,2,2,1.29666935099522,-1,0.0459303529933095
4,1,18,7.31573696145125,11,19,8,1,0.761719902002369,1,0.141346030999557
4,1,19,5.6627664399093,11,15,4,2,0.471985430005589,-1,0.617694879998453
4,1,20,5.18965986394558,11,13,2,1,0.999185460008448,-1,0.128506264998578
4,1,21,5.66857142857143,11,14,3,2,0.447408756997902,1,0.016903360010474
4,1,22,4.25795918367347,11,11,0,2,0.832492475994513,1,1.12814037999487
4,1,23,4.28263038548753,11,10,-1,3,0.504253847000655,1,0.015874585005804
4,1,24,4.85297052154195,11,11,0,2,0.853561732990784,1,0.901096032001078
4,1,25,6.34049886621315,11,16,5,2,0.526258479992975,1,0.227371722998214
4,1,26,6.69895691609977,11,16,5,1,0.9719685799937,1,0.120745438005542
4,1,27,5.88625850340136,11,14,3,2,0.58806804100459,-1,0.728438120000646
4,1,28,4.62077097505669,11,12,1,2,0.507787836992065,-1,1.26513255000464
4,1,29,4.31600907029478,11,12,1,1,1.64614557399182,-1,0.0164844550017733
4,1,30,4.78331065759637,11,13,2,2,0.9997624099924,1,1.07339859601052
4,1,31,5.67437641723356,11,13,2,3,2.10072541500267,-1,0.369516252001631
4,1,32,4.40888888888889,11,11,0,1,1.44724676500482,-1,0.814996212997357
4,1,33,6.59011337868481,11,17,6,1,1.25468399901001,1,2.15927190700313
4,1,34,6.32163265306122,11,17,6,1,2.16278359100397,1,1.04638765200798
4,1,35,3.84,11,10,-1,1,0.686631336007849,-1,0.0848346540005878
4,1,36,4.01850340136054,11,10,-1,2,0.345196922993637,-1,0.573275317001389
4,1,37,4.9124716553288,11,13,2,2,0.682187197002349,1,0.0158702040062053
4,1,38,5.66131519274376,11,13,2,3,1.02158122700348,1,0.469579862998216
4,1,39,7.59582766439909,11,18,7,1,1.57091382799263,-1,0.251938290995895
4,1,40,3.10131519274376,11,8,-3,1,2.40077979299531,-1,0.288604781002505
4,1,41,5.52054421768707,11,13,2,2,1.41639597399626,1,0.376220992009621
4,1,42,6.30566893424036,11,14,3,2,1.67036739600007,1,0.614069646995631
4,1,43,5.73532879818594,11,14,3,2,0.925433850992704,-1,0.076427430001786
4,1,44,5.73097505668934,11,15,4,1,1.47903685399797,1,0.468205123994267
4,1,45,6.49142857142857,11,14,3,2,1.12254131199734,-1,0.422494715006906
4,1,46,5.60036281179138,11,15,4,2,1.39010767100262,1,0.903359395000734
4,1,47,6.12426303854875,11,15,4,1,1.08992583300278,1,0.0963256759860087
4,1,48,8.40852607709751,11,22,11,2,1.02253939100774,1,1.00071359900176
4,1,49,7.01097505668934,11,18,7,2,1.13223548499809,-1,0.578144929997507
4,1,50,5.89496598639456,11,15,4,1,1.60259292200499,-1,1.16459830400709
4,1,51,5.97043083900227,11,17,6,3,3.41649458599568,1,1.05460759699054
4,1,52,7.65097505668934,11,21,10,2,1.281109707008,1,0.624509407993173
4,1,53,6.13877551020408,11,16,5,3,2.10739797200949,-1,0.423822179989656
4,1,54,7.24027210884354,11,19,8,2,2.79408409498865,1,0.571940148991416
4,1,55,9.17043083900227,11,21,10,1,1.84143861300254,1,0.383628424999188
4,1,56,8.01523809523809,11,19,8,1,1.16242267699272,1,0.0847207479964709
4,1,57,6.25342403628118,11,17,6,2,0.634856234988547,1,0.0995938360138098
4,1,58,6.52770975056689,11,16,5,2,0.862334165998618,1,0.975645539991092
4,1,59,5.9892970521542,11,15,4,2,0.709600967995357,-1,0.0166112839942798
4,1,60,7.23591836734694,11,17,6,1,1.96720110000751,-1,0.303517954991548
4,1,61,6.43482993197279,11,15,4,2,0.390721885007224,1,0.0169503609940875
4,1,62,8.21551020408163,11,21,10,1,0.872086806994048,1,0.0625129499967443
4,1,63,6.60607709750567,11,16,5,2,2.11742276899167,-1,0.0169431120011723
4,1,64,1.62539682539683,11,4,-7,1,2.04854123300174,-1,0.272156680992339
4,1,65,7.29396825396825,11,17,6,2,0.616122888997779,-1,0.5046246300044
4,1,66,5.52925170068027,11,15,4,3,1.33816378199845,-1,0.590847785002552
4,1,67,6.8150566893424,11,17,6,1,2.33869409799809,1,0.917877679006779
4,1,68,6.59446712018141,11,15,4,1,0.275624454996432,-1,0.015921783997328
4,1,69,4.7092970521542,11,13,2,1,0.64024616999086,1,1.00169202098914
4,1,70,6.52190476190476,11,16,5,1,1.301360286001,1,0.0168136190040968
4,1,71,5.53070294784581,11,15,4,3,1.51969400300004,1,1.07568705799349
4,1,72,6.33034013605442,11,17,6,3,0.459465423991787,1,0.0160450569965178
4,1,73,6.39854875283447,11,16,5,3,0.491889333003201,1,1.03458941499412
4,1,74,6.55673469387755,11,17,6,2,0.972282565999194,-1,1.57416179300344
4,1,75,7.75111111111111,11,20,9,1,1.20386981900083,1,0.357457891994272
4,1,76,3.87482993197279,11,11,0,1,0.71758985100314,-1,0.0165583820053143
4,2,1,8.93532879818594,19,25,6,2,1.55361587098741,1,1.24568578800245
4,2,2,10.327074829932,19,26,7,3,0.987821046001045,1,0.638946367995231
4,2,3,11.0918820861678,19,26,7,3,0.409435724010109,1,0.0689465640025446
4,2,4,7.96879818594104,19,20,1,1,0.819109132993617,-1,0.0168161249894183
4,2,5,8.26775510204082,19,19,0,3,2.19103589499719,1,0.049298012003419
4,2,6,11.4880725623583,19,27,8,2,0.229784363997169,-1,0.0324325659894384
4,2,7,11.1702494331066,19,25,6,1,1.07923988200491,1,0.206441698988783
4,2,8,9.98312925170068,19,24,5,2,0.665971814989462,-1,1.25805750499421
4,2,9,11.9785941043084,19,29,10,1,0.785501311998814,1,0.389578311995137
4,2,10,2.95183673469388,19,8,-11,1,1.5375448220002,-1,0.150725444997079
4,2,11,10.1616326530612,19,24,5,2,1.64568452601088,-1,0.23027848599304
4,2,12,8.51301587301587,19,22,3,2,0.500897270001587,1,0.273814437008696
4,2,13,6.7352380952381,19,16,-3,1,0.922342730991659,-1,0.121476558007998
4,2,14,9.88444444444444,19,24,5,2,0.502077272991301,-1,0.0209440970065771
4,2,15,9.81768707482993,19,25,6,3,0.814872432005359,1,0.0166991270089056
4,2,16,11.9132879818594,19,27,8,1,0.661267257994041,1,0.0632177530060289
4,2,17,9.56517006802721,19,24,5,2,0.782290025003022,1,0.0634068380022654
4,2,18,6.32888888888889,19,16,-3,2,0.932481729993015,-1,1.87318128100014
4,2,19,8.19954648526077,19,22,3,2,0.949152351997327,1,0.0645658819994424
4,2,20,5.7469387755102,19,14,-5,1,2.10282067499065,-1,0.0159243429952767
4,2,21,6.12571428571429,19,15,-4,2,0.84682162500394,-1,0.0165252339938888
4,2,22,8.80181405895692,19,22,3,3,1.33771002100548,1,0.348741609996068
4,2,23,9.54630385487528,19,23,4,1,0.0172094500012463,1,0.107642338000005
4,2,24,10.5650793650794,19,27,8,2,0.246935196002596,1,0.0166536750039086
4,2,25,9.01079365079365,19,22,3,2,0.23786461999407,1,0.662827199994354
4,2,26,9.20235827664399,19,24,5,3,0.35832935498911,1,0.0261392870015698
4,2,27,8.88888888888889,19,23,4,1,0.978277392001473,1,0.149978219007608
4,2,28,9.04126984126984,19,22,3,1,0.0614323850022629,-1,0.118897733002086
4,2,29,5.27673469387755,19,13,-6,1,0.164079267007764,-1,0.0162863980076509
4,2,30,9.1849433106576,19,23,4,3,0.349073037999915,1,0.016137885992066
4,2,31,8.33160997732426,19,20,1,2,0.530224988004193,-1,0.017001578991767
4,2,32,10.9307936507937,19,28,9,3,0.386068952997448,1,0.0161431759916013
4,2,33,6.37097505668934,19,17,-2,1,0.0629954230098519,-1,0.0161380260105943
4,2,34,7.87736961451247,19,22,3,2,0.347643329994753,1,0.241449028006173
4,2,35,11.2703854875283,19,30,11,1,0.194535114991595,1,0.0208957499999087
4,2,36,4.28988662131519,19,10,-9,1,0.147742741988623,-1,0.0165222200012067
4,2,37,6.03283446712018,19,16,-3,2,0.25914605500293,-1,0.0364073630044004
4,2,38,11.4575963718821,19,28,9,2,0.118352232006146,1,0.0158567350008525
4,2,39,7.65242630385488,19,19,0,1,0.421365264002816,-1,0.0165780990064377
4,2,40,11.58820861678,19,31,12,2,0.554643188006594,1,0.0166096449975157
4,2,41,8.80616780045352,19,23,4,1,0.374910692000412,1,0.0283080519875512
4,2,42,8.49850340136054,19,22,3,2,0.485476902002119,-1,0.492940840995288
4,2,43,8.94548752834467,19,24,5,1,0.37716343998909,1,0.0457507630053442
4,2,44,6.48126984126984,19,15,-4,1,0.374664325005142,-1,0.370921755005838
4,2,45,11.4996825396825,19,30,11,3,0.984009577994584,1,0.0159985750069609
4,2,46,8.94258503401361,19,22,3,3,0.58318846799375,1,0.0159101000026567
4,2,47,7.61759637188209,19,19,0,3,1.50567604800744,-1,0.0160139149957104
4,2,48,9.66675736961451,19,26,7,3,0.848165343006258,1,0.0800288040045416
4,2,49,12.0250340136054,19,30,11,1,0.926309828995727,1,0.0767411870037904
4,2,50,11.2471655328798,19,27,8,1,1.1768384189927,-1,0.0167704529885668
4,2,51,10.6405442176871,19,25,6,2,0.225090876003378,-1,0.0161065949941985
4,2,52,11.7304308390023,19,28,9,3,1.17265214900544,1,1.29772983999283
4,2,53,14.962358276644,19,36,17,3,0.345377498990274,1,1.97279456000251
4,2,54,6.54947845804989,19,17,-2,2,0.480289575993083,-1,0.0169315639941487
4,2,55,9.88444444444444,19,26,7,2,0.441564598004334,-1,0.522292199995718
4,2,56,12.1570975056689,19,29,10,2,1.07584567498998,1,0.0167004639952211
4,2,57,10.507029478458,19,26,7,2,1.08430526900338,-1,0.33120176999364
4,2,58,5.91238095238095,19,15,-4,1,0.451134898001328,-1,0.0163005710055586
4,2,59,8.90920634920635,19,21,2,2,0.824221028000466,1,0.0167828209960135
4,2,60,10.9975510204082,19,26,7,2,0.451639032995445,1,0.0167046569986269
4,2,61,6.64816326530612,19,17,-2,1,0.610189936996903,-1,0.0158415010082535
4,2,62,7.95718820861678,19,21,2,2,0.837709109997377,1,0.158995421996224
4,3,1,5.84707482993197,11,14,3,2,0.459432197996648,1,0.404589781988761
4,3,2,5.59310657596372,11,16,5,2,0.489934201003052,1,0.0161146430036752
4,3,3,5.51183673469388,11,14,3,3,0.401316827992559,1,0.0162082399911014
4,3,4,5.25351473922902,11,13,2,3,0.46252442599507,1,0.0169565579999471
4,3,5,6.34049886621315,11,15,4,3,0.338882217998616,1,0.0169582480011741
4,3,6,6.09959183673469,11,15,4,2,0.627173995002522,1,0.0169163560058223
4,3,7,4.85297052154195,11,12,1,2,0.627571204997366,1,0.228933564008912
4,3,8,2.19718820861678,11,6,-5,1,0.68276382300246,-1,0.0160941510112025
4,3,9,4.81959183673469,11,12,1,2,0.838612813007785,-1,0.167837993998546
4,3,10,7.01678004535147,11,18,7,1,1.27492870698916,1,0.162873281995417
4,3,11,5.41460317460317,11,14,3,2,0.436231968007633,-1,0.0161148019979009
4,3,12,5.88480725623583,11,14,3,3,0.456164454008103,1,0.01674269499199
4,3,13,6.32308390022676,11,17,6,2,0.793623917008517,1,0.0164296750008361
4,3,14,7.27219954648526,11,18,7,3,0.473332035006024,1,0.0168271540023852
4,3,15,6.57269841269841,11,16,5,1,1.3357233429997,1,0.110137529001804
4,3,16,6.1881179138322,11,15,4,1,1.69998701401346,-1,0.015859424995142
4,3,17,6.9471201814059,11,17,6,1,1.45639593400119,-1,0.0160625249991426
4,3,18,9.47519274376417,11,23,12,3,0.501273677989957,1,0.0162952509999741
4,3,19,7.41297052154195,11,18,7,3,0.494758158005425,1,0.365487367002061
4,3,20,6.70331065759637,11,17,6,3,1.34229757300636,1,0.362034089994268
4,3,21,7.86575963718821,11,17,6,2,0.713323110001511,-1,0.767983267011005
4,3,22,6.21859410430839,11,16,5,2,0.279988783993758,-1,0.0475336010131286
4,3,23,2.361179138322,11,6,-5,1,0.341002689005109,-1,0.0162670519930543
4,3,24,8.25759637188209,11,20,9,1,1.13851564099605,1,0.0714601100044092
4,3,25,7.34766439909297,11,17,6,2,0.740269874993828,1,0.506275528998231
4,3,26,8.45061224489796,11,21,10,1,0.67468539699621,1,0.659443400989403
4,3,27,8.23437641723356,11,19,8,2,0.436640622006962,-1,0.0165580640023109
4,3,28,3.50766439909297,11,9,-2,1,0.61240338999778,-1,0.0162245510000503
4,3,29,5.88916099773243,11,15,4,2,0.556932320003398,-1,0.14363311699708
4,3,30,6.51755102040816,11,15,4,2,0.844474628000171,1,0.0304993059980916
4,3,31,7.59582766439909,11,18,7,1,0.541405439988011,1,0.19544797600247
4,3,32,6.01977324263039,11,14,3,3,0.673062254994875,-1,0.248293077995186
4,3,33,6.16054421768707,11,15,4,2,1.21996776000015,1,0.300627650009119
4,3,34,4.80798185941043,11,13,2,1,2.28870063999784,1,0.229833478995715
4,3,35,6.05315192743764,11,15,4,1,2.5653874540003,-1,0.0167517049994785
4,3,36,6.11845804988662,11,15,4,1,0.90098312900227,1,0.218623492008192
4,3,37,9.30829931972789,11,21,10,1,1.24211032499443,1,0.0967843329999596
4,3,38,2.90684807256236,11,8,-3,1,0.459862711999449,-1,0.0169001229951391
4,3,39,3.55555555555556,11,10,-1,3,0.586625714000547,1,0.0160524620005162
4,3,40,2.8734693877551,11,9,-2,3,1.41147540499514,-1,0.0780671749962494
4,3,41,4.58884353741497,11,11,0,3,0.87734684899624,1,0.116858487002901
4,3,42,3.79646258503401,11,9,-2,2,1.18171187600819,1,0.840658271001303
4,3,43,9.54049886621315,11,24,13,1,1.26724905299488,1,0.130870891007362
4,3,44,5.12580498866213,11,12,1,3,0.835311144997831,1,0.0161985799932154
4,3,45,4.71800453514739,11,12,1,3,0.54242807799892,-1,0.0590404240065254
4,3,46,5.50893424036281,11,13,2,2,0.810252502997173,-1,0.0687181090033846
4,3,47,5.26077097505669,11,12,1,3,0.418531984003494,1,0.016238770011114
4,3,48,4.44371882086168,11,11,0,2,0.719720366003457,-1,0.015837102997466
4,3,49,5.00825396825397,11,13,2,1,0.527174167000339,-1,0.0160384769988013
4,3,50,7.41006802721088,11,20,9,2,0.769126687999233,1,0.0159529800002929
4,3,51,5.89496598639456,11,16,5,3,1.63197177000984,-1,0.13592743499612
4,3,52,2.11736961451247,11,7,-4,1,0.146919478997006,-1,1.40939548499591
4,3,53,5.46684807256236,11,13,2,2,0.248672645990155,1,0.0356406100036111
4,3,54,5.5437641723356,11,15,4,3,0.26887990499381,1,0.0167818659974728
4,3,55,2.59047619047619,11,8,-3,2,0.256892593009979,-1,0.0166636110079708
4,3,56,5.79482993197279,11,15,4,2,0.188068251998629,1,0.0406818150077015
4,3,57,6.31292517006803,11,16,5,2,0.183582092999131,-1,0.586629869008902
4,3,58,6.60607709750567,11,16,5,3,0.297062101992196,1,0.0412479399965378
4,3,59,5.23609977324263,11,14,3,1,0.254710008986876,-1,0.239455238988739
4,3,60,4.29424036281179,11,12,1,1,0.148935022996739,-1,0.0158646700001555
4,3,61,4.30585034013605,11,9,-2,2,0.472970511997119,-1,0.0168391659972258
4,3,62,4.68462585034014,11,11,0,2,0.586466123000719,1,0.051797013002215
4,3,63,4.40888888888889,11,12,1,2,0.312941647993284,1,0.0166427030053455
4,3,64,6.22004535147392,11,15,4,1,0.247900322996429,1,0.119308612993336
4,3,65,3.2928798185941,11,9,-2,1,0.560105229989858,-1,0.0161495680076769
4,3,66,4.86167800453515,11,13,2,2,0.489149636996444,1,0.0251952279941179
4,3,67,6.58140589569161,11,16,5,3,0.326356434001355,1,0.016810979010188
4,3,68,2.71528344671202,11,7,-4,1,1.0821580060001,-1,0.472967043999233
4,3,69,6.8368253968254,11,17,6,2,1.46105061899289,1,0.0821223719976842
4,3,70,6.50448979591837,11,17,6,1,0.47823898299248,1,0.0861054289998719
4,3,71,6.97179138321995,11,17,6,1,0.804814771996462,-1,0.0160957139887614
4,3,72,6.07201814058957,11,16,5,2,0.392624299987801,1,0.0160570769949118
4,3,73,6.54512471655329,11,17,6,3,0.344230581002194,1,0.0166021610057214
4,3,74,8.35337868480726,11,22,11,3,1.56311313899641,1,0.0165137840085663
4,3,75,3.56716553287982,11,9,-2,1,0.115968711994356,-1,0.0168971020029858
4,3,76,7.06467120181406,11,18,7,1,0.177114179998171,-1,0.0166324750025524
4,3,77,5.54956916099773,11,15,4,2,0.175043679002556,1,0.016053326005931
4,3,78,6.15038548752834,11,15,4,2,0.148693998009549,1,0.0165287039999384
4,3,79,6.52335600907029,11,16,5,3,0.461109782001586,1,0.0163903170032427
4,3,80,5.53070294784581,11,14,3,2,0.677381429995876,1,0.0161702600016724
4,3,81,5.54521541950113,11,13,2,1,0.686052878998453,-1,0.0166885429935064
4,3,82,4.18829931972789,11,11,0,2,0.538516710992553,1,0.0164940489921719
4,3,83,2.91265306122449,11,7,-4,1,0.477750632009702,-1,0.0164541900012409
4,3,84,4.41614512471655,11,11,0,2,0.57421081099892,-1,0.0167066120047821
4,3,85,5.64244897959184,11,15,4,2,0.587715901012416,1,0.0167661489977036
4,3,86,5.40299319727891,11,14,3,3,0.415629046008689,1,0.0167621430009604
4,3,87,5.06340136054422,11,13,2,1,0.473839215002954,-1,0.0169800880103139
4,4,1,8.02104308390023,19,22,3,2,0.281601446011337,-1,0.0169280569971306
4,4,2,9.15301587301587,19,22,3,2,1.06309769199288,1,0.0166704470029799
4,4,3,8.74231292517007,19,21,2,1,0.541191664000507,1,0.154438211000524
4,4,4,8.96,19,22,3,2,0.518488468005671,-1,0.0162400570116006
4,4,5,7.69886621315193,19,19,0,2,0.251660681999056,-1,0.0169980070058955
4,4,6,6.98920634920635,19,18,-1,3,0.226694299999508,1,0.0160291299980599
4,4,7,6.6249433106576,19,17,-2,3,0.636238944993238,1,0.0164917049987707
4,4,8,3.61215419501134,19,9,-10,2,1.00035303599725,-1,0.0167710840032669
4,4,9,9.00934240362812,19,23,4,2,0.603459240010125,-1,0.016595259992755
4,4,10,7.55664399092971,19,20,1,3,0.891041509996285,1,0.347152125992579
4,4,11,6.32598639455782,19,17,-2,3,0.488846029998967,1,0.0159305449924432
4,4,12,6.44353741496599,19,16,-3,3,0.533412677003071,-1,1.32128031400498
4,4,13,10.0136054421769,19,25,6,3,0.320223014001385,-1,0.126835415008827
4,4,14,10.283537414966,19,27,8,1,1.09355103300186,-1,0.0162349999882281
4,4,15,10.0571428571429,19,25,6,3,0.493583724004566,1,0.390655574999982
4,4,16,6.59156462585034,19,17,-2,1,0.790721515993937,1,0.121266422996996
4,4,17,11.2703854875283,19,31,12,2,0.467110330006108,1,0.130488712005899
4,4,18,8.05442176870748,19,21,2,2,0.605105641006958,-1,0.0803428939980222
4,4,19,8.2184126984127,19,20,1,2,0.682612753997091,1,0.0161250189994462
4,4,20,11.1963718820862,19,27,8,2,0.353044200004661,1,0.0161003270040965
4,4,21,9.94104308390023,19,24,5,2,0.758968766996986,-1,0.0163091080030426
4,4,22,7.16190476190476,19,17,-2,3,0.767361853999319,1,0.0167580740089761
4,4,23,7.66984126984127,19,20,1,3,0.595814883010462,-1,0.0170146570017096
4,4,24,10.4591383219955,19,26,7,2,0.35280977000366,1,0.0165012540091993
4,4,25,4.97487528344671,19,13,-6,1,0.397114398001577,-1,1.58461940700363
4,4,26,9.02820861678005,19,22,3,2,0.600096941998345,1,0.016681762994267
4,4,27,8.76988662131519,19,22,3,2,0.347154725997825,-1,0.0159709599975031
4,4,28,8.24598639455782,19,21,2,2,0.672292303002905,1,0.0167604580055922
4,4,29,12.3501133786848,19,30,11,3,0.386693508000462,1,0.0165050780051388
4,4,30,6.6118820861678,19,17,-2,1,0.307761321004364,-1,0.0169663289998425
4,4,31,12.070022675737,19,30,11,3,0.500218269997276,-1,0.0168131569953403
4,4,32,8.49850340136054,19,21,2,1,1.29069947499374,1,0.0586893410072662
4,4,33,8.24163265306122,19,21,2,3,0.715410037999391,1,0.0158652800018899
4,4,34,7.3491156462585,19,17,-2,1,0.468562687994563,-1,1.06206135998946
4,4,35,9.47809523809524,19,22,3,2,0.375946055006352,1,0.0168537760036997
4,4,36,6.17360544217687,19,16,-3,2,0.384306231004302,-1,1.07582989000366
4,4,37,12.1962811791383,19,32,13,2,0.399567818996729,1,0.0168746019917307
4,4,38,9.76834467120181,19,25,6,1,0.423038433000329,1,0.0397903369885171
4,4,39,11.3545578231293,19,27,8,1,0.518100176006556,-1,0.0162792940100189
4,4,40,7.32154195011338,19,20,1,1,0.351785031001782,1,0.0167321729968535
4,4,41,9.52598639455782,19,25,6,2,0.81820056399738,1,0.347629878000589
4,4,42,7.47972789115646,19,18,-1,2,0.473125101998448,-1,0.0169580150104593
4,4,43,7.20834467120181,19,20,1,3,0.38694897100504,1,0.016050597987487
4,4,44,7.87591836734694,19,19,0,3,0.567755611002212,-1,0.108494724001503
4,4,45,6.86294784580499,19,17,-2,2,0.463408069001161,1,0.263215252998634
4,4,46,8.72489795918367,19,21,2,2,0.300434324992239,1,0.0167403179948451
4,4,47,9.09931972789116,19,24,5,1,0.418441404995974,-1,0.0854674440051895
4,4,48,8.30548752834467,19,19,0,2,0.827331157008302,-1,0.0161946119915228
4,4,49,10.084716553288,19,25,6,2,0.84748293699522,1,0.016363023998565
4,4,50,14.1830385487528,19,36,17,1,0.70081991898769,1,0.0518328129983274
4,4,51,4.49596371882086,19,11,-8,1,0.395360645998153,-1,0.0160300790012116
4,4,52,10.9220861678005,19,27,8,2,0.380184017005377,1,0.0159814060025383
4,4,53,8.57396825396825,19,22,3,2,0.566290178001509,1,0.163016072998289
4,4,54,7.08934240362812,19,18,-1,2,0.551833885998349,1,0.0161506559961708
4,4,55,7.36507936507936,19,18,-1,3,0.51173084799666,1,0.01703023200389
4,4,56,6.67863945578231,19,18,-1,3,0.470932834999985,1,0.0168724929972086
4,4,57,7.86575963718821,19,19,0,2,0.516708601993741,-1,0.0820530409982894
4,4,58,9.35909297052154,19,22,3,2,0.355284174002009,-1,0.0160417970037088
4,4,59,7.9978231292517,19,21,2,3,0.19152882299386,-1,1.25952386599965
4,4,60,6.26938775510204,19,16,-3,1,0.361746426991886,-1,0.016504671992152
4,4,61,10.8001814058957,19,29,10,2,0.36600255301164,-1,0.0161433239991311
4,4,62,8.91065759637188,19,21,2,2,0.18219750400749,1,0.0873819739936152
4,4,63,6.09959183673469,19,16,-3,2,0.330098929000087,-1,0.0163385400082916
4,4,64,8.37659863945578,19,22,3,2,0.467212370000198,-1,1.15438301100221
4,4,65,8.31274376417234,19,19,0,3,0.655639430013252,1,0.0382795170007739
4,4,66,9.24009070294785,19,23,4,2,0.430933730996912,-1,0.0163816629938083
4,4,67,12.2760997732426,19,30,11,2,0.264064467002754,1,0.0160556540067773
5,1,1,7.07192743764172,19,19,0,3,2.4597925709968,1,1.514798624994
5,1,2,7.85850340136054,19,19,0,2,1.64747377199819,1,0.903447154007154
5,1,3,7.74095238095238,19,20,1,2,3.2791976229928,1,1.46242542199616
5,1,4,7.97750566893424,19,21,2,1,2.56559793199995,1,1.3588788999914
5,1,5,8.14149659863946,19,20,1,2,2.15652261799551,1,1.68633389899333
5,1,6,7.69160997732426,19,20,1,1,1.08864543899836,1,1.38901263099979
5,1,7,7.94702947845805,19,19,0,1,1.83636950601067,-1,1.89851620800619
5,1,8,8.24888888888889,19,21,2,1,1.7930633740034,1,0.94598197400046
5,1,9,9.91927437641723,19,26,7,1,1.3707868019992,1,1.1900174140028
5,1,10,8.22857142857143,19,22,3,1,1.8985791340092,-1,1.59239030000754
5,1,11,9.41859410430839,19,24,5,2,2.5396579340013,-1,4.75708299101098
5,1,12,9.36780045351474,19,25,6,2,1.77129281299131,1,1.14181695599109
5,1,13,8.76988662131519,19,23,4,1,2.53133741299098,-1,0.464425073005259
5,1,14,7.66548752834467,19,19,0,2,3.13090726399969,-1,1.22095342700777
5,1,15,8.20390022675737,19,19,0,2,1.06428457400762,1,2.3616929359996
5,1,16,8.15455782312925,19,20,1,2,3.11811169299472,-1,1.25792830900173
5,1,17,8.32290249433107,19,21,2,1,3.47005782999622,-1,1.27585865699803
5,1,18,10.6434467120181,19,26,7,1,0.86928715200338,1,0.821384978000424
5,1,19,10.1732426303855,19,24,5,1,2.39555817899236,1,1.24452914600261
5,1,20,10.2196825396825,19,24,5,1,1.13167943400913,1,1.97517701100151
5,1,21,7.22721088435374,19,19,0,2,2.99912122399837,1,1.23246659598954
5,1,22,10.507029478458,19,26,7,1,2.21097564999945,-1,0.709950418997323
5,1,23,10.1863038548753,19,24,5,1,2.61898666799243,1,1.31529066700023
5,1,24,9.36344671201814,19,22,3,1,1.28627158299787,1,2.41151808900759
5,1,25,8.61460317460318,19,21,2,2,1.33428312400065,1,1.07498032900912
5,1,26,8.0065306122449,19,20,1,2,3.23702715500258,1,2.04542774100264
5,1,27,7.33024943310658,19,19,0,2,4.70353679799882,-1,0.952211483003339
5,1,28,8.31854875283447,19,22,3,2,2.04483496399189,1,0.962733569002012
5,1,29,9.05578231292517,19,24,5,1,2.65727375500137,1,1.605883739001
5,1,30,8.47238095238095,19,20,1,1,2.94400120200589,-1,0.402186146005988
5,1,31,9.10512471655329,19,23,4,2,1.4700169100106,-1,0.348261712992098
5,1,32,8.83229024943311,19,24,5,1,1.8712212399987,-1,0.558219769998686
5,1,33,10.2907936507937,19,25,6,2,1.54058817899204,1,1.52111119999608
5,1,34,9.12399092970522,19,22,3,2,1.37643513799412,-1,0.442993000004208
5,1,35,9.96861678004535,19,23,4,1,1.96099156400305,-1,3.92426671799331
5,1,36,9.42585034013605,19,24,5,2,2.2227945390041,-1,1.6945322429965
5,1,37,9.65659863945578,19,22,3,2,3.6318493969884,1,0.902258877002168
5,1,38,7.99492063492063,19,21,2,1,1.97836756700417,-1,0.348085136007285
5,1,39,9.2691156462585,19,23,4,1,1.05102053598966,-1,1.20339399800287
5,1,40,9.6885260770975,19,23,4,2,1.69436101400061,1,2.35614021299989
5,1,41,9.1631746031746,19,22,3,1,2.40609807000146,-1,0.678198920999421
5,1,42,9.01659863945578,19,23,4,1,1.21235620899824,1,0.350699040005566
5,1,43,10.550566893424,19,26,7,1,1.09169356001075,1,2.87432869899203
5,1,44,11.4793650793651,19,29,10,2,3.33825380500639,1,0.588097985004424
5,1,45,8.91646258503401,19,24,5,2,2.47944218599878,1,1.44515469600447
5,1,46,8.68571428571429,19,23,4,1,1.62641579400224,-1,0.299682115000905
5,1,47,9.39827664399093,19,22,3,1,2.21828426800494,1,1.35430309899675
5,1,48,8.69877551020408,19,20,1,2,1.64651499400497,1,0.542663895001169
5,1,49,9.68562358276644,19,24,5,1,1.48657347299741,1,0.420474040001864
5,1,50,10.2298412698413,19,25,6,2,1.38226758000383,1,1.48793942100019
5,1,51,10.8379138321995,19,28,9,2,1.35980605299119,1,0.491388264999841
5,1,52,9.54630385487528,19,22,3,2,0.883643859997392,1,1.17189838699414
5,2,1,5.04453514739229,11,13,2,2,2.71314354799688,1,1.09356294899771
5,2,2,4.71510204081633,11,12,1,2,1.40116266500263,-1,0.498223804999725
5,2,3,3.76598639455782,11,10,-1,2,1.30562564000138,-1,0.329705616997671
5,2,4,4.81668934240363,11,13,2,2,0.516057027998613,1,1.04995779800811
5,2,5,5.31591836734694,11,13,2,2,1.5483176199923,1,0.357201658989652
5,2,6,5.06049886621315,11,13,2,2,2.13512394099962,1,1.83680737898976
5,2,7,5.16934240362812,11,13,2,2,1.11925702600274,-1,0.371105981001165
5,2,8,5.05469387755102,11,13,2,2,1.1704103009979,1,1.43872370199824
5,2,9,5.20272108843537,11,13,2,2,1.35623589699389,1,0.519814717001282
5,2,10,4.87473922902494,11,13,2,3,3.03988599999866,1,0.980866312995204
5,2,11,4.1708843537415,11,11,0,3,2.31226026899822,1,1.30902127499576
5,2,12,3.98802721088435,11,11,0,3,2.11939782400441,1,1.15547893301118
5,2,13,4.78766439909297,11,12,1,3,1.59776974699344,-1,1.65469023899641
5,2,14,5.1156462585034,11,12,1,2,1.36849727400113,1,0.900130681999144
5,2,15,4.65414965986395,11,12,1,3,0.821783999999752,1,0.638690359002794
5,2,16,4.77315192743764,11,11,0,2,1.2712159990042,-1,0.982868817009148
5,2,17,5.20417233560091,11,12,1,3,2.25994323600025,1,0.48374098399654
5,2,18,4.42485260770975,11,10,-1,2,2.90147834699019,-1,0.50684528099373
5,2,19,4.50612244897959,11,12,1,2,1.38336764299311,1,1.15370965600596
5,2,20,4.85297052154195,11,12,1,2,2.66595445699932,1,2.3364567749959
5,2,21,5.6584126984127,11,14,3,2,1.27540336200036,-1,1.20294298199588
5,2,22,4.76734693877551,11,12,1,2,3.07063945000118,1,0.827678059999016
5,2,23,4.94585034013605,11,13,2,2,0.843154729998787,1,1.30685287399683
5,2,24,4.73832199546485,11,11,0,2,1.04272806500376,1,0.39562418499554
5,2,25,4.7847619047619,11,12,1,2,0.772220547005418,1,0.365888076004921
5,2,26,4.28408163265306,11,12,1,2,1.61339932600094,1,0.455096028992557
5,2,27,4.17233560090703,11,11,0,2,1.3106568850053,-1,0.274971371996799
5,2,28,4.29569160997732,11,12,1,2,1.26706858200487,-1,0.275027397001395
5,2,29,4.17668934240363,11,10,-1,1,1.63547548999486,-1,0.291511100993375
5,2,30,5.10403628117914,11,13,2,2,0.599025356990751,-1,0.281948531992384
5,2,31,4.41469387755102,11,12,1,1,1.17991084999812,1,0.341168668004684
5,2,32,5.04308390022676,11,12,1,1,0.831480382010341,-1,0.647187030001078
5,2,33,5.23609977324263,11,13,2,1,1.21892628900241,1,0.941239655003301
5,2,34,6.04154195011338,11,15,4,1,1.29001974601124,1,0.705016943989904
5,2,35,4.83555555555556,11,14,3,1,1.225445226999,1,0.570069804991363
5,2,36,4.44371882086168,11,11,0,3,1.32566366500396,-1,1.62487252500432
5,2,37,4.49741496598639,11,12,1,3,0.0157602849940304,1,2.04648121399805
5,2,38,4.23473922902494,11,11,0,3,1.77619147200312,-1,1.47363252399373
5,2,39,4.35954648526077,11,11,0,3,1.4698045670084,-1,0.357790321999346
5,2,40,4.32471655328798,11,11,0,3,0.665018523010076,-1,0.264412064992939
5,2,41,4.86748299319728,11,12,1,3,1.69734469198738,-1,0.413472646992886
5,2,42,5.2128798185941,11,12,1,1,1.42027368900017,-1,0.766692714008968
5,2,43,4.45532879818594,11,11,0,3,0.87352682701021,1,1.2163581999921
5,2,44,4.96326530612245,11,12,1,3,1.39817002300697,1,0.719198514998425
5,2,45,4.97487528344671,11,13,2,2,1.29632263000531,1,0.479692972003249
5,2,46,5.70340136054422,11,14,3,3,1.02498732000822,1,0.643521599995438
5,2,47,3.93868480725624,11,10,-1,3,1.44110461500532,1,0.842492838011822
5,2,48,5.52925170068027,11,14,3,2,1.4971149500052,1,0.780884690000676
5,2,49,5.07791383219955,11,13,2,2,0.948839988996042,1,0.433095423999475
5,2,50,4.0518820861678,11,11,0,3,1.24376014700101,-1,0.227309402005631
5,2,51,5.27673469387755,11,14,3,2,1.43376253399765,1,0.288041840001824
5,2,52,4.6831746031746,11,12,1,2,1.66028561499843,1,0.345162154990248
5,2,53,4.78621315192744,11,13,2,2,0.927405751994229,1,0.668618146999506
5,2,54,4.54530612244898,11,11,0,2,2.05142884599627,-1,0.0406828650011448
5,2,55,5.22448979591837,11,12,1,1,0.526271035007085,-1,1.12384785700124
5,2,56,5.00244897959184,11,15,4,2,1.67113330999564,-1,1.10983403600403
5,2,57,5.28979591836735,11,13,2,1,1.63768978399457,1,0.349148143999628
5,2,58,4.61351473922902,11,12,1,1,1.25222756300354,1,0.46955964701192
5,2,59,4.85442176870748,11,13,2,2,1.22594001700054,1,0.832795137001085
5,2,60,4.67736961451247,11,12,1,2,1.2521978559962,-1,0.275719530007336
5,2,61,5.02421768707483,11,13,2,1,0.950185488996794,-1,0.395139964006376
5,2,62,4.99954648526077,11,12,1,2,1.23666669499653,1,0.845948799003963
5,2,63,5.21578231292517,11,13,2,1,1.1457804840029,1,0.397543988001416
5,2,64,4.08961451247166,11,12,1,2,2.04132666700752,1,0.633457514006295
5,2,65,5.21578231292517,11,13,2,2,1.58369425000274,-1,1.14580959000159
5,2,66,4.29133786848073,11,12,1,2,1.23886693999521,1,0.430296670005191
5,2,67,5.33043083900227,11,13,2,2,1.05114467800013,1,0.32977916499658
5,2,68,4.49886621315193,11,11,0,3,1.25894148000225,1,0.540462138000294
5,2,69,4.59755102040816,11,11,0,3,0.639039435001905,1,0.345425829000305
5,2,70,4.08816326530612,11,12,1,3,0.74237004799943,1,0.858033676006016
5,2,71,5.16498866213152,11,12,1,3,0.840389769000467,1,0.328448833999573
5,2,72,5.18965986394558,11,13,2,3,1.1517747730104,1,0.66813038600958
5,2,73,5.09532879818594,11,13,2,1,1.16531757899793,1,0.496712328007561
5,2,74,5.56843537414966,11,14,3,3,0.848051441993448,1,2.1600427289959
5,2,75,6.11990929705215,11,16,5,1,0.830548604004434,1,0.310779958002968
5,2,76,4.35229024943311,11,11,0,2,0.754685799998697,1,3.18489833599597
5,2,77,4.94149659863946,11,11,0,2,1.56226282499847,-1,0.821905103002791
5,2,78,5.40879818594104,11,13,2,3,1.09858383199025,1,0.904399736013147
5,2,79,4.45968253968254,11,12,1,3,1.04594717499276,1,2.4793518630031
5,2,80,5.11854875283447,11,12,1,2,0.695448195008794,1,0.671723954990739
5,2,81,5.19256235827664,11,12,1,2,0.664750088006258,1,0.559263723000186
5,2,82,5.15918367346939,11,13,2,2,2.85080847499194,-1,1.96740908599168
5,3,1,8.47528344671202,19,21,2,2,1.70986991199607,1,0.963312820997089
5,3,2,9.37650793650794,19,23,4,2,0.957051585995941,1,0.311717128992314
5,3,3,9.13124716553288,19,23,4,1,0.944935884006554,1,1.62078467900574
5,3,4,11.9524716553288,19,30,11,1,0.400962749001337,1,0.403972767002415
5,3,5,8.83954648526077,19,22,3,1,1.53680647499277,1,0.307534368010238
5,3,6,10.2690249433107,19,26,7,1,2.85897523698804,1,0.416890276988852
5,3,7,9.83365079365079,19,25,6,1,1.17411459899449,1,0.290251635000459
5,3,8,7.56825396825397,19,18,-1,2,1.1306165450078,1,0.319553192995954
5,3,9,7.57696145124717,19,19,0,2,0.821282024990069,1,0.512598441986484
5,3,10,8.91065759637188,19,24,5,1,0.715815999006736,1,1.1386088750005
5,3,11,9.89460317460317,19,24,5,1,1.39016778199584,1,0.257829878988559
5,3,12,7.9934693877551,19,20,1,1,1.77487090199429,1,0.714407920007943
5,3,13,8.92952380952381,19,22,3,2,1.83545232200413,1,0.618799709001905
5,3,14,8.32,19,23,4,1,1.7707642299938,1,1.14970722400176
5,3,15,9.31265306122449,19,23,4,2,0.803327831992647,1,0.32451507699443
5,3,16,9.21251700680272,19,23,4,1,0.743463293008972,1,1.51712871498603
5,3,17,7.3578231292517,19,19,0,2,1.23367875200347,1,2.71427719701023
5,3,18,9.00353741496599,19,22,3,2,2.39068888699694,1,0.792676005992689
5,3,19,8.37804988662132,19,20,1,2,1.80845989100635,-1,0.268029626997304
5,3,20,9.26621315192744,19,25,6,1,2.05139923900424,1,0.337710588006303
5,3,21,10.373514739229,19,26,7,1,0.908116029997473,1,0.514106043003267
5,3,22,8.46802721088435,19,19,0,1,1.02769433001231,1,0.380604524994851
5,3,23,7.99637188208617,19,21,2,1,0.787966247997247,1,0.910599013004685
5,3,24,7.05886621315193,19,20,1,1,0.808101330010686,1,0.531449009999051
5,3,25,6.07927437641723,19,15,-4,1,1.15088348501013,-1,0.562488326992025
5,3,26,7.9978231292517,19,18,-1,1,0.677803350990871,-1,1.0533034849941
5,3,27,9.21687074829932,19,25,6,1,2.18748146000144,1,0.243252125001163
5,3,28,14.4021768707483,19,34,15,1,0.333778038009768,1,0.243701191007858
5,3,29,8.98031746031746,19,23,4,1,0.412629362996086,1,0.479522145004012
5,3,30,9.52308390022676,19,23,4,1,2.20407069299836,1,0.253126056995825
5,3,31,7.70467120181406,19,20,1,1,1.06786513800034,1,0.242780455009779
5,3,32,5.92834467120181,19,16,-3,1,0.911282952001784,1,0.268398214000626
5,3,33,11.1151020408163,19,29,10,2,1.70520904099976,1,0.357015441011754
5,3,34,8.57687074829932,19,22,3,1,2.95190175400057,1,0.993874609004706
5,3,35,10.2603174603175,19,24,5,3,2.37073362299998,1,0.539802352010156
5,3,36,9.379410430839,19,24,5,1,2.11252846400021,1,0.510071305005113
5,3,37,8.33015873015873,19,21,2,2,1.48878536000848,1,0.284979778996785
5,3,38,8.15891156462585,19,20,1,3,1.39371364700492,1,0.460959599993657
5,3,39,8.50866213151927,19,21,2,1,0.581406049008365,1,0.426380545992288
5,3,40,9.44471655328798,19,22,3,1,0.383642205997603,-1,0.334017075991142
5,3,41,10.1674376417234,19,24,5,1,1.04181247499946,-1,0.449997463001637
5,3,42,8.55510204081633,19,21,2,2,1.29767808200268,1,0.20621718998882
5,3,43,8.49414965986394,19,21,2,1,0.614714538998669,1,1.23298506399442
5,3,44,6.55963718820862,19,16,-3,1,0.997508631000528,-1,0.0888963850011351
5,3,45,9.54195011337868,19,23,4,1,1.29170230698946,-1,3.01003434900485
5,3,46,9.12253968253968,19,21,2,2,0.884578609999153,1,0.267530410987092
5,3,47,8.29387755102041,19,20,1,1,1.7023153110058,1,0.595137598997098
5,3,48,12.1135600907029,19,30,11,2,1.00066986400634,1,0.306388215001789
5,3,49,8.05297052154195,19,21,2,2,0.988111662998563,-1,0.108532778001972
5,3,50,8.13133786848073,19,19,0,3,0.778946874997928,1,0.269691458001034
5,3,51,8.8627664399093,19,21,2,1,2.63801381799567,1,0.780287031986518
5,3,52,9.77560090702948,19,23,4,1,1.15079241299827,1,0.658945176997804
5,3,53,10.2429024943311,19,26,7,1,1.50129544800438,1,1.14882263400068
5,3,54,10.4489795918367,19,25,6,1,1.44394642100087,-1,0.619836856989423
5,3,55,14.0422675736961,19,35,16,1,0.409122453012969,1,0.140139519993681
5,3,56,7.55664399092971,19,19,0,2,1.17928626699722,-1,1.1679907390062
5,3,57,8.47673469387755,19,20,1,2,0.452197949998663,-1,0.90852546300448
5,3,58,9.88589569160998,19,25,6,1,1.94896153300942,-1,1.18311095998797
5,4,1,4.22458049886621,11,11,0,2,1.51290644300752,-1,0.301181472997996
5,4,2,4.34793650793651,11,11,0,3,0.430062069004634,1,1.27889434499957
5,4,3,4.13750566893424,11,11,0,3,1.65088827999716,-1,0.186452727997676
5,4,4,4.40743764172336,11,12,1,2,0.945502620990737,1,0.293519029990421
5,4,5,4.51918367346939,11,11,0,2,0.99641491699731,-1,0.902715649994207
5,4,6,4.41904761904762,11,12,1,3,1.03757969501021,1,1.32497432699893
5,4,7,5.04308390022676,11,12,1,3,0.699644298991188,1,0.290321704000235
5,4,8,4.62657596371882,11,12,1,3,2.63316590900649,1,0.320100209006341
5,4,9,4.73541950113379,11,13,2,2,0.959635677994811,1,0.604586975998245
5,4,10,4.67156462585034,11,12,1,1,0.394711907007149,1,0.40565263699682
5,4,11,5.28253968253968,11,14,3,2,0.841799742003786,-1,0.939195354992989
5,4,12,4.7891156462585,11,11,0,3,0.494136378998519,1,0.453935245997855
5,4,13,5.28253968253968,11,12,1,2,2.44429958000546,1,0.237446376006119
5,4,14,4.45242630385488,11,12,1,1,0.645935260996339,-1,0.375210015001358
5,4,15,4.94875283446712,11,14,3,1,1.5556723089976,1,0.343066136003472
5,4,16,3.90675736961451,11,11,0,1,1.00312886098982,1,0.246827873997972
5,4,17,4.59174603174603,11,12,1,1,0.854098427997087,1,0.277343598994776
5,4,18,5.4465306122449,11,14,3,2,1.04835654399358,1,0.223691949999193
5,4,19,3.60199546485261,11,11,0,1,1.17682161800622,-1,0.27695701700577
5,4,20,4.27827664399093,11,11,0,2,0.632479690000764,-1,0.289044571996783
5,4,21,4.7934693877551,11,11,0,3,0.558658098001615,1,0.394989634995
5,4,22,4.51337868480726,11,11,0,3,0.951284956012387,1,0.452130883000791
5,4,23,4.3740589569161,11,11,0,3,0.549109939995105,1,0.0427971110038925
5,4,24,4.0518820861678,11,11,0,3,1.58271472199704,1,0.369866277003894
5,4,25,5.2259410430839,11,11,0,3,0.74337204900803,1,0.254001444991445
5,4,26,4.94439909297052,11,11,0,3,0.510801819007611,1,0.470134456001688
5,4,27,4.78621315192744,11,12,1,2,0.65515130100539,1,0.653259168000659
5,4,28,4.18684807256236,11,12,1,2,0.492770700991969,1,1.01987572500366
5,4,29,4.06204081632653,11,11,0,2,0.598970790000749,1,0.504261610010872
5,4,30,4.19555555555556,11,11,0,2,0.931374563006102,1,0.26485351199517
5,4,31,4.73541950113379,11,11,0,2,1.45807882399822,-1,0.034098346994142
5,4,32,4.32326530612245,11,12,1,2,0.550932113997987,-1,0.228779173005023
5,4,33,4.60190476190476,11,12,1,2,0.753746524991584,-1,0.214123514000676
5,4,34,4.59755102040816,11,12,1,3,1.03118607700162,1,0.152130910006235
5,4,35,4.70784580498866,11,12,1,2,2.02680139598669,1,0.603637420994346
5,4,36,5.13160997732426,11,12,1,2,0.801951615998405,1,0.276504816996749
5,4,37,4.9037641723356,11,11,0,2,0.833864255007938,-1,1.49115052100387
5,4,38,4.76299319727891,11,12,1,2,1.18457307000062,-1,1.26618383001187
5,4,39,5.20997732426304,11,13,2,2,1.36254771900713,1,0.341487983008847
5,4,40,4.10557823129252,11,10,-1,2,0.829669323007693,1,0.527580023001065
5,4,41,6.04299319727891,11,16,5,2,5.77368596900487,1,1.40440493400092
5,4,42,5.11274376417234,11,12,1,2,1.68321271399327,1,0.289408654003637
5,4,43,4.80507936507937,11,11,0,3,0.706835225006216,-1,0.864504099998157
5,4,44,4.13895691609977,11,11,0,3,1.00692334200721,1,0.567525195001508
