"Subj_idx","Stimulus","Response","RT_dec","Confidence","RT_conf","SOA","Accuracy","Trial"
1,1,1,1.17191500001354,1,1.95266000000993,48.6,1,1
1,2,2,2.1455100000021,0.59095437062105,2.79303000000073,48.6,1,2
1,1,1,1.41403500002343,0.787724270484216,2.50712999998359,43.74,1,3
1,2,2,1.3169399999897,1,1.71735499997158,43.74,1,4
1,2,2,1.49510499997996,1,3.3726650000317,39.366,1,5
1,1,1,1.00495500001125,0.939523978405376,2.21827499999199,39.366,1,6
1,1,1,1.22667500004172,0.931735959441747,2.74233499995898,35.4294,1,7
1,2,2,0.949070000031497,1,1.73557499999879,35.4294,1,8
1,2,2,1.00136499997461,1,2.33562500000698,31.88646,1,9
1,1,1,1.09453000000212,0.902949222475016,1.8327649999992,31.88646,1,10
1,2,2,0.961379999993369,0.997486708451714,2.72421000001486,28.697814,1,11
1,1,1,1.07706000003964,0.932747503458632,3.0631449999637,28.697814,1,12
1,1,1,1.08856000000378,1,2.33018999994965,25.8280326,1,13
1,2,2,0.941065000020899,0.95998123487076,1.68217499996535,25.8280326,1,14
1,1,1,0.862610000011045,1,2.75627999997232,23.24522934,1,15
1,2,2,0.89513000001898,1,1.88862499996321,23.24522934,1,16
1,1,1,1.22078500001226,0.721168778737819,2.50920000002952,20.920706406,1,17
1,2,2,0.983669999986887,0.986415047760997,1.62346999999136,20.920706406,1,18
1,1,1,0.869814999983646,1,1.57877500000177,18.8286357654,1,19
1,2,2,1.30508499999996,0.612122316458243,1.6558649999788,18.8286357654,1,20
1,2,2,1.04544499999611,1,1.72907000000123,16.94577218886,1,21
1,1,1,0.988910000014585,1,1.32058999995934,16.94577218886,1,22
1,2,2,0.946040000009816,1,2.35778000002028,15.251194969974,1,23
1,1,1,1.01807500002906,0.850270242625059,1.66250999999465,15.251194969974,1,24
1,2,2,1.16672999999719,1,1.48050000000512,13.7260754729766,1,25
1,1,1,1.02440499997465,1,1.68464500003029,13.7260754729766,1,26
1,1,1,0.99484499997925,0.879816080161422,1.97844999999506,12.3534679256789,1,27
1,2,2,0.764985000016168,1,1.53789999999572,12.3534679256789,1,28
1,1,1,0.910475000040606,1,1.58679500001017,11.1181211331111,1,29
1,2,2,0.799400000018068,1,3.15113999997266,11.1181211331111,1,30
1,1,1,0.96424499998102,0.918803329246226,1.91453500004718,10.0063090197999,1,31
1,2,2,0.784095000009984,1,1.45699500001501,10.0063090197999,1,32
1,2,2,1.05228000000352,1,2.47540499997558,9.00567811781995,1,33
1,1,1,0.736314999987371,0.952465454973103,1.86317999998573,9.00567811781995,1,34
1,1,1,0.904360000044107,1,1.54797499999404,8.10511030603796,1,35
1,2,2,0.820584999979474,1,2.37861000001431,8.10511030603796,1,36
1,2,2,1.03785000002244,1,2.28277499997057,7.29459927543416,1,37
1,1,1,0.807545000046957,1,1.90699499996845,7.29459927543416,1,38
1,1,1,0.880025000020396,1,1.45584499998949,6.56513934789075,1,39
1,2,2,0.919759999960661,1,2.05066000000807,6.56513934789075,1,40
1,2,2,0.974434999981895,0.950033399092868,1.8692850000225,5.90862541310167,1,41
1,1,1,0.85737500002142,0.945790795570327,1.87402499996824,5.90862541310167,1,42
1,2,2,1.01470500003779,1,2.00184499996249,5.3177628717915,1,43
1,1,1,0.835670000000391,1,1.47107500000857,5.3177628717915,1,44
1,2,2,1.21125500003109,0.821906862869782,1.58970499999123,4.78598658461235,1,45
1,1,1,0.937724999967031,1,1.50476000003982,4.78598658461235,1,46
1,1,1,0.857694999955129,1,1.48287500004517,4.30738792615112,1,47
1,2,2,0.739095000026282,1,1.65903999999864,4.30738792615112,1,48
1,2,2,0.819040000031237,1,1.96214999997756,3.87664913353601,1,49
1,1,1,0.720460000040475,1,2.08560499997111,3.87664913353601,1,50
1,1,1,0.833545000001322,1,1.80338499997742,3.48898422018241,1,51
1,2,2,0.755364999989979,1,1.86907499999506,3.48898422018241,1,52
1,1,1,0.766849999956321,0.941851613544351,2.02775500004645,3.14008579816417,1,53
1,2,1,1.31033499998739,0.891357839323734,1.82944500003941,3.14008579816417,0,54
1,2,1,1.98479999997653,0.904850248064133,4.03949500003364,3.48898422018241,0,55
1,1,1,1.38490999996429,0.937384121974378,1.96567000000505,3.87664913353601,1,56
1,2,2,0.730379999964498,0.892520582471231,1.87226000003284,3.87664913353601,1,57
1,1,1,1.07189500000095,0.98958650594203,1.83643500000471,3.48898422018241,1,58
1,2,2,0.809049999981653,0.946109564189259,1.8439200000139,3.48898422018241,1,59
1,1,1,0.975109999999404,0.976040558160758,3.04326000000583,3.14008579816417,1,60
1,1,1,0.908970000047702,0.97620598380587,1.46158499998273,3.14008579816417,1,61
1,2,1,1.61700500000734,0.877868431358265,2.20105999999214,2.82607721834775,0,62
1,1,1,0.915210000006482,0.892989781839989,2.33381999999983,3.14008579816417,1,63
1,2,1,1.36620500002755,1,1.98191999999108,3.14008579816417,0,64
1,1,1,0.973494999983814,0.876961280828707,1.61642500001471,3.48898422018241,1,65
1,2,2,0.793690000020433,1,1.85918500000844,3.48898422018241,1,66
1,2,2,1.18791000003694,1,1.54933000000892,3.14008579816417,1,67
1,1,1,0.789630000013858,1,2.48081999999704,3.14008579816417,1,68
1,1,1,0.900640000007115,1,1.52006999996956,2.82607721834775,1,69
1,2,2,0.751649999991059,1,1.4021950000315,2.82607721834775,1,70
1,2,2,1.16869000002043,1,1.65865499997744,2.54346949651297,1,71
1,1,1,0.797194999991916,1,1.50875499995891,2.54346949651297,1,72
1,2,2,0.787185000022873,1,1.50728000001982,2.28912254686168,1,73
1,1,1,0.817269999999553,1,2.2048450000002,2.28912254686168,1,74
1,2,2,1.5715799999889,0.889947377597889,1.83088500000304,2.06021029217551,1,75
1,1,1,0.854469999962021,1,1.55992500000866,2.06021029217551,1,76
1,2,2,0.751515000010841,1,2.09054000000469,1.85418926295796,1,77
1,1,1,0.88556000002427,0.987807492421405,1.55236499995226,1.85418926295796,1,78
1,2,2,0.818585000000894,1,1.86735499999486,1.66877033666216,1,79
1,1,1,0.841119999997318,0.954554820684396,1.60859000001801,1.66877033666216,1,80
1,1,1,0.791405000025406,1,1.71094999997877,1.50189330299595,1,81
1,2,2,0.726565000019036,1,1.39324000000488,1.50189330299595,1,82
1,2,2,0.801800000015646,1,1.35148499999195,1.35170397269635,1,83
1,1,1,0.734969999990426,1,2.36934999999357,1.35170397269635,1,84
1,1,1,0.982790000038221,1,1.45593499997631,1.21653357542672,1,85
1,2,2,0.783220000041183,1,1.68660499999532,1.21653357542672,1,86
1,2,2,0.902295000036247,1,1.4729749999824,1.09488021788405,1,87
1,1,1,1.57616499997675,0.893860588716202,2.176930000016,1.09488021788405,1,88
1,1,1,1.05698499997379,1,1.58153000002494,0.98539219609564,1,89
1,2,2,0.882500000006985,1,1.47310000000289,0.98539219609564,1,90
1,1,1,0.926490000041667,1,1.43635499995435,0.886852976486076,1,91
1,2,2,0.867790000047535,1,1.59088499995414,0.886852976486076,1,92
1,2,2,0.77581999998074,1,1.44237500004238,0.798167678837469,1,93
1,1,1,1.65536500001326,1,1.71386000001803,0.798167678837469,1,94
1,2,2,0.817810000036843,0.999230385504726,1.7499700000044,0.718350910953722,1,95
1,1,1,1.11690999998245,1,1.88810500002,0.718350910953722,1,96
2,2,1,0.950934999997116,0.57514420690932,1.77946499999962,48.6,0,1
2,1,1,0.524294999999256,0.944833929186322,2.70099000000118,54,1,2
2,1,1,0.495910000001459,1,1.49115999999776,54,1,3
2,2,1,0.951180000000022,0.629453957745834,2.78103499999997,48.6,0,4
2,2,1,2.03749500000049,0,2.48536999999851,54,0,5
2,1,1,0.557225000000471,0.87459890425819,1.85686999999962,60,1,6
2,2,1,0.634390000002895,0.286577254478547,1.62146999999823,60,0,7
2,1,1,1.27064500000051,0.386620101286803,1.74326500000097,66.6666666666667,1,8
2,1,1,0.697745000001305,0.455820963501817,1.42220999999699,66.6666666666667,1,9
2,2,1,0.810664999997243,0.053363334719128,1.90325000000303,60,0,10
2,2,1,1.5205649999989,0.215175438556211,1.28389500000048,66.6666666666667,0,11
2,1,1,0.944499999997788,0.259884628996345,1.63668999999936,74.0740740740741,1,12
2,2,2,0.999754999997094,0,1.56297500000073,74.0740740740741,1,13
2,1,1,0.887659999996686,0.335127814165746,1.40326000000277,66.6666666666667,1,14
2,2,2,0.723729999997886,0.134807233087871,1.62562500000058,66.6666666666667,1,15
2,1,1,0.665554999999586,0.394040912173486,1.49597500000164,60,1,16
2,2,2,0.675210000001243,1,3.24684999999954,60,1,17
2,1,1,0.521899999999732,0.928112416524247,1.90007999999943,54,1,18
2,1,1,0.534999999999854,0.921089305286976,1.95520500000202,54,1,19
2,2,2,0.575730000000476,0.377895488680398,2.1749149999996,48.6,1,20
2,2,2,0.618819999999687,0.184381318933488,1.38065500000084,48.6,1,21
2,1,1,0.630460000000312,0.47764648984987,1.48840999999811,43.74,1,22
2,1,1,0.607059999998455,0.671482843626961,1.40252999999939,43.74,1,23
2,2,2,0.709865000000718,0,1.56331000000137,39.366,1,24
2,1,1,0.60260500000004,0.37780661545993,1.37423499999932,39.366,1,25
2,2,2,0.582539999999426,0.138367708960467,1.32694000000265,35.4294,1,26
2,1,1,0.559260000001814,0.182893058335044,1.37119999999777,35.4294,1,27
2,2,1,0.754909999999654,0.436373685915863,2.43265500000052,31.88646,0,28
2,1,1,0.613769999999931,0.300782509814431,1.47565000000031,35.4294,1,29
2,2,2,0.610345000000962,0,1.68017999999938,35.4294,1,30
2,2,2,0.666984999999811,0.056289539704822,1.47890000000189,31.88646,1,31
2,1,1,0.619179999997898,0.238095238095238,1.62792500000063,31.88646,1,32
2,1,1,0.917940000003029,0.033620704368338,1.47793999999703,28.697814,1,33
2,2,1,0.716645000000426,0.16694687174791,1.40209500000131,28.697814,0,34
2,2,2,0.648095000000438,0.257637715089388,1.51616999999899,31.88646,1,35
2,1,1,0.537355000000331,0.057216886664663,1.58280500000186,31.88646,1,36
2,2,2,1.03827000000089,0,1.74971000000008,28.697814,1,37
2,1,1,0.735440000000352,0,1.40341499999707,28.697814,1,38
2,1,1,0.750504999999946,0,1.96141500000161,25.8280326,1,39
2,2,2,0.819045000000158,0,2.54760499999975,25.8280326,1,40
2,2,2,0.817224999998813,0,1.42684500000183,23.24522934,1,41
2,1,1,0.479909999998228,0,1.51241000000294,23.24522934,1,42
2,2,1,1.32955999999831,0,1.59745499999914,20.920706406,0,43
2,1,1,0.616085000001476,0.033751768513566,1.9453749999993,23.24522934,1,44
2,2,1,0.952925000001385,0.042196877669869,5.38780000000045,23.24522934,0,45
2,1,1,0.618740000001679,0,1.90447999999742,25.8280326,1,46
2,2,1,0.60982999999763,0,1.41683499999996,25.8280326,0,47
2,1,1,0.699544999999518,0,1.72295500000106,28.697814,1,48
2,2,2,0.710430000002845,0,1.8316199999972,28.697814,1,49
2,1,1,0.753260000001348,0.040816326530612,2.1823499999991,25.8280326,1,50
2,2,1,1.13620000000088,0,1.40328999999835,25.8280326,0,51
2,1,1,0.695074999999604,0,2.26109499999805,28.697814,1,52
2,1,1,0.739620000000345,0.095335257143014,1.59760000000091,28.697814,1,53
2,2,1,0.872074999999255,0.190545598771233,1.57949499999813,25.8280326,0,54
2,2,1,1.08157500000013,0,1.46287500000111,28.697814,0,55
2,1,1,0.781919999997597,0.045296825659038,1.33102000000142,31.88646,1,56
2,1,1,0.8749449999996,0,1.36879000000044,31.88646,1,57
2,2,2,0.954330000000482,0,1.48149999999802,28.697814,1,58
2,1,2,0.914029999999912,0.028430997442369,1.68231999999989,28.697814,0,59
2,2,2,0.794040000000619,0,1.6380050000007,31.88646,1,60
2,1,1,0.739630000000063,0.006802721088435,1.52969999999914,31.88646,1,61
2,2,1,0.708919999997248,0,2.24121500000183,28.697814,0,62
2,1,1,0.550415000001551,0.076734862470326,1.76718999999866,31.88646,1,63
2,2,1,0.748304999997315,0,1.51638000000094,31.88646,0,64
2,1,1,0.585525000002235,0.428652407608387,1.18444999999704,35.4294,1,65
2,2,1,0.455115000000631,0,1.66148000000248,35.4294,0,66
2,2,2,0.37660500000132,0,1.58723000000097,39.366,1,67
2,1,1,0.722024999999092,0,1.47035500000126,39.366,1,68
2,2,2,1.0179599999974,0,1.45706000000064,35.4294,1,69
2,1,2,0.556554999999178,0,1.56436500000203,35.4294,0,70
2,1,1,0.675624999999825,0,1.54607500000199,39.366,1,71
2,2,2,0.924965000002005,0,1.41861999999674,39.366,1,72
2,1,1,0.399890000000596,0.020549825162779,1.44777000000246,35.4294,1,73
2,2,1,1.95331000000075,0,2.12491999999841,35.4294,0,74
2,2,1,0.847204999998212,0,1.42708000000136,39.366,0,75
2,1,1,0.722515000001295,0,1.44951500000025,43.74,1,76
2,1,1,0.877154999998282,0.027754234067815,1.59678500000155,43.74,1,77
2,2,2,0.459299999998591,0,1.36299000000145,39.366,1,78
2,2,2,0.786739999999583,0,1.98979500000132,39.366,1,79
2,1,1,0.346994999999879,0,2.3046800000011,35.4294,1,80
2,2,1,0.889299999998882,0,1.49544000000245,35.4294,0,81
2,1,1,0.55681000000186,0,4.01954499999917,39.366,1,82
2,2,2,1.08258000000205,0,1.40939000000071,39.366,1,83
2,1,1,0.603774999999558,0,1.38307999999961,35.4294,1,84
2,1,1,0.690570000002452,0,1.62170499999775,35.4294,1,85
2,2,2,0.779319999997853,0,1.46026500000153,31.88646,1,86
2,1,1,0.518850000000326,0,1.50809500000108,31.88646,1,87
2,2,2,0.671205000002345,0,1.45666999999958,28.697814,1,88
2,1,1,0.539304999998421,0,1.46348500000022,28.697814,1,89
2,2,2,0.823054999997083,0,1.49899000000005,25.8280326,1,90
2,2,2,0.663284999998694,0,1.47024999999849,25.8280326,1,91
2,1,1,0.651985000000393,0,2.11764000000042,23.24522934,1,92
2,2,2,0.668164999999164,0,1.83364000000071,23.24522934,1,93
2,1,1,0.669164999999339,0,1.87335999999777,20.920706406,1,94
2,1,2,1.11387499999907,0,1.44445000000269,20.920706406,0,95
2,2,2,1.34851500000147,0,1.3992900000012,23.24522934,1,96
3,2,2,1.06388999999035,0.437929527577999,2.62414999993052,60,1,1
3,1,1,0.820625000051223,0.709222710146261,2.51549999997951,60,1,2
3,1,1,1.35616999992635,0.699280163478907,1.85818500001915,54,1,3
3,2,2,1.14606499997899,0.51711199105496,1.65402500005439,54,1,4
3,1,1,0.741425000014715,0.697079212818914,1.88014999998268,48.6,1,5
3,2,2,0.889324999996461,0.569644678790539,1.59018000005744,48.6,1,6
3,2,2,0.98331500007771,0.357455129474745,2.12878499994986,43.74,1,7
3,1,1,0.867025000043213,0.745178103685597,2.04784500005189,43.74,1,8
3,2,2,1.11621999996714,0.048709222317397,1.88755000010133,39.366,1,9
3,1,1,0.821845000027679,0.723976105051451,2.2930949999718,39.366,1,10
3,2,2,0.995569999911822,0.670203216493634,1.54972500004806,35.4294,1,11
3,1,1,0.808684999938123,0.746610020608498,1.64470000006258,35.4294,1,12
3,2,2,1.24357499997132,0.576335590554509,1.66893000004347,31.88646,1,13
3,1,2,2.11417499999516,0.376338010968494,1.89592500007711,31.88646,0,14
3,1,1,0.880030000000261,0.75862532868065,2.13155000004917,35.4294,1,15
3,2,2,1.45374500006437,0.395074237373311,1.56538499996532,35.4294,1,16
3,2,2,1.42133000004105,0.769620823788147,1.94671000004746,31.88646,1,17
3,1,1,0.745484999963082,0.911915675597869,1.53517499996815,31.88646,1,18
3,2,2,0.882829999900423,0.625850340136054,1.84741000004578,28.697814,1,19
3,1,1,0.709830000065267,0.738482566599558,1.50229500001296,28.697814,1,20
3,2,2,0.83742999995593,0.479917018512153,1.5423450000817,25.8280326,1,21
3,1,1,0.663620000006631,0.768707482993197,2.00639999995474,25.8280326,1,22
3,1,1,0.725769999902695,0.857975496754222,1.44323000009172,23.24522934,1,23
3,2,2,0.885090000112541,0.755127808329529,2.19336999999359,23.24522934,1,24
3,1,1,0.708374999929219,0.809912457143488,1.42105500004254,20.920706406,1,25
3,2,1,1.21494500001427,0.442216420115497,1.7220850000158,20.920706406,0,26
3,1,1,0.817860000068322,0.760138422097693,2.14474000001792,23.24522934,1,27
3,2,2,0.769090000074357,0.852225402959085,1.49350499990396,23.24522934,1,28
3,1,1,1.00086999998894,0.702023289005049,1.44703000003938,20.920706406,1,29
3,2,1,1.7351900000358,0.544352381220396,1.49273499997798,20.920706406,0,30
3,2,2,0.903655000030994,0.771242287468888,2.30764000001363,23.24522934,1,31
3,1,1,0.816329999943264,0.819241000873153,2.11626500007696,23.24522934,1,32
3,2,1,0.887564999982715,0.839093908885231,1.51797000004444,20.920706406,0,33
3,1,1,0.754165000049397,0.886176694820494,1.54212999995798,23.24522934,1,34
3,1,1,0.755099999951199,0.797494486836869,4.33538000006229,23.24522934,1,35
3,2,2,0.796259999973699,0.512503039680345,1.67345000000205,20.920706406,1,36
3,1,1,0.705145000014454,0.877913767722595,1.99948499992024,20.920706406,1,37
3,2,2,0.773029999923892,0.667694996549937,1.55585500004236,18.8286357654,1,38
3,2,2,0.907015000004321,0.802818964248832,1.49734000000171,18.8286357654,1,39
3,1,1,0.590800000005402,0.893391783636985,1.49193000001833,16.94577218886,1,40
3,1,1,0.678334999945946,0.865415364008103,1.53615000005811,16.94577218886,1,41
3,2,2,0.658820000011474,0.790331398300613,1.49631999991834,15.251194969974,1,42
3,1,1,0.89515500003472,0.880811118692608,1.35519999999087,15.251194969974,1,43
3,2,1,1.32990000001155,0.849524406417172,1.6285950000165,13.7260754729766,0,44
3,1,1,0.737579999957234,0.847096558011012,1.52525000006426,15.251194969974,1,45
3,2,2,0.797644999925978,0.707673448059199,1.59798000007868,15.251194969974,1,46
3,1,1,0.747555000009015,0.72501651340501,1.48219000000972,13.7260754729766,1,47
3,2,2,0.86714500002563,0.77774985156979,1.62872499995865,13.7260754729766,1,48
3,2,1,1.17935999995098,0.593126859206381,1.5207699999446,12.3534679256789,0,49
3,1,1,1.37844000000041,0.728449013477441,1.45867500000168,13.7260754729766,1,50
3,2,2,0.795960000017658,0.597983857962556,1.67518500005826,13.7260754729766,1,51
3,1,1,0.679965000017546,0.673696113639382,1.3714499999769,12.3534679256789,1,52
3,2,1,0.98382500000298,0.797912699723763,1.48663000005763,12.3534679256789,0,53
3,1,1,1.54985000006855,0.879363469728535,1.53504499990959,13.7260754729766,1,54
3,1,1,0.753765000030398,0.780911303225467,1.36001999990549,13.7260754729766,1,55
3,2,1,0.922565000015311,0.704621034144078,1.50939499994274,12.3534679256789,0,56
3,2,2,0.585190000012517,0.567888864577359,1.42191999999341,13.7260754729766,1,57
3,1,1,0.974915000027977,0.844451839810978,1.91189499991015,13.7260754729766,1,58
3,2,1,0.99718499998562,0.708652257323474,2.26403000007849,12.3534679256789,0,59
3,1,2,0.967820000019856,0.804554577336254,1.36914500000421,13.7260754729766,0,60
3,1,1,0.67249999998603,0.951176081250319,2.9572750000516,15.251194969974,1,61
3,2,2,0.707754999981262,0.811198721565028,2.10468500002753,15.251194969974,1,62
3,1,1,0.731320000020787,0.855081405218625,1.84750999999233,13.7260754729766,1,63
3,2,2,0.88594499998726,0.916490578394383,1.54379000002518,13.7260754729766,1,64
3,1,1,1.22293499996886,0.616522784474339,1.41460000001825,12.3534679256789,1,65
3,2,2,0.935620000003837,0.769823664285628,1.4440600000089,12.3534679256789,1,66
3,1,1,0.630535000003874,0.82082699684162,1.39214999997057,11.1181211331111,1,67
3,2,1,0.73418499995023,0.784411385653808,1.45683500007726,11.1181211331111,0,68
3,1,1,1.14639000000898,0.873825398218743,1.35300500004087,12.3534679256789,1,69
3,2,2,0.884559999918565,0.733638557560792,1.56266500009224,12.3534679256789,1,70
3,1,1,0.880959999980405,0.804652263754021,1.55479000008199,11.1181211331111,1,71
3,2,2,1.01467499998398,0.722453258022195,1.66599500004668,11.1181211331111,1,72
3,1,1,0.730655000079423,0.80164378507738,1.53921499999706,10.0063090198,1,73
3,2,1,0.855020000017248,0.820923033927882,1.344150000019,10.0063090198,0,74
3,1,1,0.838600000017323,0.899403204415138,1.55963000003248,11.1181211331111,1,75
3,2,2,0.630005000042729,0.713853686608498,1.56987000000663,11.1181211331111,1,76
3,2,2,0.871840000036173,0.601473707025302,1.45809999993071,10.0063090198,1,77
3,1,1,0.743545000092126,0.816736536098564,2.07608499994967,10.0063090198,1,78
3,2,2,0.722770000109449,0.795425287051247,1.4574099999154,9.00567811781996,1,79
3,1,1,0.993724999949336,0.885501903711396,1.41116500005592,9.00567811781996,1,80
3,1,1,0.761905000079423,0.800000981633123,2.1609199999366,8.10511030603796,1,81
3,2,2,0.677789999986999,0.817845085382842,1.9005200000247,8.10511030603796,1,82
3,2,1,0.524839999969117,0.612275540225233,2.16968000004999,7.29459927543417,0,83
3,1,1,0.787429999909364,0.813015949401376,1.74617500009481,8.10511030603796,1,84
3,1,1,0.74881500005722,0.851108639404081,1.37604499992449,8.10511030603796,1,85
3,2,2,0.609094999963418,0.717545900065226,1.47129500005394,7.29459927543417,1,86
3,1,1,0.785460000042804,0.949080250515056,1.79846499999985,7.29459927543417,1,87
3,2,2,0.868475000024773,0.80684755171653,1.63262000004761,6.56513934789075,1,88
3,2,2,1.3463299999712,0.718835779796867,1.70265000010841,6.56513934789075,1,89
3,1,1,0.663844999973662,0.928868331608597,2.06950500002131,5.90862541310167,1,90
3,1,1,0.863445000024512,0.951006870326083,1.5369349999819,5.90862541310167,1,91
3,2,2,0.940154999960214,0.868440050837993,1.59478499996476,5.31776287179151,1,92
3,2,2,1.06430500000715,0.841353434906493,1.56923999998253,5.31776287179151,1,93
3,1,1,0.640119999996386,0.825521613565945,1.35682999994606,4.78598658461236,1,94
3,2,2,0.784925000043586,0.755514232338458,1.57070999999996,4.78598658461236,1,95
3,1,1,0.71433500002604,0.891178839714903,1.44331000000238,4.30738792615112,1,96
4,2,2,0.950420000008307,1,1.60768000001553,60,1,1
4,1,1,0.74519499996677,0.989852095601817,0.768054999993183,60,1,2
4,1,1,0.668569999979809,0.835269122875668,1.72811000002548,54,1,3
4,2,2,0.845945000008214,1,0.9366849999642,54,1,4
4,1,1,0.918115000007674,0.12548412140566,1.47230500000296,48.6,1,5
4,2,2,1.81539499998325,1,1.67154499999015,48.6,1,6
4,1,1,0.955350000003818,0.280280858233577,1.36076999997022,43.74,1,7
4,2,2,1.72646000003442,0.433490328706806,1.20013499999186,43.74,1,8
4,1,1,1.78564499999629,0.100999296992311,1.70429500000319,39.366,1,9
4,2,2,1.43844000005629,0.979488760470222,1.10400999995181,39.366,1,10
4,1,2,1.2890400000033,0.952887870182724,1.61614499997813,35.4294,0,11
4,2,2,0.884664999961387,0.964545618782293,1.13608500000555,39.366,1,12
4,2,2,0.819664999959059,0.99718230558524,1.38419500004966,39.366,1,13
4,1,1,0.860419999982696,0,1.41561000002548,35.4294,1,14
4,2,2,0.785169999988284,1,0.984185000008438,35.4294,1,15
4,1,2,1.43420999997761,1,0.735820000001695,31.88646,0,16
4,2,2,0.756939999992028,1,0.855994999990799,35.4294,1,17
4,1,1,1.00201499997638,1,0.975975000008475,35.4294,1,18
4,1,2,0.922139999980573,0.956429749627491,0.9199849999859,31.88646,0,19
4,2,2,1.66628499998478,0.998906182097907,0.927865000034217,35.4294,1,20
4,2,2,0.810215000004973,1,0.767590000003111,35.4294,1,21
4,1,1,1.37072499998612,1,0.720165000006091,31.88646,1,22
4,1,2,0.855624999967404,0.989852095601817,0.768054999993183,31.88646,0,23
4,2,2,0.838329999998678,0.941851613544351,0.671995000040624,35.4294,1,24
4,2,2,1.450589999964,0.974861191757326,1.04914000001736,35.4294,1,25
4,1,2,1.8465149999829,1,1.14383000001544,31.88646,0,26
4,1,1,1.11817999999039,0.280116777053328,0.984105000039563,35.4294,1,27
4,2,2,0.87455000000773,1,0.871829999960028,35.4294,1,28
4,1,2,1.98936999996658,0.954913200596175,0.936084999993909,31.88646,0,29
4,2,2,1.26422499999171,0.973970670157217,0.863940000010189,35.4294,1,30
4,1,2,1.17932499997551,0.968987216984984,1.21598999999696,35.4294,0,31
4,2,1,1.03577999997651,0.127973186903324,1.40019000001485,39.366,0,32
4,2,2,0.842035000037868,0.982885293963945,0.847635000012815,43.74,1,33
4,1,2,0.772869999986142,0.929904148997086,1.15218500001356,43.74,0,34
4,2,1,2.08865500002867,0.510239511510584,1.57637999998406,48.6,0,35
4,1,2,0.9666000000434,0.841094794091788,0.847799999988638,54,0,36
4,2,2,0.733880000014324,0.822482297488703,0.472054999961983,60,1,37
4,1,1,0.650275000021793,0.968487642604048,0.807930000009947,60,1,38
4,2,2,1.27962500002468,1,0.712524999980815,54,1,39
4,1,1,0.623135000001639,0.958637640825586,0.808870000008028,54,1,40
4,1,2,0.758549999969546,1,0.807450000022072,48.6,0,41
4,2,2,0.855959999957122,1,0.952020000026096,54,1,42
4,2,1,1.1835349999601,0.653380946307457,1.28021500003524,54,0,43
4,1,1,0.700580000004265,1,0.712119999981951,60,1,44
4,1,2,0.676730000006501,1,0.744015000003856,60,0,45
4,2,2,0.908639999979641,1,0.767584999965038,66.6666666666667,1,46
4,1,1,0.713235000032,1,1.03207999997539,66.6666666666667,1,47
4,2,2,1.33166500000516,0.997101117759439,1.01625499996589,60,1,48
4,1,1,0.809735000017099,0.776139869803149,0.78394999995362,60,1,49
4,2,2,0.613284999970347,0.846932931230846,1.31209500000114,54,1,50
4,1,1,0.568795000028331,1,0.78414000000339,54,1,51
4,2,2,0.610260000044946,0.935325864280759,1.08008499996504,48.6,1,52
4,2,1,0.87933999998495,1,0.711855000001378,48.6,0,53
4,1,1,0.655419999966398,1,0.520545000035781,54,1,54
4,1,1,0.619155000022147,0.979591836734693,1.08074499998474,54,1,55
4,2,2,0.727559999970254,0.920676016592318,1.0395000000135,48.6,1,56
4,2,2,1.34407500002999,0.978127265499215,1.16772500000661,48.6,1,57
4,1,1,0.763610000023618,0.97725999797294,1.16910999995889,43.74,1,58
4,1,2,1.03858499997295,0.946343268551044,1.19991500000469,43.74,0,59
4,2,2,1.1087749999715,1,3.44068499997957,48.6,1,60
4,1,1,1.51831999997376,1,0.45666500000516,48.6,1,61
4,2,2,0.640124999976251,1,1.0565700000152,43.74,1,62
4,1,1,0.556120000022929,1,0.456179999979213,43.74,1,63
4,2,2,0.808879999967758,0.99718230558524,3.71198500000173,39.366,1,64
4,2,2,2.05775999999605,1,0.519995000038762,39.366,1,65
4,1,1,0.611555000010412,0.993380570980985,2.63195499998983,35.4294,1,66
4,1,2,1.23391000000993,0.891961734411233,0.464225000003353,35.4294,0,67
4,2,1,0.622380000015255,0.991240320263358,0.368105000001378,39.366,0,68
4,2,2,0.857965000031982,0.965548095838789,0.359944999974687,43.74,1,69
4,1,1,0.646695000003092,0.93502537332077,0.40751500002807,43.74,1,70
4,2,2,1.56979000003776,1,0.584065000002738,39.366,1,71
4,1,1,1.08338500000536,1,1.08795999997528,39.366,1,72
4,1,1,0.788860000029672,1,0.487994999974035,35.4294,1,73
4,2,2,0.624135000049137,1,0.320464999997057,35.4294,1,74
4,2,1,0.667829999991227,0.989852095601817,1.01612500002375,31.88646,0,75
4,1,2,0.85665999999037,1,0.391645000025164,35.4294,0,76
4,1,1,1.54063000000315,1,0.53558999998495,39.366,1,77
4,2,2,0.577494999975897,0.901510104736252,1.20071500004269,39.366,1,78
4,1,1,0.634124999982305,0.932941094873309,0.367955000023358,35.4294,1,79
4,2,2,1.52664499997627,0.868943286223717,0.239645000023302,35.4294,1,80
4,1,1,1.00262000004295,1,0.287624999997206,31.88646,1,81
4,2,2,0.716839999950025,0.931219058893637,0.808205000008456,31.88646,1,82
4,1,2,0.783924999996088,0.922045779076869,1.0162849999615,28.697814,0,83
4,2,1,0.711340000038035,0.803919369943227,0.400224999990314,31.88646,0,84
4,1,1,0.675300000002608,1,0.36795499996515,35.4294,1,85
4,2,2,0.622990000003483,0.808283935392288,0.944164999993518,35.4294,1,86
4,2,2,0.719144999980927,1,0.392035000026226,31.88646,1,87
4,1,2,0.875754999986384,0.972228994949729,0.456245000008494,31.88646,0,88
4,1,2,0.853759999969043,1,0.71231999999145,35.4294,0,89
4,2,2,0.711115000012796,1,0.415985000028741,39.366,1,90
4,2,1,0.739070000010543,0.980436705327402,0.44038000004366,39.366,0,91
4,1,1,0.510654999990948,0.893347124472335,0.447489999991376,43.74,1,92
4,1,2,0.61824500001967,0.815940482934095,0.936180000018794,43.74,0,93
4,2,1,0.748064999992494,0.879137089344276,0.359980000008363,48.6,0,94
4,2,1,0.935105000040494,1,0.512044999981299,54,0,95
4,1,1,0.669965000008233,0.970172807468791,0.584114999976009,60,1,96
5,1,1,0.790714999951888,1,1.15466500003822,60,1,1
5,2,2,0.709894999978133,0.458250939710871,1.42111500003375,60,1,2
5,2,2,0.571360000001732,0.741522762564299,1.47369000001345,54,1,3
5,1,1,0.465000000025611,0.843560872345992,1.60778500000015,54,1,4
5,2,2,0.515324999985751,0.837891418341595,1.63078499998664,48.6,1,5
5,1,1,0.71775000001071,0.789512800823641,1.39448000001721,48.6,1,6
5,2,2,0.750310000032187,0.823512427596177,1.12877000001026,43.74,1,7
5,1,1,0.752840000030119,0.513067701224007,1.53858999995282,43.74,1,8
5,1,1,0.55073999997694,0.714312708785591,1.33146499999566,39.366,1,9
5,2,2,0.734525000036228,0.424385380038992,1.03887999994913,39.366,1,10
5,2,2,0.801869999966584,0.518267958152888,1.10137500002747,35.4294,1,11
5,1,1,0.712980000011157,0.824302248436229,1.06205499998759,35.4294,1,12
5,1,1,0.710824999958277,0.316112320909741,0.955064999987371,31.88646,1,13
5,2,2,1.20290500001283,0.091713464619954,1.12254499999108,31.88646,1,14
5,1,1,0.66816000000108,0.046155700536732,1.98348499997519,28.697814,1,15
5,2,2,0.793470000033267,0.073336715402322,1.12027000001399,28.697814,1,16
5,2,2,1.13699000002816,0.231848689902596,1.46168999996735,25.8280326,1,17
5,1,1,0.738004999991972,0.01226876531961,0.796555000008084,25.8280326,1,18
5,2,2,0.743095000041649,0.293048145404103,0.936140000005253,23.24522934,1,19
5,1,1,0.741515000001527,0.705712442422458,1.01500000001397,23.24522934,1,20
5,2,2,0.686785000027157,0.642260573945769,1.42173999996157,20.920706406,1,21
5,1,1,0.665540000016335,0.560591585136528,1.10314999998081,20.920706406,1,22
5,2,2,0.776160000008531,0.364116758745216,1.20722499996191,18.8286357654,1,23
5,1,1,0.794794999994338,0.510381211806104,1.06679499999154,18.8286357654,1,24
5,1,1,0.796689999988303,0.443164804198143,1.19505999999819,16.94577218886,1,25
5,2,2,0.765384999976959,0.50953054836808,0.929005000041798,16.94577218886,1,26
5,2,2,0.775610000011511,0.506971876685129,0.756300000008196,15.251194969974,1,27
5,1,1,0.922044999955688,0.248225370117137,1.04607500002021,15.251194969974,1,28
5,2,2,0.609524999978021,0.381658680985067,0.974870000034571,13.7260754729766,1,29
5,1,1,1.22750000003725,0.048829970117079,1.14875999995274,13.7260754729766,1,30
5,1,1,1.33517999999458,0.162887143595159,1.13971499999752,12.3534679256789,1,31
5,2,2,1.02994999999646,0,1.1093450000044,12.3534679256789,1,32
5,1,1,1.00877499999478,0,1.34382999996888,11.1181211331111,1,33
5,2,2,0.691140000009909,0,0.8093349999981,11.1181211331111,1,34
5,2,1,1.39193500002148,0.013753257594848,1.12936999998055,10.0063090198,0,35
5,1,1,0.756210000021383,0.199719137741882,0.915314999991097,11.1181211331111,1,36
5,2,1,1.95495500002289,0,1.45043500000611,11.1181211331111,0,37
5,1,1,0.895245000021532,0,0.776834999967832,12.3534679256789,1,38
5,1,1,1.59250999998767,0,0.900324999995064,12.3534679256789,1,39
5,2,1,1.22028999996837,0,1.28972500003874,11.1181211331111,0,40
5,2,1,1.08124500000849,0,1.23155500000576,12.3534679256789,0,41
5,1,1,0.999420000007376,0,1.51882499997737,13.7260754729766,1,42
5,2,1,1.54380499996478,0,1.11369500000728,13.7260754729766,0,43
5,1,1,1.15445499995258,0,1.18454500002554,15.251194969974,1,44
5,2,1,0.929635000007693,0,1.34860999998637,15.251194969974,0,45
5,1,2,0.877695000031963,0,1.32021999999415,16.94577218886,0,46
5,2,2,0.915310000011232,0,0.94211499998346,18.8286357654,1,47
5,1,1,1.43904000002658,0,1.26134999998612,18.8286357654,1,48
5,1,1,1.17539000004763,0,1.39672999997856,16.94577218886,1,49
5,2,1,1.42186500004027,0,0.619369999971241,16.94577218886,0,50
5,2,2,0.925624999974389,0,1.95971000002464,18.8286357654,1,51
5,1,1,0.999714999983553,0,1.82422000000952,18.8286357654,1,52
5,2,2,0.996250000025611,0,1.29706999997143,16.94577218886,1,53
5,1,1,1.01993000000948,0,1.2329150000005,16.94577218886,1,54
5,2,1,1.12252500001341,0,1.08410499995807,15.251194969974,0,55
5,1,1,1.10921500000404,0,1.15046500001336,16.94577218886,1,56
5,1,1,0.812985000025947,0.484322752196795,1.3669799999916,16.94577218886,1,57
5,2,1,0.950324999983422,0,0.851544999983162,15.251194969974,0,58
5,1,1,0.777659999963362,0,1.1431150000426,16.94577218886,1,59
5,2,2,0.704540000006091,0,1.26431499997852,16.94577218886,1,60
5,1,1,1.21454499999527,0,1.35331999999471,15.251194969974,1,61
5,2,2,0.894090000016149,0,1.08464999997523,15.251194969974,1,62
5,1,1,0.885680000006687,0,0.858260000008158,13.7260754729766,1,63
5,2,1,0.686984999978449,0,1.07458000001498,13.7260754729766,0,64
5,1,1,0.854205000039656,0,1.24501499999315,15.251194969974,1,65
5,2,1,0.812414999993052,0,0.731075000017881,15.251194969974,0,66
5,1,1,0.835450000013225,0,1.13701499998569,16.94577218886,1,67
5,2,2,0.783844999969006,0,1.05056000000332,16.94577218886,1,68
5,1,1,0.862559999979567,0,3.00264000002062,15.251194969974,1,69
5,2,1,1.01185500004794,0,0.912374999956228,15.251194969974,0,70
5,1,2,0.620794999995269,0,1.17619500000728,16.94577218886,0,71
5,2,1,0.924035000032745,0,1.51139999995939,18.8286357654,0,72
5,1,1,0.880665000004228,0,1.46677500003716,20.920706406,1,73
5,2,1,1.01382499997271,0,1.57948000001488,20.920706406,0,74
5,2,1,0.916529999987688,0,1.26189999998314,23.24522934,0,75
5,1,1,1.28691000002436,0,1.31147000001511,25.8280326,1,76
5,2,2,0.972795000008773,0,1.09005499997875,25.8280326,1,77
5,1,1,0.896285000024363,0,2.53688999998849,23.24522934,1,78
5,1,2,1.42914000002202,0,1.10879000002751,23.24522934,0,79
5,2,2,1.02386999997543,0,0.989309999975376,25.8280326,1,80
5,2,1,0.846019999997225,0,0.773715000017546,25.8280326,0,81
5,1,2,1.71123499999521,0,1.58730499999365,28.697814,0,82
5,2,1,1.24929499998689,0,1.00763000000734,31.88646,0,83
5,1,1,1.07968999998411,0.133386945636012,1.0025649999734,35.4294,1,84
5,1,2,1.23366000002716,0.137378638422394,1.04303499998059,35.4294,0,85
5,2,1,0.884499999985565,0,1.14327000000048,39.366,0,86
5,2,2,0.770435000013094,0.282408152601028,0.751694999984466,43.74,1,87
5,1,2,1.03098500001943,0.293366518146432,0.813429999980144,43.74,0,88
5,2,1,1.0297450000071,0,1.70023999997647,48.6,0,89
5,1,1,0.661944999999832,0.641611935517054,0.94283000001451,54,1,90
5,1,1,1.27393999998458,0.482475384722797,0.803580000007059,54,1,91
5,2,2,0.986205000022892,0,1.40423499996541,48.6,1,92
5,2,2,0.90749999997206,0.443164804198143,0.87854000000516,48.6,1,93
5,1,1,0.897259999997914,0,1.36213500000304,43.74,1,94
5,1,1,0.866979999991599,1,1.29527000000235,43.74,1,95
5,2,2,1.08976499998244,0,1.02980999997817,39.366,1,96
6,2,2,1.059,1,2.152,60,1,1
6,1,1,1.721,1,7.606,60,1,2
6,2,2,1.49,1,1.251,54,1,3
6,1,1,0.897000000000058,1,1.40099999999994,54,1,4
6,1,1,0.858,1,1.07999999999994,48.6,1,5
6,2,2,1.826,1,1.198,48.6,1,6
6,2,2,1.388,1,1.268,43.74,1,7
6,1,1,1.312,1,4.58500000000006,43.74,1,8
6,1,1,1.07700000000006,1,2.16199999999994,39.366,1,9
6,2,2,1.327,1,1.82,39.366,1,10
6,2,1,2.238,1,1.07800000000006,35.4294,0,11
6,1,1,1.18900000000006,1,2.45499999999994,39.366,1,12
6,1,1,1.207,1,1.398,39.366,1,13
6,2,2,1.31900000000006,1,1.60499999999994,35.4294,1,14
6,1,1,1.50300000000006,1,2.573,35.4294,1,15
6,2,2,1.171,1,1.05100000000012,31.88646,1,16
6,2,2,1.489,1,1.604,31.88646,1,17
6,1,1,1.807,1,7.253,28.697814,1,18
6,1,1,1.421,1,1.301,28.697814,1,19
6,2,2,1.45900000000012,1,1.33899999999988,25.8280326,1,20
6,1,2,2.376,1,1.437,25.8280326,0,21
6,2,2,1.627,1,3.701,28.697814,1,22
6,1,1,1.35300000000012,1,3.65799999999988,28.697814,1,23
6,2,2,1.221,1,11.692,25.8280326,1,24
6,1,2,2.004,1,1.517,25.8280326,0,25
6,2,2,1.697,1,1.73,28.697814,1,26
6,2,2,1.893,1,1.747,28.697814,1,27
6,1,1,1.406,1,1.789,25.8280326,1,28
6,1,1,1.853,1,1.93600000000012,25.8280326,1,29
6,2,2,1.654,1,2.069,23.24522934,1,30
6,1,1,1.293,1,1.32900000000012,23.24522934,1,31
6,2,2,1.73700000000012,1,1.66999999999988,20.920706406,1,32
6,1,2,1.481,1,1.485,20.920706406,0,33
6,2,2,1.423,1,1.453,23.24522934,1,34
6,1,1,1.328,1,28.253,23.24522934,1,35
6,2,2,1.203,1,36.807,20.920706406,1,36
6,1,2,1.371,1,2.823,20.920706406,0,37
6,2,2,0.996,1,1.375,23.24522934,1,38
6,2,1,3.811,1,1.72,23.24522934,0,39
6,1,1,1.47899999999988,1,2.08400000000012,25.8280326,1,40
6,1,2,3.741,1,1.634,25.8280326,0,41
6,2,2,2.04,1,4.069,28.697814,1,42
6,2,2,3.087,1,1.437,28.697814,1,43
6,1,1,2.303,1,2.85400000000012,25.8280326,1,44
6,2,1,1.296,1,100.53,25.8280326,0,45
6,1,1,10.7799999999999,1,6.74400000000012,28.697814,1,46
6,1,1,2.712,1,5.305,28.697814,1,47
6,2,1,2.272,1,1.65200000000012,25.8280326,0,48
6,1,1,2.07,1,2.689,28.697814,1,49
6,2,2,3.528,1,1.531,28.697814,1,50
6,1,1,3.45599999999988,1,1.272,25.8280326,1,51
6,2,2,1.552,1,15.654,25.8280326,1,52
6,1,1,1.35999999999988,1,1.55,23.24522934,1,53
6,2,2,1.759,1,40.504,23.24522934,1,54
6,2,2,1.403,1,30.793,20.920706406,1,55
6,1,1,1.46299999999977,1,21.736,20.920706406,1,56
6,1,1,0.901999999999767,1,1.403,18.8286357654,1,57
6,2,1,1.486,1,7.775,18.8286357654,0,58
6,1,1,1.488,1,6.86,20.920706406,1,59
6,2,2,1.29,1,15.843,20.920706406,1,60
6,2,2,1.159,1,4.136,18.8286357654,1,61
6,1,1,2.03,1,3.211,18.8286357654,1,62
6,1,2,1.654,1,4.304,16.94577218886,0,63
6,2,2,2.377,1,3.532,18.8286357654,1,64
6,1,1,6.19500000000023,1,8.32199999999977,18.8286357654,1,65
6,2,2,1.83799999999977,1,1.535,16.94577218886,1,66
6,1,2,2.011,1,1.627,16.94577218886,0,67
6,2,2,1.59700000000023,1,1.95299999999977,18.8286357654,1,68
6,1,1,1.302,1,2.546,18.8286357654,1,69
6,2,2,1.304,1,3.127,16.94577218886,1,70
6,2,2,1.175,1,2.481,16.94577218886,1,71
6,1,2,2.738,1,4.654,15.251194969974,0,72
6,1,1,0.952999999999767,1,6.074,16.94577218886,1,73
6,2,2,1.052,1,4.216,16.94577218886,1,74
6,2,2,1.004,1,2.969,15.251194969974,1,75
6,1,1,0.887,1,2.263,15.251194969974,1,76
6,1,1,1.054,1,3.896,13.7260754729766,1,77
6,2,2,1.069,1,5.207,13.7260754729766,1,78
6,1,2,1.08,1,1.60000000000023,12.3534679256789,0,79
6,2,2,1.436,1,4.639,13.7260754729766,1,80
6,2,1,4.48199999999977,1,3.774,13.7260754729766,0,81
6,1,2,3.394,1,1.847,15.251194969974,0,82
6,1,1,7.53,1,2.649,16.94577218886,1,83
6,2,2,3.722,1,3.391,16.94577218886,1,84
6,2,2,1.358,1,1.358,15.251194969974,1,85
6,1,1,0.845,1,12.2040000000002,15.251194969974,1,86
6,2,2,1.095,1,2.429,13.7260754729766,1,87
6,1,1,1.479,1,1.729,13.7260754729766,1,88
6,2,2,2.653,1,1.806,12.3534679256789,1,89
6,1,1,2.107,1,2.668,12.3534679256789,1,90
6,2,2,1.136,1,4.815,11.1181211331111,1,91
6,1,1,1.53,1,2.08,11.1181211331111,1,92
6,1,1,1.31,1,5.457,10.0063090198,1,93
6,2,2,1.24200000000023,1,4.48299999999977,10.0063090198,1,94
6,1,2,1.63,1,1.342,9.00567811781996,0,95
6,2,2,1.37099999999977,1,2.779,10.0063090198,1,96
7,1,1,1.56162499999843,1,4.16685000000149,66.6666666666667,1,1
7,2,1,1.91320000000088,1,2.13941499999963,66.6666666666667,0,2
7,2,2,1.09849000000034,1,1.2192950000008,74.0740740740741,1,3
7,1,2,1.16150000000017,1,1.15607500000077,74.0740740740741,0,4
7,1,1,0.983874999999884,1,1.11217500000022,82.3045267489712,1,5
7,2,1,0.939505000000296,1,1.00613499999966,82.3045267489712,0,6
7,2,2,1.2771899999989,1,2.76439500000014,91.4494741655236,1,7
7,1,2,2.40024999999878,1,1.25240500000108,91.4494741655236,0,8
7,2,1,0.358285000000265,1,1.16067499999917,101.610526850582,0,9
7,1,2,1.06422500000009,1,1.09554999999999,112.900585389535,0,10
7,2,2,1.51236000000063,1,1.2407349999994,125.445094877261,1,11
7,1,2,1.46298000000021,1,1.93686999999959,125.445094877261,0,12
7,2,2,1.11006999999884,1,1.61251500000071,139.383438752513,1,13
7,1,2,1.59251000000036,1,1.44890999999922,139.383438752513,0,14
7,1,2,1.57519499999942,1,1.75457000000094,154.870487502792,0,15
7,2,1,1.26969500000082,1,2.60887999999977,172.078319447546,0,16
7,1,1,3.00099500000034,1,1.34324999999988,191.198132719496,1,17
7,2,1,0.836040000000154,1,2.2184499999985,191.198132719496,0,18
7,1,1,1.35235000000102,1,1.92214000000054,212.442369688329,1,19
7,2,1,3.26613,1,1.47794000000064,212.442369688329,0,20
7,1,2,1.32643000000098,1,1.28607000000012,236.047077431477,0,21
7,2,2,1.13227000000008,1,1.1183000000001,262.274530479418,1,22
7,1,2,1.04524999999924,1,0.912510000000126,262.274530479418,0,23
7,2,2,1.17985500000027,1,3.49501000000059,291.416144977132,1,24
7,1,1,2.49435000000079,1,1.33300499999861,291.416144977132,1,25
7,2,1,1.44493499999953,1,1.18419999999966,262.274530479418,0,26
7,1,2,1.08025500000082,1,1.18388500000036,291.416144977132,0,27
7,2,2,0.948839999999094,1,0.716425000000512,323.795716641257,1,28
7,1,2,0.917034999998577,1,0.622414999999804,323.795716641257,0,29
7,2,1,0.936040000000503,1,3.23872999999917,359.773018490286,0,30
7,2,1,3.25377500000107,1,1.8464399999993,399.74779832254,0,31
7,1,2,2.39403999999922,1,1.5238800000007,444.164220358378,0,32
7,1,1,12.8757550000009,1,3.41834999999998,493.515800398197,1,33
7,2,2,1.61111499999976,1,3.31326500000065,493.515800398197,1,34
7,1,2,1.6316799999986,1,0.771015000000247,444.164220358378,0,35
7,2,2,2.25373000000039,1,1.10868500000105,493.515800398197,1,36
7,2,1,1.40799500000139,1,0.978224999998929,493.515800398197,0,37
7,1,1,6.88187999999902,1,1.6771150000004,548.35088933133,1,38
7,2,1,2.82675999999995,1,1.84684999999992,548.35088933133,0,39
7,1,1,1.83086499999987,1,1.14522500000021,609.2787659237,1,40
7,2,1,1.72643000000063,1,1.27224000000022,609.2787659237,0,41
7,1,2,1.45300999999925,1,1.06440500000102,676.976406581889,0,42
7,2,1,1.95941999999923,1,1.68986500000028,752.19600731321,0,43
7,1,1,0.987064999999304,1,1.23462999999907,835.773341459123,1,44
7,2,1,2.15956000000006,1,1.70444500000123,835.773341459123,0,45
7,1,1,2.08288500000164,1,0.968369999998715,928.637046065692,1,46
7,2,1,2.15575999999966,1,1.3673600000001,928.637046065692,0,47
7,1,2,2.06371000000031,1,1.20341999999993,1031.81894007299,0,48
7,2,1,2.43762500000047,1,1.51464999999921,1146.46548896999,0,49
7,1,1,1.81756499999936,1,0.966375,1273.85054329999,1,50
7,1,1,1.83851499999943,1,1.1090750000003,1273.85054329999,1,51
7,2,1,3.73188499999931,1,1.75791000000027,1146.46548896999,0,52
7,1,2,3.11366999999888,1,1.35730500000133,1273.85054329999,0,53
7,2,2,2.71788500000001,1,1.46585500000033,1415.38949255554,1,54
7,2,1,2.2474700000002,1,0.911490000000456,1415.38949255554,0,55
7,1,1,2.49807999999938,1,1.04809500000009,1572.65499172838,1,56
7,2,2,2.74515500000061,1,1.46305500000017,1572.65499172838,1,57
7,1,1,2.14955999999994,1,0.962480000000098,1415.38949255554,1,58
7,2,1,1.59705499999842,1,1.48785500000115,1415.38949255554,0,59
7,1,1,2.39606499999901,1,3.59744500000123,1572.65499172838,1,60
7,2,1,2.10215000000061,1,1.16428499999898,1572.65499172838,0,61
7,1,1,4.13970500000147,1,1.58454499999969,1747.39443525376,1,62
7,2,1,2.74834999999986,1,0.96620500000054,1747.39443525376,0,63
7,1,1,2.95043999999866,1,1.52441500000167,1941.54937250417,1,64
7,2,1,2.79679500000016,1,2.20083499999961,1941.54937250417,0,65
7,1,2,5.34384999999928,1,1.82409000000008,2157.27708056019,0,66
7,2,2,3.49278500000027,1,2.59916499999969,2396.97453395577,1,67
7,1,1,3.362755,1,1.47480999999971,2396.97453395577,1,68
7,1,1,2.96110500000033,1,1.45127999999933,2157.27708056019,1,69
7,2,1,3.41665500000096,1,2.43028499999852,2157.27708056019,0,70
7,2,2,3.62204000000015,1,1.859195000001,2396.97453395577,1,71
7,1,2,3.17411999999976,1,2.03218999999983,2396.97453395577,0,72
7,1,2,3.61393999999925,1,0.965619999999064,2663.30503772863,0,73
7,2,2,3.84732499999879,1,1.93025500000117,2959.22781969848,1,74
7,2,2,3.21157500000123,1,1.17191999999876,2959.22781969848,1,75
7,1,2,3.66074000000115,1,1.61468500000052,2663.30503772863,0,76
7,2,2,4.1157550000007,1,2.51329499999876,2959.22781969848,1,77
7,1,2,4.16125999999896,1,1.68534999999974,2959.22781969848,0,78
7,2,2,6.21078499999933,1,1.70697499999905,3288.03091077609,1,79
7,1,1,4.4108550000001,1,1.96884500000125,3288.03091077609,1,80
7,1,1,3.79390500000038,1,1.41426499999943,2959.22781969848,1,81
7,2,2,3.31567499999993,1,1.01647500000033,2959.22781969848,1,82
7,1,1,3.35029500000027,1,6.37135999999917,2663.30503772863,1,83
7,2,2,3.44909499999986,1,1.22916500000074,2663.30503772863,1,84
7,1,1,3.70795499999984,1,1.23753500000027,2396.97453395577,1,85
7,2,2,3.46513500000036,1,1.96000999999885,2396.97453395577,1,86
7,1,2,2.34922499999998,1,1.46212999999989,2157.27708056019,0,87
7,2,2,3.20904999999946,1,1.09860499999917,2396.97453395577,1,88
7,1,1,2.96589500000118,1,1.1839099999998,2396.97453395577,1,89
7,2,2,2.61060499999986,1,1.10474000000057,2157.27708056019,1,90
7,1,2,2.35068499999947,1,1.04971000000113,2157.27708056019,0,91
7,2,2,3.80762999999931,1,1.16911500000057,2396.97453395577,1,92
7,1,2,3.5403949999999,1,1.03733499999915,2396.97453395577,0,93
7,2,1,3.44614000000001,1,1.05411500000081,2663.30503772863,0,94
7,2,1,3.55353500000096,1,1.61240999999968,2959.22781969848,0,95
7,1,2,4.53328500000131,1,0.91489999999979,3288.03091077609,0,96
8,2,1,1.38607000000775,0.44167922399139,3.25056499999482,48.6,0,1
8,1,1,2.99324500001967,0.327607334083212,2.43183499999577,54,1,2
8,2,2,2.01344999999856,0.685551371324477,3.03480500000296,54,1,3
8,1,1,1.31622000000789,1,2.83145499997772,48.6,1,4
8,2,2,1.67252500000177,1,2.68594499997562,48.6,1,5
8,1,1,1.96810999998706,0.997653392057948,2.81296999999904,43.74,1,6
8,2,2,7.12465000001248,0.792788737947703,2.51363999999012,43.74,1,7
8,1,1,1.77277999999933,1,2.8771349999879,39.366,1,8
8,2,2,2.0794000000169,0.318904025554167,1.41832500000601,39.366,1,9
8,1,1,3.30713000000105,0.433798130095686,1.94913500000257,35.4294,1,10
8,1,1,1.68689000001177,1,1.94104000000516,35.4294,1,11
8,2,2,1.57652000000235,0.716379968177705,1.50390000001062,31.88646,1,12
8,2,2,1.46927500001038,1,2.15252000000328,31.88646,1,13
8,1,1,1.63373500001035,1,3.26629500000854,28.697814,1,14
8,2,2,1.74014000000898,1,1.85736499997438,28.697814,1,15
8,1,1,1.63801500000409,1,1.51117499999236,25.8280326,1,16
8,2,2,1.83926000000793,0.555485502807881,1.82568499998888,25.8280326,1,17
8,1,1,1.26182000001427,1,2.68942499998957,23.24522934,1,18
8,1,1,1.73365999999805,1,1.71928499999922,23.24522934,1,19
8,2,2,1.24666000000434,0.847893036218758,1.90502999999444,20.920706406,1,20
8,2,2,1.49420500002452,1,1.37385000000359,20.920706406,1,21
8,1,1,2.14943499999936,1,1.29881999999634,18.8286357654,1,22
8,1,1,1.41420499997912,0.870586406545391,1.39876000001095,18.8286357654,1,23
8,2,2,1.11532500002068,0.98078410048194,1.0916299999808,16.94577218886,1,24
8,2,2,1.24575500001083,0.849089689469929,1.25385499998811,16.94577218886,1,25
8,1,1,1.26931999999215,0.763321631122406,2.15875000000233,15.251194969974,1,26
8,2,2,1.20790000000852,1,1.34049500001129,15.251194969974,1,27
8,1,1,1.21801499999128,1,1.23235500001465,13.7260754729766,1,28
8,1,1,3.15122999998857,0.907356495585102,1.29357000000891,13.7260754729766,1,29
8,2,1,1.94000000000233,0.709746999353377,1.34128500000224,12.3534679256789,0,30
8,1,2,1.420844999986,0.336351503744637,1.12809500002186,13.7260754729766,0,31
8,2,1,2.53445999999531,0.044459859126506,3.66649000000325,15.251194969974,0,32
8,2,2,1.47622000001138,0.225446811994155,2.70291500000167,16.94577218886,1,33
8,1,1,1.42958999998518,0.832941306716558,1.82344999999623,16.94577218886,1,34
8,1,1,1.36571499999263,0.95839950764228,1.74903000000631,15.251194969974,1,35
8,2,2,1.0679850000015,0.927614579529113,2.85945999997784,15.251194969974,1,36
8,2,2,1.71176500001457,0.898311158393209,1.13159999999334,13.7260754729766,1,37
8,1,1,1.78698999999324,0.827509710535791,2.23148500002571,13.7260754729766,1,38
8,1,2,1.43202500001644,0.81014063425264,1.869944999984,12.3534679256789,0,39
8,2,2,1.16599500001757,0.914583132656021,1.31410499999765,13.7260754729766,1,40
8,1,1,2.12170499999775,0.958880306391671,2.24266499999794,13.7260754729766,1,41
8,2,2,1.31534000000102,0.971726464141372,1.38615999999456,12.3534679256789,1,42
8,1,1,1.49058499999228,0.948758468157127,1.49056000000564,12.3534679256789,1,43
8,2,2,1.46885999999358,0.931042542500379,1.86715999999433,11.1181211331111,1,44
8,1,1,1.44675000000279,0.93540303809864,1.3808999999892,11.1181211331111,1,45
8,2,2,1.13265000001411,0.915714404581334,1.39701499999501,10.0063090197999,1,46
8,2,2,1.18167499999981,0.907235462158449,2.8278949999949,10.0063090197999,1,47
8,1,1,1.15764499999932,0.74697375971252,2.9003199999861,9.00567811781995,1,48
8,2,2,1.22189000001526,0.888817008743992,1.89548499998637,9.00567811781995,1,49
8,1,1,1.35341000001063,0.768984599597725,2.3608200000017,8.10511030603796,1,50
8,1,2,1.51790999999503,0.177357334168714,1.23727000001236,8.10511030603796,0,51
8,2,2,1.29018999999971,0.879763050224585,1.17794999998296,9.00567811781995,1,52
8,1,1,1.33642499998678,0.803459709770663,1.82687000001897,9.00567811781995,1,53
8,2,2,1.09046499998658,0.77447406718025,2.56150000001071,8.10511030603796,1,54
8,2,1,1.46568499997375,0.629246608446352,1.20149500001571,8.10511030603796,0,55
8,1,2,1.58000999997603,0.509484766414909,1.4392200000002,9.00567811781995,0,56
8,2,2,1.18352500000037,0.945259774248702,1.55968499998562,10.0063090197999,1,57
8,1,1,2.48831499999505,0.901683185847627,0.825429999997141,10.0063090197999,1,58
8,1,1,1.45738999999594,0.842318105832549,1.79248999999254,9.00567811781995,1,59
8,2,2,1.83032999999705,0.933210234281782,1.69834500001161,9.00567811781995,1,60
8,1,2,1.71353000000818,0.940890070282993,0.818789999990258,8.10511030603796,0,61
8,2,2,1.10204500000691,0.915424193522313,1.44330499999342,9.00567811781995,1,62
8,2,2,1.13231000001542,0.921322866855391,1.46253499999875,9.00567811781995,1,63
8,1,1,1.66108999997959,1,1.55102000001352,8.10511030603796,1,64
8,2,2,1.82733000000007,0.943993589156604,2.38305999999284,8.10511030603796,1,65
8,1,1,1.48575500000152,0.958514918527682,0.81611499999417,7.29459927543416,1,66
8,1,1,1.41639500000747,0.631588888726208,1.98150500000338,7.29459927543416,1,67
8,2,2,1.16836500001955,1,1.33197499997914,6.56513934789075,1,68
8,1,1,1.57363500000793,1,1.29004500000156,6.56513934789075,1,69
8,2,2,1.67014999999083,1,1.21085000000312,5.90862541310167,1,70
8,2,1,1.57217500000843,1,2.01045500001055,5.90862541310167,0,71
8,1,1,1.34858499999973,0.99911052664123,1.64592999999877,6.56513934789075,1,72
8,2,2,1.15525999999954,1,1.35931999998866,6.56513934789075,1,73
8,1,1,1.15784999998868,0.934312110752508,3.80995500000427,5.90862541310167,1,74
8,1,1,1.45864500000607,0.955307765904724,2.84152499999618,5.90862541310167,1,75
8,2,2,1.19185000000289,0.832908742176688,2.22099499998149,5.3177628717915,1,76
8,2,2,1.47126500000013,1,1.26384999998845,5.3177628717915,1,77
8,1,2,1.35011500000837,0.571856302365378,1.32037999999011,4.78598658461235,0,78
8,2,2,2.33734500000719,0.934312110752508,1.11282000000938,5.3177628717915,1,79
8,1,1,1.2717699999921,0.912096088402958,1.20807500000228,5.3177628717915,1,80
8,1,2,2.23618499998702,0.909653485963833,1.45227000000887,4.78598658461235,0,81
8,2,2,1.57067499999539,0.806086380514836,2.32433500001207,5.3177628717915,1,82
8,1,1,1.5143200000166,1,2.64035499998135,5.3177628717915,1,83
8,2,2,1.5344149999728,0.957350638102647,0.946220000012545,4.78598658461235,1,84
8,2,2,1.25300999998581,0.942345339833887,1.98323499999242,4.78598658461235,1,85
8,1,1,1.13522500000545,0.880073733299189,2.52854500000831,4.30738792615112,1,86
8,2,2,1.10239500002353,1,1.53472499997588,4.30738792615112,1,87
8,1,1,1.14027999999234,0.992757901926897,1.50993000000017,3.87664913353601,1,88
8,1,2,1.38086000000476,0.39239850732237,1.15033999999287,3.87664913353601,0,89
8,2,2,1.68433000001824,0.93673816703857,1.01129999998375,4.30738792615112,1,90
8,1,1,1.21986499999184,0.925068620913441,1.90956000000006,4.30738792615112,1,91
8,2,2,1.16857500001788,0.833245190118833,2.08092499998747,3.87664913353601,1,92
8,1,1,1.14870499999961,0.949117420892722,1.83816000001389,3.87664913353601,1,93
8,2,2,1.19980499998201,0.959034117700285,3.33151499999803,3.48898422018241,1,94
8,1,1,1.16695499999332,0.725661511230133,2.75105000002077,3.48898422018241,1,95
8,2,1,1.46352000001934,0.861958577795969,1.15250999998534,3.14008579816417,0,96
9,2,2,0.951320000000123,1,1.1279599999998,48.6,1,1
9,1,1,0.762249999999767,1,1.16879499999959,48.6,1,2
9,2,2,0.739454999998998,1,1.5420950000007,43.74,1,3
9,1,1,0.809419999999591,1,1.14542500000061,43.74,1,4
9,2,2,1.01143500000035,1,0.972004999999626,39.366,1,5
9,1,1,0.737015000000611,1,1.2866699999995,39.366,1,6
9,2,2,1.04043499999898,0.863968560134832,4.41149000000041,35.4294,1,7
9,1,1,1.47676500000125,0.811198721565028,2.47152499999902,35.4294,1,8
9,1,1,0.79287000000113,1,1.07271500000024,31.88646,1,9
9,2,2,0.941549999999552,0.74277772196875,1.59943999999996,31.88646,1,10
9,1,1,0.766760000000431,1,1.00989500000105,28.697814,1,11
9,2,2,1.13673000000017,0.277647876476886,1.59803000000102,28.697814,1,12
9,1,1,0.761404999999286,1,1.31787500000064,25.8280326,1,13
9,2,1,0.85419999999975,0.613194230718356,1.13882000000012,25.8280326,0,14
9,1,1,0.862255000000005,0.880585058521234,1.78204999999981,28.697814,1,15
9,2,1,1.21153999999844,0.524572657763865,1.14145000000097,28.697814,0,16
9,1,1,0.829270000000193,1,0.925510000000941,31.88646,1,17
9,2,1,1.89081500000067,0.136386064649983,1.2080649999989,31.88646,0,18
9,1,1,0.732880000001373,1,1.04499000000034,35.4294,1,19
9,2,2,0.886870000000286,1,0.525744999999006,35.4294,1,20
9,1,1,0.791250000000233,1,0.730355000001495,31.88646,1,21
9,2,1,0.78385499999969,0.888759305111469,0.894795000000158,31.88646,0,22
9,2,1,0.782385000000446,0.872481739236074,1.52361999999994,35.4294,0,23
9,1,1,1.4341949999998,0.805872495304854,0.790940000000788,39.366,1,24
9,2,2,0.694824999998673,0.974716271480319,0.742980000000913,39.366,1,25
9,1,1,0.701184999999881,1,0.885030000001309,35.4294,1,26
9,2,2,0.983255000001023,1,0.769795000000158,35.4294,1,27
9,1,1,0.782424999999435,0.986578953881911,0.996129999999539,31.88646,1,28
9,2,1,0.735634999999078,1,0.581605000001204,31.88646,0,29
9,1,1,0.737945000000764,1,0.882040000000386,35.4294,1,30
9,1,1,0.793304999999236,1,0.920500000000175,35.4294,1,31
9,2,2,1.02127500000095,0.499342787548622,0.808619999999821,31.88646,1,32
9,2,1,0.89091499999995,0.565998145802028,1.13110499999856,31.88646,0,33
9,1,1,0.86585500000004,1,0.919265000000421,35.4294,1,34
9,1,1,1.12142000000132,1,0.67278499999881,35.4294,1,35
9,2,1,0.750634999998496,1,0.93853000000125,31.88646,0,36
9,1,1,0.998535000000644,0.80996102694955,0.618749999999622,35.4294,1,37
9,2,1,0.699689999999478,0.851830025928394,1.46337000000131,35.4294,0,38
9,1,1,0.725365000000224,0.870839606899606,1.34143500000029,39.366,1,39
9,2,1,0.722255000000587,0.849734229495021,1.37308999999915,39.366,0,40
9,2,1,0.708819999999832,0.865071075265171,1.36101500000042,43.74,0,41
9,1,1,0.595825000000332,0.882008405133062,1.18503000000055,48.6,1,42
9,1,1,0.4994200000001,0.850340136054421,1.69645000000126,48.6,1,43
9,2,1,0.746030000000232,0.603119462566711,0.73839500000031,43.74,0,44
9,2,2,0.833464999999705,0.117519172911627,0.700080000000511,48.6,1,45
9,1,1,0.670894999999291,1,0.735070000000647,48.6,1,46
9,2,2,0.761274999998946,0.742699339109172,0.777954999999551,43.74,1,47
9,1,1,0.69963499999902,0.713853686608498,0.990139999999898,43.74,1,48
9,2,2,1.20265499999915,1,0.734604999999632,39.366,1,49
9,1,1,0.640054999999877,1,0.778575000000244,39.366,1,50
9,1,1,0.66886999999953,1,0.839140000000072,35.4294,1,51
9,2,2,0.682745000000054,1,1.06102000000101,35.4294,1,52
9,2,2,0.732550000000629,1,0.742124999998836,31.88646,1,53
9,1,1,0.663005000000354,1,1.17338500000007,31.88646,1,54
9,1,1,0.687490000000282,1,1.0689550000006,28.697814,1,55
9,2,2,0.663720000000438,0.859015323153761,0.865310000001045,28.697814,1,56
9,2,1,0.931660000000207,1,0.546870000000112,25.8280326,0,57
9,1,1,0.711890000000538,1,0.844740000000456,28.697814,1,58
9,2,2,0.680865000000224,0.897803554235443,1.30296999999881,28.697814,1,59
9,1,1,0.689189999999129,1,0.957940000000235,25.8280326,1,60
9,2,1,1.31055499999999,0.649535770261825,0.803464999999094,25.8280326,0,61
9,1,1,0.722695000000356,1,1.63454499999899,28.697814,1,62
9,2,2,0.818735000000743,0.918214710809307,1.19059999999986,28.697814,1,63
9,1,1,0.656984999999637,1,1.04258500000101,25.8280326,1,64
9,2,1,1.38632999999938,0.997486708451714,0.614880000000994,25.8280326,0,65
9,1,1,1.08252499999979,1,0.65290499999898,28.697814,1,66
9,2,2,1.44580499999935,0,0.565984999999288,28.697814,1,67
9,1,1,0.660545000000624,1,0.835479999999749,25.8280326,1,68
9,2,2,0.727820000000065,1,0.776479999998643,25.8280326,1,69
9,1,1,0.772460000000079,0.179824251037589,0.375554999998771,23.24522934,1,70
9,1,1,0.85495999999874,0.91638136165908,1.08451500000048,23.24522934,1,71
9,2,2,1.68276999999944,0.334788834871889,0.596074999999488,20.920706406,1,72
9,2,1,0.814000000000291,0.520922528619213,0.781404999999737,20.920706406,0,73
9,1,1,0.806570000000647,0.434533202011508,0.835584999998915,23.24522934,1,74
9,1,1,0.956345000000554,1,0.632739999999059,23.24522934,1,75
9,2,1,0.796124999998952,1,0.574669999999925,20.920706406,0,76
9,1,1,0.916365000000922,1,0.536524999999558,23.24522934,1,77
9,2,2,0.787104999999458,0.529339827321666,0.801820000000589,23.24522934,1,78
9,2,2,0.73817999999848,0.855313241334676,0.830545000000682,20.920706406,1,79
9,1,1,0.901050000000396,0.608312368123221,0.648089999998745,20.920706406,1,80
9,1,1,1.36519000000041,0.688077903923943,0.617295000000042,18.8286357654,1,81
9,2,1,0.847644999999786,0.783537604790758,0.677504999999655,18.8286357654,0,82
9,1,1,1.29951499999879,0.824302248436229,0.982985000000568,20.920706406,1,83
9,2,2,1.13596999999939,1,0.584445000000414,20.920706406,1,84
9,1,1,1.24857999999949,0.685009138861295,0.778550000000861,18.8286357654,1,85
9,2,2,1.22558500000014,0.83994183991065,0.64764500000095,18.8286357654,1,86
9,1,2,1.95840499999939,0.897269790806369,0.671899999999383,16.94577218886,0,87
9,2,2,1.15564499999891,1,0.483690000000934,18.8286357654,1,88
9,2,1,1.23460499999969,0.672476720712976,0.846994999999879,18.8286357654,0,89
9,1,1,1.20505999999843,0.677343415255194,0.982535000001022,20.920706406,1,90
9,1,1,1.25395000000024,0.666552327144977,1.09484499999962,20.920706406,1,91
9,2,2,1.70538499999931,0.67993471468329,1.07713999999943,18.8286357654,1,92
9,1,2,1.20069999999943,0.257637715089388,0.583930000000692,18.8286357654,0,93
9,2,1,1.2170299999998,0.906836006720247,1.04334500000009,20.920706406,0,94
9,2,2,1.24607000000105,0.571460964603993,0.85791499999864,23.24522934,1,95
9,1,1,1.16950999999972,0.864359172264293,0.543465000000666,23.24522934,1,96
10,2,2,1.23063000000548,0.098423780285281,1.28496999992058,48.6,1,1
10,1,1,0.90742499998305,0.698702971112496,0.757534999982454,43.74,1,2
10,1,1,1.23397000005934,0.436972580608436,1.58520500001032,43.74,1,3
10,2,2,0.992274999967776,0.237183067305127,1.45270000002347,39.366,1,4
10,1,1,1.29514999990351,0.428976209079388,1.0928450000938,39.366,1,5
10,2,2,0.986034999950789,0.182324310278016,1.58547499997076,35.4294,1,6
10,1,1,1.11718000005931,0.23961068835022,0.977360000018962,35.4294,1,7
10,2,2,1.05702000006568,0,1.09787999989931,31.88646,1,8
10,1,1,1.32333000004292,0.654107109786393,1.06724499992561,31.88646,1,9
10,2,1,2.12535499990918,0,1.48673000000417,28.697814,0,10
10,1,1,1.70915499993134,0.555209443938247,0.968974999967031,31.88646,1,11
10,2,2,0.927685000002384,0.280554185567222,2.35328000003938,31.88646,1,12
10,2,2,0.865835000062361,0.229059508376507,1.19249000004493,28.697814,1,13
10,1,1,1.28403500001878,0.653293762181514,1.03283000004012,28.697814,1,14
10,1,1,0.985574999940582,0.293896623653728,1.14042000006884,25.8280326,1,15
10,2,2,1.42739499988966,0,0.941000000108033,25.8280326,1,16
10,1,1,1.48797500005458,0.233450794175219,1.3484499999322,23.24522934,1,17
10,2,2,1.01873999997042,0,0.884260000078939,23.24522934,1,18
10,1,2,1.42073999997228,0,1.55883999995422,20.920706406,0,19
10,2,1,1.03161000006367,0,2.19292999990284,23.24522934,0,20
10,1,2,2.51995999994688,0,0.983604999957606,25.8280326,0,21
10,2,2,0.973145000054501,0.064039541846878,2.60349999996834,28.697814,1,22
10,2,2,2.27902999997605,0,1.04570500005502,28.697814,1,23
10,1,1,1.03709999995772,0,1.52282499999274,25.8280326,1,24
10,2,1,1.24554499995429,0,1.71333500009496,25.8280326,0,25
10,1,1,0.998529999982566,0,1.08652500004973,28.697814,1,26
10,1,2,3.64526499994099,0,1.37334499997087,28.697814,0,27
10,2,1,1.08140500006266,0,1.16104499995708,31.88646,0,28
10,1,1,1.01889499998651,0.01226876531961,1.42849500000011,35.4294,1,29
10,2,2,1.50504499999806,0,1.00698499998543,35.4294,1,30
10,1,1,1.22290499997325,0,1.05255000002217,31.88646,1,31
10,2,1,2.91853000002448,0,1.17068999994081,31.88646,0,32
10,2,2,0.95265999995172,0,1.02302500000224,35.4294,1,33
10,1,1,0.96875,0,0.953959999955259,35.4294,1,34
10,2,1,1.03440499992575,0,1.23533499997575,31.88646,0,35
10,1,1,0.977094999980181,0,0.981645000050776,35.4294,1,36
10,1,2,1.83665499999188,0,2.65428000001702,35.4294,0,37
10,2,1,1.10236000001896,0,1.05114500003401,39.366,0,38
10,1,1,0.985739999916404,0,1.04840500000864,43.74,1,39
10,2,2,4.15803500008769,0,1.22254499990959,43.74,1,40
10,2,2,0.819514999981038,0,0.919025000068359,39.366,1,41
10,1,1,1.08854000002611,0,0.821549999993294,39.366,1,42
10,1,1,1.92149999993853,0,0.814790000091307,35.4294,1,43
10,2,2,1.4934399999911,0,1.32432500005234,35.4294,1,44
10,1,1,2.43523000006098,0,2.62426999991294,31.88646,1,45
10,2,2,0.96272500010673,0,1.10885499999858,31.88646,1,46
10,2,2,2.36940000008326,0,5.11316499998793,28.697814,1,47
10,1,1,0.966434999951161,0.052061888189039,1.46605500008445,28.697814,1,48
10,1,1,1.29616500006523,0.057216886664663,1.4535400000168,25.8280326,1,49
10,2,1,2.61952499998733,0,3.75350500002969,25.8280326,0,50
10,2,2,2.31969999999274,0,1.10623499995563,28.697814,1,51
10,1,1,1.69871999998577,0,0.959284999989904,28.697814,1,52
10,2,2,2.64870500005782,0,1.17406499991193,25.8280326,1,53
10,1,1,0.989610000047833,0,1.24973499996122,25.8280326,1,54
10,2,2,1.7001600000076,0,1.39650999999139,23.24522934,1,55
10,1,1,2.66713499999605,0,5.7670850000577,23.24522934,1,56
10,1,1,1.03726500004996,0.012566798078855,2.62319499999285,20.920706406,1,57
10,2,1,2.40321499994025,0,0.923725000000559,20.920706406,0,58
10,2,2,0.918214999954216,0,1.12349999998696,23.24522934,1,59
10,1,1,2.68420499993954,0,1.40957500005607,23.24522934,1,60
10,1,2,0.904314999934286,0,1.03559500002302,20.920706406,0,61
10,2,2,1.28803499997593,0,2.51178000005893,23.24522934,1,62
10,2,1,1.08461500005797,0,1.54567000002135,23.24522934,0,63
10,1,2,1.18779999995604,0,1.23748000001069,25.8280326,0,64
10,2,2,1.16537000006065,0,2.11812499992084,28.697814,1,65
10,1,1,1.31970500003081,0,2.04529999999795,28.697814,1,66
10,1,1,1.81910500000231,0,2.62072999996599,25.8280326,1,67
10,2,2,0.821619999944232,0,0.93975500005763,25.8280326,1,68
10,1,1,1.1816000000108,0,1.25505999999586,23.24522934,1,69
10,2,2,1.1547150000697,0,1.08682500000577,23.24522934,1,70
10,1,1,1.14338500006124,0,1.18782500002999,20.920706406,1,71
10,2,2,1.27356000000145,0,0.904180000070482,20.920706406,1,72
10,2,2,1.51061999995727,0,0.989939999999478,18.8286357654,1,73
10,1,1,0.986819999990985,0,2.07205499999691,18.8286357654,1,74
10,1,1,1.16749999998137,0,1.15753999992739,16.94577218886,1,75
10,2,2,0.92116500006523,0,1.16499499999918,16.94577218886,1,76
10,2,2,1.04850499995518,0,1.0675849999534,15.251194969974,1,77
10,1,1,1.56107000005431,0,1.54453499999363,15.251194969974,1,78
10,2,2,1.06774999992922,0,1.2555800001137,13.7260754729766,1,79
10,1,1,1.41345500003081,0,1.51954999996815,13.7260754729766,1,80
10,2,1,1.15917500003707,0,1.37317499995697,12.3534679256789,0,81
10,1,1,1.08749500010163,0,1.24188499990851,13.7260754729766,1,82
10,1,2,0.944209999986924,0,1.58636999991722,13.7260754729766,0,83
10,2,1,1.46671000006609,0,1.14607499993872,15.251194969974,0,84
10,2,1,2.34805999998935,0,0.951614999910817,16.94577218886,0,85
10,1,1,1.34645000007004,0,1.08588499994949,18.8286357654,1,86
10,1,1,1.20183000003453,0,1.05063499999233,18.8286357654,1,87
10,2,2,1.05406999995466,0.088435374149659,1.21860500006005,16.94577218886,1,88
10,1,2,3.07397999998648,0,1.23082500009332,16.94577218886,0,89
10,2,2,0.899650000035763,0,1.105179999955,18.8286357654,1,90
10,2,2,1.53031000006013,0,1.05686999997124,18.8286357654,1,91
10,1,1,1.11076000006869,0.137378638422394,1.31090499996208,16.94577218886,1,92
10,1,1,0.982514999923296,0,1.5065000000177,16.94577218886,1,93
10,2,2,0.836475000018254,0,0.961300000082701,15.251194969974,1,94
10,1,1,1.07303000008687,0,0.883929999894463,15.251194969974,1,95
10,2,1,0.953625000081956,0,1.04899999999907,13.7260754729766,0,96
11,2,2,0.611000000000015,1,1.006,48.6,1,1
11,1,1,0.516999999999985,1,2.01900000000001,48.6,1,2
11,2,2,0.500999999999985,1,0.644,43.74,1,3
11,1,1,0.477,1,1.733,43.74,1,4
11,2,2,0.700000000000015,1,1.25,39.366,1,5
11,1,1,0.717,1,0.876,39.366,1,6
11,2,2,0.751000000000015,1,0.919999999999985,35.4294,1,7
11,1,1,0.685,1,0.952999999999985,35.4294,1,8
11,2,2,0.491,1,1.236,31.88646,1,9
11,1,1,0.709,1,0.683,31.88646,1,10
11,2,2,0.689,1,1.25500000000003,28.697814,1,11
11,1,1,0.717,1,1.062,28.697814,1,12
11,2,2,0.579,1,0.915,25.8280326,1,13
11,1,1,0.679,1,1.968,25.8280326,1,14
11,1,1,0.618,1,0.961,23.24522934,1,15
11,2,2,0.511,1,0.977000000000029,23.24522934,1,16
11,2,2,0.819,1,1.026,20.920706406,1,17
11,1,1,0.533,1,1.601,20.920706406,1,18
11,2,2,0.511,1,0.864,18.8286357654,1,19
11,1,1,0.748,1,0.926,18.8286357654,1,20
11,2,2,0.533999999999971,1,1.075,16.94577218886,1,21
11,1,1,0.527,1,1.148,16.94577218886,1,22
11,1,1,0.567,1,1.27,15.251194969974,1,23
11,2,2,0.460999999999971,1,1.092,15.251194969974,1,24
11,2,2,0.609000000000029,1,1.51099999999997,13.7260754729766,1,25
11,1,1,0.596,1,1.088,13.7260754729766,1,26
11,2,2,0.616,1,0.931000000000029,12.3534679256789,1,27
11,1,1,0.521,1,0.884,12.3534679256789,1,28
11,2,2,0.561,1,0.914,11.1181211331111,1,29
11,1,1,0.531000000000029,1,1.09599999999997,11.1181211331111,1,30
11,1,1,0.612,1,0.918,10.0063090197999,1,31
11,2,2,1.756,1,1.56600000000003,10.0063090197999,1,32
11,2,2,0.783999999999971,1,1.386,9.00567811781995,1,33
11,1,1,1.29699999999997,0,4.423,9.00567811781995,1,34
11,2,2,0.876999999999971,0,0.965,8.10511030603796,1,35
11,1,1,0.641,0.765987412928672,1.633,8.10511030603796,1,36
11,1,1,0.696,0.865461260291754,1.05700000000003,7.29459927543416,1,37
11,2,2,1.00999999999997,0.155998403217534,1.28500000000003,7.29459927543416,1,38
11,2,2,1.07500000000006,0,1.221,6.56513934789075,1,39
11,1,1,0.645,0.6664093800252,1.069,6.56513934789075,1,40
11,1,1,0.575000000000058,0.749778074136267,0.827999999999942,5.90862541310167,1,41
11,2,2,1.485,0.136800065184958,1.593,5.90862541310167,1,42
11,1,1,0.54,0.444426933961813,0.864,5.3177628717915,1,43
11,2,1,0.997,0.476825569415876,0.69,5.3177628717915,0,44
11,2,2,0.537,0.118494866833993,1.022,5.90862541310167,1,45
11,1,1,1.255,0.531710778628794,1.098,5.90862541310167,1,46
11,1,1,0.612,0.616766507477431,0.74,5.3177628717915,1,47
11,2,2,0.751,0.313381840465502,1.21800000000006,5.3177628717915,1,48
11,2,2,0.935,0,1.152,4.78598658461235,1,49
11,1,1,0.574000000000058,0.34547210489369,0.985999999999942,4.78598658461235,1,50
11,1,1,0.544,0.53485914439358,0.724,4.30738792615112,1,51
11,2,2,0.869999999999942,0.16567457062445,1.2,4.30738792615112,1,52
11,1,1,0.56,0.670544647230695,0.764,3.87664913353601,1,53
11,2,2,0.54,0.152258666169848,1.00600000000006,3.87664913353601,1,54
11,2,2,0.728,0.0696666578478,0.897,3.48898422018241,1,55
11,1,1,0.714,0.746115619162976,0.971,3.48898422018241,1,56
11,1,1,0.587,0.836214903666858,0.672000000000058,3.14008579816417,1,57
11,2,2,1.001,0.098711304824009,0.859,3.14008579816417,1,58
11,1,1,0.583,0.822122691063818,1.087,2.82607721834775,1,59
11,2,2,0.623,0.505260483779667,1.663,2.82607721834775,1,60
11,2,2,0.907,0.640519832423342,0.685,2.54346949651297,1,61
11,1,1,0.506,0.822266549712555,0.749,2.54346949651297,1,62
11,2,2,0.466,0.668379825628862,1.407,2.28912254686168,1,63
11,1,1,0.683,0.87947664112247,0.792,2.28912254686168,1,64
11,1,1,0.643000000000058,0.904364267675755,1.02099999999994,2.06021029217551,1,65
11,2,2,0.894,0.844123682214075,1.176,2.06021029217551,1,66
11,1,1,0.562,0.999068295306867,0.891000000000058,1.85418926295796,1,67
11,2,2,0.546,0.86910335409304,1.124,1.85418926295796,1,68
11,2,2,0.844,0.927939561007747,0.65,1.66877033666216,1,69
11,1,1,1.545,0.905137312364715,0.76,1.66877033666216,1,70
11,1,1,0.624,0.97438495454457,0.686,1.50189330299595,1,71
11,2,2,0.794,0.927053238168027,0.948,1.50189330299595,1,72
11,2,2,0.622,0.888759305111469,1.053,1.35170397269635,1,73
11,1,1,0.866000000000058,1,0.726999999999942,1.35170397269635,1,74
11,2,2,0.618,0.956766476485328,0.837,1.21653357542672,1,75
11,1,1,0.560999999999942,1,0.714,1.21653357542672,1,76
11,1,1,0.601,1,1.35299999999994,1.09488021788405,1,77
11,2,2,0.793,1,0.819,1.09488021788405,1,78
11,1,1,0.657,0.968404358372406,0.846,0.98539219609564,1,79
11,2,2,1.063,1,0.783,0.98539219609564,1,80
11,1,1,0.805999999999942,1,1.141,0.886852976486076,1,81
11,2,2,0.753,0.871569771672446,0.922,0.886852976486076,1,82
11,2,2,0.785,0.878367020669126,0.652000000000058,0.798167678837469,1,83
11,1,1,0.493,1,0.727,0.798167678837469,1,84
11,1,1,0.629,1,0.63,0.718350910953722,1,85
11,2,2,0.692000000000058,0.980107076137358,0.682999999999942,0.718350910953722,1,86
11,2,2,0.493,0.932058896060064,0.659,0.646515819858349,1,87
11,1,1,0.561,1,0.851,0.646515819858349,1,88
11,1,1,0.527,1,0.814,0.581864237872514,1,89
11,2,2,0.462,1,0.657,0.581864237872514,1,90
11,1,1,0.834,1,0.841,0.523677814085263,1,91
11,2,2,0.651,1,0.557,0.523677814085263,1,92
11,2,2,0.523,0.986906694785248,1.023,0.471310032676737,1,93
11,1,1,0.683,1,0.775,0.471310032676737,1,94
11,2,2,0.53,1,0.739,0.424179029409063,1,95
11,1,1,0.659,1,1.066,0.424179029409063,1,96
12,2,2,0.983410000000731,0.134723887933376,1.61318000000028,48.6,1,1
12,1,1,0.880859999997483,0.731709315917725,1.15255500000058,48.6,1,2
12,1,1,0.869665000001987,0.609881697612139,1.36347000000023,43.74,1,3
12,2,2,0.602154999996856,0.407448936494059,1.38601000000199,43.74,1,4
12,2,1,1.16727000000174,0.469009709435887,1.36620000000039,39.366,0,5
12,1,1,0.866705000000366,0.76193033568276,1.68846000000121,43.74,1,6
12,1,1,0.700694999999541,0.728316222779979,1.05017500000031,43.74,1,7
12,2,1,0.835654999998951,0.649798533896028,1.86642999999822,39.366,0,8
12,1,1,0.812050000000454,0.656571131723678,1.10609499999919,43.74,1,9
12,2,1,0.97673500000019,0.709684225720255,1.02588500000275,43.74,0,10
12,1,1,0.558554999999615,0.616644655752179,2.15102000000115,48.6,1,11
12,2,1,0.565614999999525,0.488294612503031,1.91530000000057,48.6,0,12
12,2,1,0.668070000003354,0.755514232338458,1.68951499999821,54,0,13
12,1,1,0.665730000000622,0.66090097892473,2.33836499999961,60,1,14
12,2,1,0.833150000002206,0.73054442697709,2.30446999999913,60,0,15
12,1,1,0.50338499999998,0.892967443832273,1.83019499999864,66.6666666666667,1,16
12,2,2,2.08295499999804,0.21877643156468,2.74877500000002,66.6666666666667,1,17
12,1,1,0.730149999999412,0.697602460488734,1.27006999999867,60,1,18
12,2,2,0.613509999999224,0.691662351703526,1.35339500000191,60,1,19
12,1,1,0.502090000001772,0.865621880835562,1.54782499999783,54,1,20
12,2,2,0.653419999998732,0.56766094134947,1.19703500000105,54,1,21
12,1,1,0.485325000001467,0.78076100329019,1.87208499999906,48.6,1,22
12,1,1,0.537509999998292,0.816543614166788,1.97465000000011,48.6,1,23
12,2,1,0.783129999999801,0.767030643720963,1.84821999999986,43.74,0,24
12,1,1,0.553085000003193,0.879137089344276,1.89260999999897,48.6,1,25
12,2,2,0.983114999999088,0.57607816137994,1.58620499999961,48.6,1,26
12,1,1,0.632594999999128,0.875485437695018,1.78293499999927,43.74,1,27
12,2,1,0.617529999999533,0.514336415841004,1.60157999999865,43.74,0,28
12,1,1,0.740594999999303,0.880110169555072,2.07910500000071,48.6,1,29
12,2,1,1.08512500000146,0.570391213031623,1.15748499999969,48.6,0,30
12,1,1,0.590524999999616,0.913406335408393,1.63745000000199,54,1,31
12,2,1,1.05997000000207,0.685092983327359,1.1090199999999,54,0,32
12,2,2,1.62932999999973,0.464531000967339,1.27393999999913,60,1,33
12,1,1,0.715049999998882,0.894931347944581,1.27122500000044,60,1,34
12,1,1,0.565814999998081,0.932166520041722,1.30449500000034,54,1,35
12,2,2,0.636580000002112,0.577589240537345,1.33333000000136,54,1,36
12,1,1,0.552589999999327,0.948635163000358,1.51573000000278,48.6,1,37
12,2,1,0.684714999999444,0.853689255903672,0.90969000000041,48.6,0,38
12,1,1,0.615254999996978,0.967321094803903,1.12355999999994,54,1,39
12,2,1,0.569379999997211,0.785907383176925,1.00679500000115,54,0,40
12,2,2,0.987939999999013,0.371322380427126,3.10968499999947,60,1,41
12,1,1,0.601910000001255,0.911893738411662,1.60978999999858,60,1,42
12,1,1,0.866149999997986,0.925408353330808,1.17695500000264,54,1,43
12,2,2,0.704349999999977,0.932166520041722,0.769254999999248,54,1,44
12,2,2,0.901024999999208,0.41297138002219,1.01676500000031,48.6,1,45
12,1,1,0.836899999998393,0.865965981600904,1.85282000000007,48.6,1,46
12,1,1,0.562625000002328,0.872664034471996,1.36957500000059,43.74,1,47
12,2,2,0.578949999999139,0.779030792801172,0.824880000000121,43.74,1,48
12,1,2,1.46905500000145,0.336433059967579,1.24645999999845,39.366,0,49
12,2,2,0.668945000001288,0.511336885995717,1.2237999999997,43.74,1,50
12,1,1,0.494815000001807,0.922632281082479,1.38146499999857,43.74,1,51
12,2,1,1.30351499999955,0.319727891156462,0.866150000001653,39.366,0,52
12,1,1,1.00972499999992,0.737668323001059,1.15581000000017,43.74,1,53
12,2,2,0.652480000000622,0.671028095588437,1.6029549999985,43.74,1,54
12,2,1,0.999799999997718,0.796608244986779,1.17129000000207,39.366,0,55
12,1,1,0.628595000001951,0.890529706218135,1.09241999999725,43.74,1,56
12,2,1,0.764220000000903,0.778001156953345,0.988030000000435,43.74,0,57
12,1,1,0.717215000000608,0.907342875994725,1.07042500000173,48.6,1,58
12,1,1,0.684590000000724,0.856402150592447,1.53605999999854,48.6,1,59
12,2,2,0.670665000001434,0.703774225007817,0.95972499999695,43.74,1,60
12,1,1,0.685499999999534,0.938625754404211,1.03243999999907,43.74,1,61
12,2,1,1.08790500000032,0.857767401806633,0.825069999998959,39.366,0,62
12,2,2,0.70652500000142,0.794339597240518,0.936389999998908,43.74,1,63
12,1,1,0.533480000001902,0.869743372541432,1.19604500000057,43.74,1,64
12,2,2,1.36470499999996,0.235413299985247,0.99965499999962,39.366,1,65
12,1,1,1.63378500000184,0.805677363744138,1.40067999999883,39.366,1,66
12,2,2,0.649089999999036,0.75821456031779,0.685795000001206,35.4294,1,67
12,1,1,0.486124999999418,0.982083402463278,1.21494499999972,35.4294,1,68
12,2,2,0.950375000000349,0.621624650530214,1.21921999999904,31.88646,1,69
12,1,1,0.632685000000463,0.951006870326083,1.35084999999887,31.88646,1,70
12,2,2,0.842219999998633,0.721918290180718,0.767920000002021,28.697814,1,71
12,1,1,0.627585000001942,0.951704696787445,1.10827499999874,28.697814,1,72
12,1,1,0.850029999997816,0.830859174698388,0.988659999999101,25.8280326,1,73
12,2,2,0.639889999998501,0.727253167636434,1.11197000000178,25.8280326,1,74
12,1,1,0.606260000000475,0.837608265060398,1.01799000000034,23.24522934,1,75
12,2,2,0.655790000000678,0.525646504251395,1.22799499999749,23.24522934,1,76
12,2,1,1.64061500000022,0.873028526808136,1.09740500000049,20.920706406,0,77
12,1,2,1.05025499999826,0.57294946601175,1.15048999999999,23.24522934,0,78
12,2,1,0.583585000000312,0.731709315917725,1.11871500000055,25.8280326,0,79
12,1,2,1.32298499999888,0.444899533885519,1.30221499999973,28.697814,0,80
12,1,2,1.45779000000039,0.560986189914006,0.971644999997807,31.88646,0,81
12,2,2,0.830294999999751,0.454427967054444,1.50305500000104,35.4294,1,82
12,1,1,0.682494999997318,0.974115687171362,1.01653500000248,35.4294,1,83
12,2,2,0.60177499999915,0.75718681923265,0.981799999997776,31.88646,1,84
12,1,1,0.52316499999864,0.918563561138436,1.01961999999918,31.88646,1,85
12,2,1,2.7631149999979,0.864152396481458,1.08972999999975,28.697814,0,86
12,1,2,0.765734999997192,0.836758314152115,0.954250000002503,31.88646,0,87
12,2,2,0.602944999998668,0.716334879120922,0.864874999999302,35.4294,1,88
12,2,1,0.893439999999769,0.902307399383579,0.858850000000559,35.4294,0,89
12,1,1,0.758495000001858,1,0.800429999999353,39.366,1,90
12,2,2,0.480270000000019,0.862335539267326,1.0033450000009,39.366,1,91
12,1,1,0.554664999999572,0.955418949619874,1.10277000000142,35.4294,1,92
12,2,2,0.501370000001742,0.97628868745883,2.11847000000125,35.4294,1,93
12,1,1,0.542679999998654,0.896869288410492,1.31980500000285,31.88646,1,94
12,2,2,0.586859999999404,0.928825150824339,1.69686999999976,31.88646,1,95
12,1,1,0.795884999999544,0.974861191757326,1.20425000000244,28.697814,1,96
13,1,1,0.994085000000021,1,6.06125,60,1,1
13,2,2,0.972070000000007,0.986722352227908,2.80884500000003,54,1,2
13,1,1,0.752080000000016,1,2.73560500000004,54,1,3
13,2,2,0.783824999999953,1,2.28615500000003,48.6,1,4
13,1,1,0.899059999999998,0.984220511957883,2.77309499999997,48.6,1,5
13,2,2,0.806869999999937,0.979488760470222,2.93245999999996,43.74,1,6
13,1,1,0.9549549999999,0.972726893901189,4.56369500000007,43.74,1,7
13,2,2,0.901879999999888,0.963291244853215,1.7223899999999,39.366,1,8
13,2,2,1.343435,0.915856964496111,3.52667999999993,39.366,1,9
13,1,1,0.845905000000086,1,2.5495799999999,35.4294,1,10
13,2,2,0.957100000000093,1,2.15119000000006,35.4294,1,11
13,1,1,0.86672499999986,0.998399429898184,1.70357500000001,31.88646,1,12
13,1,1,0.746405000000086,0.964545618782293,1.61991499999998,31.88646,1,13
13,2,2,0.821940000000061,0.916490578394383,3.96600499999995,28.697814,1,14
13,1,1,0.599860000000044,0.984220511957883,2.05034000000003,28.697814,1,15
13,2,2,0.757769999999902,1,2.29111499999999,25.8280326,1,16
13,1,1,1.12203500000032,0.926101244920564,2.82895999999979,25.8280326,1,17
13,2,2,2.70279999999999,0.660814610589315,2.06602499999967,23.24522934,1,18
13,1,1,0.690164999999979,0.966904173414083,3.49879999999987,23.24522934,1,19
13,2,2,0.875359999999986,0.962558869392082,2.37143999999989,20.920706406,1,20
13,1,1,0.722379999999714,1,1.73664499999996,20.920706406,1,21
13,2,2,0.638205000000191,1,1.7712099999999,18.8286357654,1,22
13,1,1,0.788769999999669,1,1.62542500000022,18.8286357654,1,23
13,2,2,1.50421499999991,0.905755337792194,2.38112499999988,16.94577218886,1,24
13,1,1,0.754405000000144,0.958637640825586,3.10018500000023,16.94577218886,1,25
13,2,2,1.79478500000003,0.734931149698227,2.20392999999964,15.251194969974,1,26
13,1,1,0.857320000000123,0.930960515312482,3.207625,15.251194969974,1,27
13,2,2,1.11625000000006,0.911454898833163,4.26905499999976,13.7260754729766,1,28
13,2,2,1.08804499999998,0.87514455466233,2.21032500000001,13.7260754729766,1,29
13,1,1,0.672415000000037,0.992708355420813,2.1069699999998,12.3534679256789,1,30
13,2,2,0.836449999999779,0.924454892922731,2.57506999999983,12.3534679256789,1,31
13,1,1,0.598339999999967,1,1.79298500000004,11.1181211331111,1,32
13,2,1,0.768364999999991,0.946470722524536,4.14116499999992,11.1181211331111,0,33
13,1,1,0.887369999999879,0.989852095601817,2.44106499999994,12.3534679256789,1,34
13,1,1,0.847295000000042,0.968071159009201,2.73498499999999,12.3534679256789,1,35
13,2,2,0.983894999999902,0.905843597406916,3.28682500000007,11.1181211331111,1,36
13,1,1,0.767820000000065,0.96021200028203,1.89751000000024,11.1181211331111,1,37
13,2,2,1.14457499999972,0.877755081636733,2.36022499999998,10.0063090197999,1,38
13,1,1,0.742069999999716,0.959183673469387,3.49815000000037,10.0063090197999,1,39
13,2,2,1.00337499999977,0.85092239013421,2.91665000000014,9.00567811781995,1,40
13,2,1,1.051375,0.906174504827278,3.5594700000002,9.00567811781995,0,41
13,1,1,0.826130000000005,0.934123397396642,2.99719499999983,10.0063090197999,1,42
13,1,1,0.811755000000121,0.914216546647647,2.76366499999992,10.0063090197999,1,43
13,2,2,0.915115000000224,0.913756773265922,3.86632999999984,9.00567811781995,1,44
13,1,1,1.07715000000002,0.988871147064223,3.70837000000023,9.00567811781995,1,45
13,2,2,0.956074999999953,0.947702009651795,2.4621749999997,8.10511030603796,1,46
13,2,2,3.18391999999993,0.573014113255852,2.77171500000032,8.10511030603796,1,47
13,1,2,7.19106500000006,0.018841691483057,2.239125,7.29459927543416,0,48
13,2,2,2.74677000000014,0.305916258570629,4.24447499999998,8.10511030603796,1,49
13,1,1,0.893314999999711,0.90277220717833,4.29311499999999,8.10511030603796,1,50
13,1,1,0.732150000000373,0.946258290949088,4.48497999999963,7.29459927543416,1,51
13,2,2,1.02549499999988,0.88203098199916,2.42137499999988,7.29459927543416,1,52
13,2,2,0.912659999999916,0.913822467425719,1.67412000000011,6.56513934789075,1,53
13,1,1,0.952690000000061,0.947128997301264,3.52112499999977,6.56513934789075,1,54
13,1,1,0.767600000000093,1,1.69901500000013,5.90862541310167,1,55
13,2,2,0.90140000000014,0.868760320502677,4.87653499999992,5.90862541310167,1,56
13,1,1,0.916140000000247,0.89775908440669,3.6078600000001,5.3177628717915,1,57
13,2,2,0.830934999999939,0.82171497504416,3.08750000000012,5.3177628717915,1,58
13,1,1,0.722845000000321,0.921937132142756,2.8852350000001,4.78598658461235,1,59
13,2,2,1.84191499999992,0.718298564705589,2.60422500000009,4.78598658461235,1,60
13,2,1,0.884624999999651,0.901930974952271,2.78794500000007,4.30738792615112,0,61
13,1,1,0.821080000000191,0.981898269389423,2.73540499999991,4.78598658461235,1,62
13,1,1,0.701074999999953,1,2.01244000000006,4.78598658461235,1,63
13,2,1,0.978344999999972,0.920306095788284,2.87456499999959,4.30738792615112,0,64
13,2,2,3.31959499999997,0.021678729557113,2.96797000000009,4.78598658461235,1,65
13,1,1,0.693444999999949,0.919761860667571,3.9851549999998,4.78598658461235,1,66
13,1,1,0.630044999999925,0.857351082027987,4.20347000000032,4.30738792615112,1,67
13,2,1,1.63284999999998,0.632653061224489,2.14851999999979,4.30738792615112,0,68
13,1,1,0.829869999999995,0.952465454973103,2.45654500000004,4.78598658461235,1,69
13,2,2,0.882050000000163,0.925191732524325,4.70506000000017,4.78598658461235,1,70
13,1,1,0.906375,0.877551020408163,2.37327000000014,4.30738792615112,1,71
13,2,2,0.981510000000009,0.802745558338497,1.76677500000002,4.30738792615112,1,72
13,1,1,0.955120000000112,0.755514232338458,2.55839500000002,3.87664913353601,1,73
13,2,2,0.947915000000154,0.689858163161869,1.69175,3.87664913353601,1,74
13,2,2,1.21311499999999,0.550786942182605,2.19129999999993,3.48898422018241,1,75
13,1,1,0.974569999999832,0.831856713446644,2.46328000000049,3.48898422018241,1,76
13,1,1,0.914435000000172,0.725602860566384,2.04524999999965,3.14008579816417,1,77
13,2,2,0.98,0.474206284106044,1.91658499999996,3.14008579816417,1,78
13,1,1,0.772480000000098,0.948635163000358,2.29633000000007,2.82607721834775,1,79
13,2,2,0.87283499999973,0.616522784474339,3.00715500000014,2.82607721834775,1,80
13,1,1,0.838104999999749,0.914041418467269,2.21536000000022,2.54346949651297,1,81
13,2,2,0.885749999999884,0.68724209310376,2.77029499999981,2.54346949651297,1,82
13,2,1,0.992210000000312,0.680525063735388,2.39034999999974,2.28912254686168,0,83
13,1,1,0.718525000000256,0.916490578394383,2.10530499999959,2.54346949651297,1,84
13,1,1,0.886835000000312,0.935325864280759,2.21846000000008,2.54346949651297,1,85
13,2,1,1.99031000000017,0.2918787839094,1.64004500000004,2.28912254686168,0,86
13,2,2,1.30161999999965,0.343335194155255,1.72712500000035,2.54346949651297,1,87
13,1,1,0.781155000000144,0.640253955437178,2.88589000000001,2.54346949651297,1,88
13,1,1,0.731690000000061,0.673696113639382,2.31533000000042,2.28912254686168,1,89
13,2,2,1.36363000000035,0.380245127264338,2.36047000000009,2.28912254686168,1,90
13,2,2,1.24788500000013,0.547845209433921,2.32715000000014,2.06021029217551,1,91
13,1,1,0.715070000000182,0.840506721066266,8.25635499999998,2.06021029217551,1,92
13,2,2,2.60592500000028,0.215175438556211,2.57078999999969,1.85418926295796,1,93
13,1,1,0.928065000000061,0.674602388342846,2.5339249999997,1.85418926295796,1,94
13,2,2,0.895930000000168,0.842997741178192,6.71462500000012,1.66877033666216,1,95
13,1,1,1.02923999999976,0.724082871063423,2.51303999999992,1.66877033666216,1,96
14,1,1,1.885,1,5.938,74.0740740740741,1,1
14,2,1,1.771,1,4.405,66.6666666666667,0,2
14,2,1,2.318,1,1.654,74.0740740740741,0,3
14,1,2,2.834,1,10.903,82.3045267489712,0,4
14,1,1,0.791,1,2.929,91.4494741655236,1,5
14,2,2,1.307,1,10.67,91.4494741655236,1,6
14,1,1,0.701,1,11.699,82.3045267489712,1,7
14,2,2,0.71,1,23.102,82.3045267489712,1,8
14,1,1,0.855,0.957628868775138,26.172,74.0740740740741,1,9
14,2,2,1.431,0.088835188652059,2.829,74.0740740740741,1,10
14,2,2,0.882,1,2.575,66.6666666666667,1,11
14,1,1,0.909,0.996918424006843,3.12,66.6666666666667,1,12
14,2,2,1.104,0.485354905067493,2.205,60,1,13
14,1,1,0.886,0.997912736003736,2.149,60,1,14
14,2,2,0.79,0.992789857286868,2.347,54,1,15
14,1,1,0.757,0.979014487673265,2.14,54,1,16
14,1,1,0.705,0.945578231292516,1.667,48.6,1,17
14,2,2,0.779,0.982412452721232,3.065,48.6,1,18
14,1,1,0.626,0.971668592756646,1.726,43.74,1,19
14,2,2,0.656,0.960987857163898,2.165,43.74,1,20
14,1,1,0.837,0.983378481868363,3.62,39.366,1,21
14,2,2,0.745,0.96855010168214,1.617,39.366,1,22
14,1,1,0.903,0.948507961798893,1.616,35.4294,1,23
14,2,2,0.777,0.979674290931498,1.661,35.4294,1,24
14,2,2,0.797,0.965005200035332,1.901,31.88646,1,25
14,1,1,0.676,0.95996025380257,1.982,31.88646,1,26
14,2,2,0.675,0.945323099349921,1.516,28.697814,1,27
14,1,1,0.651,0.935325864280759,1.851,28.697814,1,28
14,1,1,0.602,0.982782519285608,2.551,25.8280326,1,29
14,2,2,1.898,0.584779661835131,3.218,25.8280326,1,30
14,1,1,0.972,0.612367459563759,2.618,23.24522934,1,31
14,2,1,2.118,0.979076360712288,2.669,23.24522934,0,32
14,2,2,0.688,0.979756739072174,2.927,25.8280326,1,33
14,1,1,0.664,0.974861191757326,4.544,25.8280326,1,34
14,2,2,0.789,0.963291244853215,1.547,23.24522934,1,35
14,1,1,0.578,0.986476515344061,2.77,23.24522934,1,36
14,2,2,1.209,0.952634440602655,2.52,20.920706406,1,37
14,1,1,0.76,0.952634440602655,2.276,20.920706406,1,38
14,1,1,0.708,0.980663269296335,2.765,18.8286357654,1,39
14,2,2,0.962,0.398718074489663,2.877,18.8286357654,1,40
14,2,2,1.257,0.992300758315695,2.116,16.94577218886,1,41
14,1,1,0.817,0.967800360922914,1.751,16.94577218886,1,42
14,2,1,0.873,0.967800360922914,1.627,15.251194969974,0,43
14,1,1,0.695,0.952634440602655,1.505,16.94577218886,1,44
14,1,1,0.817,0.949143819636523,2.049,16.94577218886,1,45
14,2,2,0.611,0.945684518619966,1.609,15.251194969974,1,46
14,1,1,0.962,0.971813909267611,3.082,15.251194969974,1,47
14,2,2,0.771,0.96588205343561,1.526,13.7260754729766,1,48
14,2,1,0.871,0.950689529271764,1.846,13.7260754729766,0,49
14,1,1,0.579,0.986415047760997,2.774,15.251194969974,1,50
14,1,1,0.594,0.958784676238207,1.64,15.251194969974,1,51
14,2,2,1.079,0.988932481256349,1.956,13.7260754729766,1,52
14,1,1,0.696,0.967675354919354,1.55,13.7260754729766,1,53
14,2,1,0.609,0.958511594848363,1.644,12.3534679256789,0,54
14,2,1,0.59,0.958511594848363,1.497,13.7260754729766,0,55
14,1,1,0.742,0.952359825714182,1.919,15.251194969974,1,56
14,2,2,0.697,0.979756739072174,2.528,15.251194969974,1,57
14,1,1,1.335,0.976764114908352,1.783,13.7260754729766,1,58
14,1,2,0.911,0.967675354919354,1.985,13.7260754729766,0,59
14,2,2,2.942,0.295324705175181,2.946,15.251194969974,1,60
14,2,1,2.115,0.963333080234094,2.073,15.251194969974,0,61
14,1,2,2.956,0.954048673237897,1.763,16.94577218886,0,62
14,2,2,1.269,0.948147477856886,1.555,18.8286357654,1,63
14,1,1,2.534,0.270376667986052,2.202,18.8286357654,1,64
14,1,2,1.902,0.960715320956067,3.281,16.94577218886,0,65
14,2,2,1.481,0.943301189606479,1.503,18.8286357654,1,66
14,1,2,1.351,0.91288046051627,2.571,18.8286357654,0,67
14,2,2,2.418,0.937148478928469,1.726,20.920706406,1,68
14,2,1,2.666,0.414883020211418,2.568,20.920706406,0,69
14,1,1,0.885,0.076524020361865,3.098,23.24522934,1,70
14,2,1,1.047,0.042821007672873,1.439,23.24522934,0,71
14,1,2,0.959,0,3.156,25.8280326,0,72
14,1,2,1.672,0,1.486,28.697814,0,73
14,2,1,1.119,0,1.993,31.88646,0,74
14,2,2,2.102,0,2.245,35.4294,1,75
14,1,2,1.091,0,2.429,35.4294,0,76
14,2,1,1.034,0,1.553,39.366,0,77
14,1,1,1.689,0,1.429,43.74,1,78
14,2,1,2.084,0,1.579,43.74,0,79
14,1,2,3.031,0,2.699,48.6,0,80
14,1,2,1.633,0,2.061,54,0,81
14,2,2,1.002,1,3.454,60,1,82
14,1,1,1.089,0.98047790217513,2.034,60,1,83
14,2,2,0.706,0.960463689320096,1.457,54,1,84
14,2,2,0.817,0.940464176184728,1.495,54,1,85
14,1,1,0.663,1,1.777,48.6,1,86
14,1,2,0.982,0.967133499557612,1.833,48.6,0,87
14,2,2,1.176,0.98047790217513,1.853,54,1,88
14,1,1,0.629,0.98047790217513,1.695,54,1,89
14,2,2,0.643,0.967133499557612,1.57,48.6,1,90
14,1,1,0.622,0.987152438082305,2.752,48.6,1,91
14,2,2,0.584,0.98047790217513,1.57,43.74,1,92
14,2,1,1.176,0.973804913366128,1.718,43.74,0,93
14,1,1,0.632,0.967133499557612,1.775,48.6,1,94
14,2,2,0.506,0.98047790217513,1.71,48.6,1,95
14,1,1,0.749,0.973804913366128,1.498,43.74,1,96
15,2,2,1.046,1,1.6,48.6,1,1
15,1,1,1.733,0,1.131,48.6,1,2
15,2,2,0.997,1,1.395,43.74,1,3
15,1,1,0.827,0.967571172499895,0.862,43.74,1,4
15,2,2,0.927,0.993930269868598,0.993,39.366,1,5
15,1,1,0.902,0.980745644867393,0.97,39.366,1,6
15,2,2,0.859,1,1.051,35.4294,1,7
15,1,1,0.844,1,0.989,35.4294,1,8
15,2,2,1.052,0.187757901502663,1.195,31.88646,1,9
15,1,1,0.678,0.999453221971961,1.741,31.88646,1,10
15,1,1,0.829,0.96730025245308,0.958,28.697814,1,11
15,2,2,0.864,0.146398525516589,0.834,28.697814,1,12
15,2,1,0.988,0.322967845327074,0.983,25.8280326,0,13
15,1,1,0.848,1,1.188,28.697814,1,14
15,1,1,0.832,1,0.743,28.697814,1,15
15,2,2,1.095,0.046278078564052,0.851,25.8280326,1,16
15,2,2,1.181,0.031510280516684,0.976,25.8280326,1,17
15,1,1,0.754,1,1.16,23.24522934,1,18
15,2,2,0.706,1,0.8,23.24522934,1,19
15,1,1,0.862,0.994662788503683,0.634,20.920706406,1,20
15,1,1,0.73,0.967800360922914,1.027,20.920706406,1,21
15,2,2,0.712,0.985677175625037,1.028,18.8286357654,1,22
15,1,1,0.711,0.970546942180395,0.893,18.8286357654,1,23
15,2,1,1.058,0.035706187053152,1.578,16.94577218886,0,24
15,1,1,0.932,1,1.002,18.8286357654,1,25
15,2,2,0.916,0.093286462009656,0.946,18.8286357654,1,26
15,2,2,1.229,0.14575786987206,0.583,16.94577218886,1,27
15,1,1,0.692,1,1.239,16.94577218886,1,28
15,1,1,0.693,0.984220511957883,0.826,15.251194969974,1,29
15,2,2,0.943,0.269423675496646,0.729,15.251194969974,1,30
15,2,2,1.054,0.133386945636012,0.722,13.7260754729766,1,31
15,1,1,0.705,0.988789362970322,1.377,13.7260754729766,1,32
15,1,1,0.884,1,0.93,12.3534679256789,1,33
15,2,2,0.859,0.979674290931498,0.863,12.3534679256789,1,34
15,2,2,1.051,0.829575121265517,1.17,11.1181211331111,1,35
15,1,1,0.653,0.978766961385661,0.985,11.1181211331111,1,36
15,1,1,0.852,0.419962688214232,1.004,10.0063090197999,1,37
15,2,1,0.844,0.607788529204556,0.984,10.0063090197999,0,38
15,2,2,1.01,0.38766788049919,0.839,11.1181211331111,1,39
15,1,1,0.851,0.524364616883767,0.721,11.1181211331111,1,40
15,1,1,0.804,0.824995801333746,1.024,10.0063090197999,1,41
15,2,1,0.903,0.791000626148251,0.742,10.0063090197999,0,42
15,2,1,0.868,0.340567020528975,1.017,11.1181211331111,0,43
15,1,2,0.935,0.113218098295492,0.853,12.3534679256789,0,44
15,2,2,0.793,0.423405544806986,0.991,13.7260754729766,1,45
15,1,1,0.696,1,1.282,13.7260754729766,1,46
15,1,1,0.702,0.984220511957883,1.217,12.3534679256789,1,47
15,2,2,1.398,0.242443598870919,0.911,12.3534679256789,1,48
15,1,1,0.84,1,0.953,11.1181211331111,1,49
15,2,2,1.511,0.090922996971967,0.749,11.1181211331111,1,50
15,2,1,0.915,0.366575380322423,0.812,10.0063090197999,0,51
15,1,1,0.675,0.978127265499215,1.139,11.1181211331111,1,52
15,2,1,0.98,0.045788090120572,0.801,11.1181211331111,0,53
15,1,1,0.714,1,1.232,12.3534679256789,1,54
15,1,1,0.72,1,0.846,12.3534679256789,1,55
15,2,2,0.779,0.180325810074005,0.65,11.1181211331111,1,56
15,1,1,0.718,1,1.026,11.1181211331111,1,57
15,2,2,0.894,0.509388663266092,0.815,10.0063090197999,1,58
15,2,2,1.455,0.998744045868042,1.465,10.0063090197999,1,59
15,1,1,0.984,0.326284072097052,0.825,9.00567811781995,1,60
15,1,1,0.672,1,1.244,9.00567811781995,1,61
15,2,2,1.119,0.319027080184162,0.593,8.10511030603796,1,62
15,2,2,0.859,0.406270369268314,1.037,8.10511030603796,1,63
15,1,1,0.635,1,1.47,7.29459927543416,1,64
15,2,2,0.829,0.762748315263126,0.943,7.29459927543416,1,65
15,1,2,0.985,0.189642160812243,0.841,6.56513934789075,0,66
15,2,1,0.996,0.556467878960348,1.217,7.29459927543416,0,67
15,1,1,0.76,0.845201505053894,0.761,8.10511030603796,1,68
15,2,2,1.031,0.417820801696096,0.719,8.10511030603796,1,69
15,1,1,0.857,0.619077987732961,0.923,7.29459927543416,1,70
15,1,1,0.722,0.966320220189113,1.242,7.29459927543416,1,71
15,2,1,0.909,0.277867920981393,0.879,6.56513934789075,0,72
15,1,2,1.26,0.001289932655898,0.651,7.29459927543416,0,73
15,2,2,1.079,0.068136903663548,0.745,8.10511030603796,1,74
15,2,1,0.894,0.697216941172004,0.948,8.10511030603796,0,75
15,1,1,0.966,0.838245245024214,0.863,9.00567811781995,1,76
15,2,2,0.86,0.353368604757466,0.788,9.00567811781995,1,77
15,1,2,0.786,0.089831719407987,0.673,8.10511030603796,0,78
15,2,1,1.059,0.247810993615271,0.712,9.00567811781995,0,79
15,1,1,0.837,0.986845250608429,1.055,10.0063090197999,1,80
15,1,1,1.15,0.124620452399149,0.711,10.0063090197999,1,81
15,2,2,1.066,0,0.64,9.00567811781995,1,82
15,1,2,0.994,0,0.517,9.00567811781995,0,83
15,2,1,0.853,0,1.525,10.0063090197999,0,84
15,1,1,1.076,0,0.889,11.1181211331111,1,85
15,2,2,0.995,0.896335045111744,1.411,11.1181211331111,1,86
15,2,2,0.949,0.99718230558524,1.007,10.0063090197999,1,87
15,1,1,1.419,0.268299679898274,1.132,10.0063090197999,1,88
15,1,2,1,0.102889685281475,0.713,9.00567811781995,0,89
15,2,2,1.113,0.982782519285608,1.676,10.0063090197999,1,90
15,2,2,1.002,0.65723656260868,0.951,10.0063090197999,1,91
15,1,1,0.781,0.172792047840004,0.971,9.00567811781995,1,92
15,2,1,0.911,0.089632754974626,0.612,9.00567811781995,0,93
15,1,1,1.468,0.061337837004131,0.711,10.0063090197999,1,94
15,2,1,1.03,0,0.999,10.0063090197999,0,95
15,1,1,0.876,0.960463689320096,1.229,11.1181211331111,1,96
16,1,1,2.1743349999997,1,2.42704000000049,60,1,1
16,2,1,1.05116499999986,1,1.21116500000062,60,0,2
16,1,1,1.0610999999999,1,0.983199999999662,66.6666666666667,1,3
16,2,2,1.02371999999923,1,1.02751500000067,66.6666666666667,1,4
16,2,2,0.971569999999701,1,1.01002500000049,60,1,5
16,1,1,0.982220000000787,1,0.881869999999253,60,1,6
16,2,1,0.89997000000038,1,1.04544499999975,54,0,7
16,1,1,0.864120000000199,1,1.08503000000017,60,1,8
16,2,1,0.832660000000033,1,1.06790499999988,60,0,9
16,1,1,0.877365000000282,1,1.0609799999993,66.6666666666667,1,10
16,1,1,0.912820000000458,1,0.944069999999556,66.6666666666667,1,11
16,2,1,0.882305000000095,1,0.932989999999336,60,0,12
16,2,1,0.899164999999804,1,0.906790000000008,66.6666666666667,0,13
16,1,1,0.852055000000284,1,0.995184999999765,74.0740740740741,1,14
16,1,1,0.692339999999604,1,0.915425000000148,74.0740740740741,1,15
16,2,2,0.90898500000003,1,1.07843000000047,66.6666666666667,1,16
16,1,1,0.914749999999913,1,1.6251050000001,66.6666666666667,1,17
16,2,1,2.14739499999996,1,1.32167000000027,60,0,18
16,1,1,0.811185000000492,1,0.976609999999695,66.6666666666667,1,19
16,2,1,0.871085000000661,1,1.10185999999978,66.6666666666667,0,20
16,1,1,0.667849999999802,1,1.03946000000089,74.0740740740741,1,21
16,2,1,0.795820000000269,1,1.06920499999978,74.0740740740741,0,22
16,2,1,0.766599999999919,1,1.1497300000001,82.3045267489712,0,23
16,1,1,0.780715000000782,1,0.995414999999426,91.4494741655236,1,24
16,1,1,0.595860000000364,1,1.1331199999995,91.4494741655236,1,25
16,2,1,1.00375499999971,1,1.20871499999976,82.3045267489712,0,26
16,1,1,0.621600000000384,1,1.28448499999923,91.4494741655236,1,27
16,2,1,0.700925000000105,1,1.03515999999945,91.4494741655236,0,28
16,1,1,0.548519999999378,1,1.18573500000002,101.610526850582,1,29
16,2,1,0.914209999999905,1,1.01403000000029,101.610526850582,0,30
16,1,1,0.634215000000055,1,1.16480500000034,112.900585389535,1,31
16,2,2,0.900155000000261,1,1.0943299999999,112.900585389535,1,32
16,1,1,0.89318499999991,1,1.89789999999994,101.610526850582,1,33
16,2,2,0.920110000000015,1,1.09166999999978,101.610526850582,1,34
16,1,1,0.730389999999723,1,0.968039999999746,91.4494741655236,1,35
16,2,2,0.913959999999846,1,1.17291500000012,91.4494741655236,1,36
16,2,1,0.9988400000002,1,1.21482000000012,82.3045267489712,0,37
16,1,2,0.872459999999584,1,2.96278000000076,91.4494741655236,0,38
16,2,2,1.18217999999982,1,1.12932499999987,101.610526850582,1,39
16,1,1,1.01126499999917,1,1.13112000000002,101.610526850582,1,40
16,1,1,1.62615499999994,1,1.01846000000022,91.4494741655236,1,41
16,2,2,0.976520000000164,1,1.20299999999953,91.4494741655236,1,42
16,1,1,0.980244999999733,1,1.16571000000022,82.3045267489712,1,43
16,2,2,0.973820000000153,1,1.20425499999966,82.3045267489712,1,44
16,1,1,0.920755000000092,1,1.32773499999987,74.0740740740741,1,45
16,2,2,0.948059999999707,1,1.35237000000052,74.0740740740741,1,46
16,2,2,0.987594999999623,1,1.50150500000018,66.6666666666667,1,47
16,1,1,0.99370999999973,1,1.14172000000055,66.6666666666667,1,48
16,2,1,1.40337499999988,1,1.56597499999951,60,0,49
16,1,1,0.852835000000603,1,1.16917999999988,66.6666666666667,1,50
16,2,2,0.948100000000559,1,1.0972099999999,66.6666666666667,1,51
16,1,1,0.886889999999781,1,1.17334000000026,60,1,52
16,1,1,0.898170000000391,1,1.26480999999965,60,1,53
16,2,1,0.91427500000014,1,1.35260500000004,54,0,54
16,2,1,0.848745000000228,1,1.25659999999969,60,0,55
16,1,1,0.848009999999718,1,1.13863500000024,66.6666666666667,1,56
16,1,1,0.965495000000403,1,1.08424000000011,66.6666666666667,1,57
16,2,1,0.932574999999779,1,1.18311499999982,60,0,58
16,2,2,0.917010000000126,1,1.17278499999974,66.6666666666667,1,59
16,1,1,1.0002249999998,1,1.26350999999978,66.6666666666667,1,60
16,2,1,0.862124999999651,1,1.16734499999986,60,0,61
16,1,1,0.849725000000035,1,1.12090499999974,66.6666666666667,1,62
16,1,1,0.996175000000221,1,1.66906500000006,66.6666666666667,1,63
16,2,2,1.04787500000017,1,1.24013500000001,60,1,64
16,2,1,0.866899999999965,1,2.08224999999948,60,0,65
16,1,1,0.945610000000626,1,1.10255499999953,66.6666666666667,1,66
16,1,1,0.806024999999849,1,1.3093200000003,66.6666666666667,1,67
16,2,1,1.06823999999964,1,1.07670500000037,60,0,68
16,2,2,0.710629999999539,1,1.13924000000046,66.6666666666667,1,69
16,1,1,0.913414999999979,1,1.91539499999996,66.6666666666667,1,70
16,2,2,0.965979999999923,1,1.24784000000003,60,1,71
16,1,1,0.84703999999963,1,1.63463000000047,60,1,72
16,2,2,1.14332000000012,1,1.38115500000009,54,1,73
16,1,1,0.948099999999627,1,1.95434500000009,54,1,74
16,2,2,0.926759999999369,1,2.34733000000048,48.6,1,75
16,1,1,0.84211500000034,1,1.62732999999938,48.6,1,76
16,2,1,0.973320000000065,1,1.3929100000005,43.74,0,77
16,1,2,1.05134999999974,1,1.48163999999996,48.6,0,78
16,2,1,0.939980000000098,1,1.27495499999984,54,0,79
16,1,1,0.914465000000782,1,1.35007499999937,60,1,80
16,2,1,1.90539999999967,1,1.73939499999961,60,0,81
16,1,1,0.877075000000303,1,1.25341000000027,66.6666666666667,1,82
16,2,2,0.868695000000123,1,1.3194249999997,66.6666666666667,1,83
16,1,1,0.829459999999905,1,1.23264500000008,60,1,84
16,1,1,0.910829999999842,1,1.68916499999975,60,1,85
16,2,1,0.908889999999723,1,1.83716000000003,54,0,86
16,1,1,0.839584999999672,1,1.53927999999997,60,1,87
16,2,1,0.892604999999981,1,1.83195000000071,60,0,88
16,1,1,0.892530000000086,1,1.37733999999997,66.6666666666667,1,89
16,2,2,0.98741499999963,1,1.29505500000052,66.6666666666667,1,90
16,2,1,0.965304999999702,1,1.69506,60,0,91
16,1,2,0.963445000000356,1,1.41584499999951,66.6666666666667,0,92
16,1,1,0.858704999999667,1,1.8722050000006,74.0740740740741,1,93
16,2,1,0.939225000000035,1,1.9015749999999,74.0740740740741,0,94
16,1,1,0.800844999999797,1,2.42793000000075,82.3045267489712,1,95
16,2,1,0.931375000000116,1,1.89465500000009,82.3045267489712,0,96
17,1,1,0.989945000037551,1,3.81754499999806,60,1,1
17,2,2,1.39468499994837,1,6.35045500006527,60,1,2
17,1,1,1.28153500007465,1,3.93978999997489,54,1,3
17,2,2,1.10475000005681,1,1.99786999996286,54,1,4
17,1,1,0.962304999935441,1,2.00752500002272,48.6,1,5
17,2,2,3.18795499997213,1,2.10131499997806,48.6,1,6
17,1,1,1.36367999995127,1,2.38306500006001,43.74,1,7
17,2,1,1.76362499990501,1,1.82208500010893,43.74,0,8
17,2,2,1.02363499999046,1,1.85756999999285,48.6,1,9
17,1,2,1.16663499991409,1,1.84610000008252,48.6,0,10
17,1,1,1.58294500003103,1,2.27000999997836,54,1,11
17,2,2,0.917570000048727,1,1.6865149999503,54,1,12
17,2,1,1.60929499997292,1,2.24688500002958,48.6,0,13
17,1,2,1.13522499997634,1,1.84965999994893,54,0,14
17,1,2,1.25688000000082,1,1.95162499998696,60,0,15
17,2,2,0.904249999905005,1,1.54886500001885,66.6666666666667,1,16
17,1,2,2.08029999991413,1,4.69001500005834,66.6666666666667,0,17
17,2,2,0.835809999960475,1,1.51871500001289,74.0740740740741,1,18
17,1,1,0.973069999949075,1,2.12803999998141,74.0740740740741,1,19
17,2,2,0.837689999956638,1,1.66558000002988,66.6666666666667,1,20
17,2,2,0.838240000070073,1,1.61810500000138,66.6666666666667,1,21
17,1,1,0.816774999955669,1,1.45862000004854,60,1,22
17,1,2,1.13478000008035,1,1.60493999999017,60,0,23
17,2,2,0.791424999944866,1,1.83943000005092,66.6666666666667,1,24
17,1,2,0.998204999952577,1,1.74088500009384,66.6666666666667,0,25
17,2,2,0.787724999943748,1,1.65115499997046,74.0740740740741,1,26
17,2,2,0.768374999985099,1,1.34992000006605,74.0740740740741,1,27
17,1,2,1.18477000005078,1,2.23453999997582,66.6666666666667,0,28
17,1,2,1.203125,1,2.05165499995928,74.0740740740741,0,29
17,2,1,3.76454000000376,1,1.911764999968,82.3045267489712,0,30
17,2,2,0.768369999947026,1,1.53638000006322,91.4494741655236,1,31
17,1,2,1.04040499997791,1,1.86065499996766,91.4494741655236,0,32
17,2,2,0.602279999991879,1,2.4030999999959,101.610526850582,1,33
17,1,1,0.796834999928251,1,1.9266550000757,101.610526850582,1,34
17,2,2,0.643275000038557,1,1.2446700000437,91.4494741655236,1,35
17,1,1,0.816825000103563,1,1.68519999994896,91.4494741655236,1,36
17,1,1,0.81722000008449,1,1.57714499998838,82.3045267489712,1,37
17,2,2,0.79425999999512,1,1.37567999993917,82.3045267489712,1,38
17,2,2,0.706979999900796,1,1.9911200000206,74.0740740740741,1,39
17,1,1,0.815515000023879,1,1.37035999994259,74.0740740740741,1,40
17,1,1,1.15788499999326,1,2.78590999997687,66.6666666666667,1,41
17,2,2,0.808699999935925,1,2.20279500004835,66.6666666666667,1,42
17,2,2,0.728929999982938,1,1.64880500000436,60,1,43
17,1,1,0.802075000014156,1,1.42032000003383,60,1,44
17,1,1,0.755624999990687,1,1.61548500007484,54,1,45
17,2,2,0.725010000052862,1,1.54708499996923,54,1,46
17,1,1,0.725485000060871,1,1.39117999991868,48.6,1,47
17,2,2,0.791329999919981,1,1.73331500007771,48.6,1,48
