Subj_idx,Stimulus,Response,Confidence,Awareness,RT_dec,RT_conf,RT_aware,Attention_Decision,Trial_count,Block_count,Accuracy
AS,2,1,2,1,3.081452298,1.057995521,1.211792453,2,0,0,0
AS,2,2,1,2,0.975973031,0.457530744,2.635232213,1,1,0,1
AS,2,2,1,2,0.940684684,1.364026653,1.235303901,1,2,0,1
AS,2,2,1,2,1.128962225,12.71610508,1.529399513,2,3,0,1
AS,1,1,1,1,2.023044438,4.04604383,1.129460805,1,4,0,1
AS,1,1,1,2,0.728931116,0.905218465,4.599803725,2,5,0,1
AS,1,1,1,2,0.552480526,0.646380016,1.035284112,1,6,0,1
AS,1,1,1,1,0.564262045,0.83459788,0.836194493,2,7,0,1
AS,1,1,1,2,0.576049724,0.540461844,1.99999846,1,8,0,1
AS,2,2,2,2,0.458395463,0.834483149,1.129427695,2,9,0,1
AS,2,2,1,1,0.622256411,0.84728185,1.270497152,2,10,0,1
AS,2,2,2,2,0.564273595,0.598638701,0.776509573,2,11,0,1
AS,1,1,1,1,0.423753154,0.716966335,2.26988923,2,12,0,1
AS,2,2,2,2,0.422329792,0.364061303,0.800776015,1,13,0,1
AS,1,1,2,2,0.435459597,0.457548454,0.728839485,1,14,0,1
AS,1,2,1,1,1.293623981,0.822831761,0.376563551,2,15,0,0
AS,2,1,1,1,0.458320773,0.517099392,0.847105903,2,16,0,0
AS,1,1,1,2,0.529746401,0.340404324,0.869965923,2,17,0,1
AS,2,1,1,1,0.423104036,0.705881289,1.434636073,1,18,0,0
AS,1,1,2,2,0.587777728,1.211118311,0.988263141,2,19,0,1
AS,1,1,2,2,0.493025068,0.458743507,0.88242736,2,20,0,1
AS,1,1,2,2,1.200159546,0.516973111,0.764088177,2,21,0,1
AS,1,1,1,1,0.446602394,0.446431067,1.071265852,2,22,0,1
AS,2,2,2,2,0.352456501,0.35231482,0.88239887,1,23,0,1
AS,1,1,1,2,0.434711149,0.811830646,1.081694466,2,24,0,1
AS,2,2,2,2,0.752472209,1.434572932,1.270600333,2,25,0,1
AS,2,2,2,2,0.905390947,0.658117259,0.587662226,1,26,0,1
AS,2,2,2,2,1.717087611,0.833963393,1.482358521,1,27,0,1
AS,2,2,1,1,0.576016614,0.528741925,0.611827412,1,28,0,1
AS,1,1,1,2,0.458438584,0.611062408,0.858858547,1,29,0,1
AS,2,2,2,2,0.528972158,1.799201347,0.917721097,2,30,0,1
AS,1,1,1,2,0.43484898,0.551643911,0.929452951,1,31,0,1
AS,2,2,1,2,0.681245243,0.81173786,1.376449975,1,32,0,1
AS,1,1,2,2,0.481229304,1.458818968,1.211752413,1,33,0,1
AS,1,1,2,2,0.423723123,0.446395262,1.987498523,1,34,0,1
AS,2,2,1,1,0.811946147,0.622850857,0.893499316,1,35,0,1
AS,2,2,1,2,0.739983052,1.482313091,2.658762527,1,36,0,1
AS,1,1,1,2,0.517134813,0.540551935,0.553037627,1,37,0,1
AS,2,1,1,1,0.516344014,0.52875463,0.447298867,1,38,0,0
AS,1,1,2,2,0.47078914,0.422208901,1.03466695,1,39,0,1
AS,2,2,2,2,0.752487225,2.010330438,1.352930827,1,40,0,1
AS,2,2,1,2,0.95218207,0.469259902,0.788501305,2,41,0,1
AS,2,2,2,2,0.457657025,0.553001821,0.835352874,2,42,0,1
AS,2,2,2,2,0.705501674,2.563816595,3.470431856,2,43,0,1
AS,1,2,1,2,1.670048545,0.658149215,0.858890502,1,44,0,0
AS,1,1,2,2,0.623573126,0.92806963,1.987597854,1,45,0,1
AS,1,1,2,1,0.775999443,0.822170324,0.941203285,1,46,0,1
AS,1,1,1,2,0.494272482,1.458448209,1.458203346,1,47,0,1
AS,1,1,1,1,0.528253739,0.447141785,1.258841144,1,48,0,1
AS,2,1,1,1,0.470216253,0.433903409,0.776471458,1,49,0,0
AS,1,1,1,1,0.740471623,0.601194361,0.105914322,1,0,1,1
AS,2,2,1,2,0.893719924,0.869820777,1.764668763,2,1,1,1
AS,1,1,2,1,0.79950473,0.787514924,0.835384829,1,2,1,1
AS,1,1,1,2,0.858323776,1.022875806,1.635298819,1,3,1,1
AS,2,2,2,2,0.469875909,0.964090641,0.97671455,1,4,1,1
AS,2,1,1,1,0.62308032,0.575834892,0.400062679,1,5,1,0
AS,2,2,2,2,0.540650881,0.952262536,2.31765018,1,6,1,1
AS,1,1,1,1,0.787735916,0.752259302,1.388281929,1,7,1,1
AS,2,2,2,2,0.623009479,0.728771724,1.517658804,1,8,1,1
AS,1,1,2,2,0.399555628,1.011062716,0.435407236,2,9,1,1
AS,1,1,2,2,0.352470746,0.905167259,0.835364424,1,10,1,1
AS,1,1,1,2,0.528918642,0.692839265,2.341124667,1,11,1,1
AS,2,2,2,2,0.222908685,0.199344877,0.611996814,2,12,1,1
AS,1,2,1,1,0.246091724,0.223394946,1.258822279,1,13,1,0
AS,2,1,1,1,0.211669252,0.175418009,0.50596699,1,14,1,0
AS,2,2,1,2,2.187649598,0.340584121,1.258812654,1,15,1,1
AS,2,2,2,2,0.175212032,0.141362446,0.353038628,2,16,1,1
AS,1,1,2,2,0.481273579,0.834654091,0.858845842,1,17,1,1
AS,1,1,2,2,0.352528497,0.434633763,0.835299358,1,18,1,1
AS,2,1,2,2,0.234814946,0.575851832,0.717729029,2,19,1,0
AS,1,1,2,2,0.364077859,0.64631418,1.306127383,1,20,1,1
AS,2,1,2,1,0.4708338,0.516123406,0.59941487,1,21,1,0
AS,1,1,1,2,1.528229099,0.341160088,0.788288013,1,22,1,1
AS,1,1,2,2,0.470114612,0.811020982,1.023581134,1,23,1,1
AS,2,2,2,2,0.340747363,0.317002217,0.682329415,2,24,1,1
AS,1,1,2,2,0.28256935,0.3523179,0.481717874,2,25,1,1
AS,2,1,1,2,0.481863021,0.469278767,0.764761164,2,26,1,0
AS,1,1,2,2,0.328565054,0.470946221,0.728846415,1,27,1,1
AS,2,1,1,1,0.293606271,0.293783373,0.470710214,1,28,1,0
AS,2,2,2,2,0.316509797,0.294186857,0.741240091,1,29,1,1
AS,1,1,2,2,0.269477276,0.329455569,1.741162321,2,30,1,1
AS,2,2,2,2,0.281887892,0.71701523,0.729470122,1,31,1,1
AS,2,2,2,2,0.505414124,0.705262586,0.729489758,1,32,1,1
AS,2,2,2,2,0.482542169,0.611133249,0.317072288,2,33,1,1
AS,1,1,2,2,0.481905371,0.493487458,1.082327028,1,34,1,1
AS,1,1,1,1,0.282537395,0.246466333,0.576385063,1,35,1,1
AS,2,1,1,1,0.364398567,0.51692614,0.282426513,1,36,1,0
AS,2,1,1,1,0.588589317,0.598692602,0.681574807,1,37,1,0
AS,1,1,2,2,0.363705174,0.61167572,0.741217761,1,38,1,1
AS,1,1,1,1,0.646536712,0.588212013,0.764139382,1,39,1,1
AS,1,2,1,2,0.611309581,0.916967644,0.988282391,1,40,1,0
AS,2,1,1,1,0.575307821,0.588274768,0.588317119,2,41,1,0
AS,1,1,1,2,0.540725187,1.610364395,1.976359961,1,42,1,1
AS,2,2,1,2,0.576690371,0.728792515,1.293483069,1,43,1,1
AS,1,1,2,2,0.576697301,0.669946134,1.16406346,1,44,1,1
AS,2,1,2,1,0.964194207,0.646438151,4.411542355,1,45,1,0
AS,2,2,2,2,0.223061532,0.210486903,0.423612627,2,46,1,1
AS,1,1,2,2,0.234151583,0.235331622,0.635414321,2,47,1,1
AS,2,2,2,2,0.199552779,0.211146801,0.694182545,2,48,1,1
AS,1,1,1,1,1.081868103,0.716006904,0.539748045,1,49,1,1
AS,1,1,2,2,0.399411636,0.468870663,0.670659932,1,0,2,1
AS,1,1,2,2,0.246551419,0.305271519,0.411861138,1,1,2,1
AS,1,2,1,1,1.046552805,0.728738229,0.905939963,1,2,2,0
AS,1,1,2,2,0.729610264,0.740410792,1.62353193,1,3,2,1
AS,2,2,2,2,0.152521798,0.786950892,0.141888362,2,4,2,1
AS,2,2,2,2,0.199665585,0.468885293,0.18820054,2,5,2,1
AS,2,2,1,2,0.998844602,0.505204297,0.753030851,1,6,2,1
AS,2,2,2,2,0.245924632,0.329439014,0.411796457,1,7,2,1
AS,2,2,2,2,0.682829921,0.646103582,1.258173547,1,8,2,1
AS,1,1,1,2,0.823050444,0.669930349,0.964744763,1,9,2,1
AS,1,1,2,2,0.728944206,0.787557274,0.694119789,1,10,2,1
AS,2,2,2,2,0.646593308,0.952274856,1.788177901,1,11,2,1
AS,1,1,2,1,1.293627446,0.705231016,0.764745379,1,12,2,1
AS,2,2,2,2,0.682518837,0.705187896,0.84641328,1,13,2,1
AS,1,1,1,2,1.42302203,0.516976576,1.294150667,1,14,2,1
AS,1,1,1,2,0.564208144,0.62224486,0.858857777,1,15,2,1
AS,2,2,2,2,0.517145208,0.882971371,0.470009891,1,16,2,1
AS,1,1,2,2,0.646567128,0.599312074,1.058883341,1,17,2,1
AS,2,2,2,2,0.564925022,0.552239898,0.446474573,1,18,2,1
AS,2,2,1,2,0.693005202,0.552966786,0.435342171,2,19,2,1
AS,2,2,2,2,0.575984273,1.411054939,0.659851319,1,20,2,1
AS,2,2,2,2,0.505424134,0.458164461,0.588293634,1,21,2,1
AS,1,2,2,2,0.528909787,0.598685672,0.494208572,1,22,2,0
AS,1,1,1,2,0.576655336,0.599319389,0.893528962,1,23,2,1
AS,2,2,2,2,0.305450931,0.269933506,0.353008598,2,24,2,1
AS,2,2,2,2,0.424050762,0.422822983,0.610852581,1,25,2,1
AS,1,1,1,2,0.340599136,0.316314599,0.470738319,1,26,2,1
AS,1,1,1,2,0.517184478,0.517020851,1.047051386,1,27,2,1
AS,2,1,1,2,1.222371219,0.305889451,0.553009522,1,28,2,0
AS,1,1,1,2,0.764244874,0.811083737,0.764781955,1,29,2,1
AS,2,2,2,2,0.493672645,0.505193132,0.588319429,1,30,2,1
AS,1,1,2,2,0.587487434,0.551552665,1.153238676,2,31,2,1
AS,2,2,2,2,0.493800852,0.506027051,0.8578533,1,32,2,1
AS,2,2,2,2,0.398806024,0.482374692,0.741261267,1,33,2,1
AS,1,1,2,2,0.564884982,1.704465242,1.328749471,1,34,2,1
AS,2,2,2,2,0.435460367,0.48178756,0.917060045,1,35,2,1
AS,2,2,2,2,0.493656475,0.916322761,0.647763721,1,36,2,1
AS,1,1,2,2,0.493617975,0.940512202,0.964761318,1,37,2,1
AS,1,1,1,1,0.505300163,0.48180912,0.588313269,1,38,2,1
AS,1,1,2,2,0.411299802,0.386887444,0.658918068,1,39,2,1
AS,1,1,1,1,0.764180193,0.657499712,1.541240707,2,40,2,1
AS,1,1,1,2,0.482055523,1.057325613,1.388234574,1,41,2,1
AS,2,2,1,1,0.388417066,0.398712853,0.564136533,2,42,2,1
AS,1,1,2,1,1.117127575,0.516983506,0.764733444,2,43,2,1
AS,2,2,1,1,0.845839238,0.611756571,0.764836625,1,44,2,1
AS,2,2,2,2,0.551661621,0.470051471,0.776533444,2,45,2,1
AS,2,2,2,2,0.163596834,0.175815718,0.282444223,2,46,2,1
AS,1,1,2,1,1.999415948,0.458205656,0.458875179,1,47,2,1
AS,2,2,2,2,0.199597824,0.199343337,0.75295693,1,48,2,1
AS,1,1,2,2,0.270186454,0.258284428,0.68235598,2,49,2,1
AS,1,1,1,1,0.305241103,0.31680009,0.317705235,1,0,3,1
AS,2,2,2,2,0.611337686,0.633920889,1.447067094,1,1,3,1
AS,1,1,1,1,0.363468397,0.32952795,0.976504337,1,2,3,1
AS,2,1,1,1,0.905393257,0.740498573,0.729455107,2,3,3,0
AS,2,2,2,2,0.352460736,0.281745055,1.000045046,2,4,3,1
AS,2,2,1,2,0.728936891,0.810450405,0.76478465,1,5,3,1
AS,2,1,1,1,0.22375146,0.234667874,0.434693823,1,6,3,0
AS,1,1,2,2,0.55247167,0.646399266,0.894154209,1,7,3,1
AS,1,1,2,2,0.84644177,0.740488948,2.105857726,1,8,3,1
AS,1,1,2,2,0.446617024,0.83458941,0.882379235,1,9,3,1
AS,2,2,2,2,0.623032579,0.634641232,0.752977335,1,10,3,1
AS,2,2,2,2,0.235519119,0.257508644,0.446454937,2,11,3,1
AS,2,1,1,1,0.422294372,0.469975625,0.423628412,1,12,3,0
AS,1,1,2,2,0.42302434,0.786631339,0.647119609,1,13,3,1
AS,1,1,2,2,0.317347566,0.704533003,0.846940736,2,14,3,1
AS,2,2,2,2,0.399563328,0.611075498,0.482418967,1,15,3,1
AS,1,1,2,2,0.952460043,0.669907249,0.964750538,1,16,3,1
AS,1,1,1,1,0.64722741,0.869243655,0.446492668,1,17,3,1
AS,1,1,1,2,0.504342272,0.906252587,1.294124102,1,18,3,1
AS,2,2,2,2,1.199486558,0.4339704,1.364736601,1,19,3,1
AS,2,2,2,2,0.587795823,0.89338805,0.588296329,2,20,3,1
AS,2,2,2,2,0.411309427,0.376361039,0.458309992,2,21,3,1
AS,2,2,2,2,0.41197972,0.458162536,0.646431991,2,22,3,1
AS,2,2,2,2,0.375968719,0.398699763,0.376592426,2,23,3,1
AS,1,1,2,1,0.975326994,0.541163707,0.670559061,2,24,3,1
AS,1,1,2,2,0.705395798,1.246314257,0.953004824,1,25,3,1
AS,1,1,2,2,0.506122532,0.657500867,0.999294672,1,26,3,1
AS,1,1,2,2,0.952460428,0.481663204,0.788279542,2,27,3,1
AS,2,2,2,2,0.399633014,0.552132867,0.564773716,1,28,3,1
AS,1,1,2,2,0.493622595,1.328756786,0.812401607,2,29,3,1
AS,2,2,2,2,0.58708164,0.56474253,0.753611052,1,30,3,1
AS,1,1,2,2,0.518069218,0.575807556,0.599116107,2,31,3,1
AS,2,2,2,2,0.58841799,0.76349835,0.858203269,1,32,3,1
AS,2,2,2,2,0.893627138,0.539972503,0.870617736,1,33,3,1
AS,1,1,2,2,0.563728814,0.752440639,0.765015652,2,34,3,1
AS,1,1,1,1,0.505439534,0.410413907,0.389252911,1,35,3,1
AS,2,2,2,2,0.588511546,0.587430839,0.493533274,1,36,3,1
AS,1,1,1,1,0.457670885,0.482376232,0.282446148,2,37,3,1
AS,1,1,1,1,0.623049905,2.080641094,0.57653098,1,38,3,1
AS,2,2,1,2,0.65821274,0.940501037,1.258918145,1,39,3,1
AS,1,1,2,2,0.517332705,0.622718416,1.070586319,1,40,3,1
AS,2,2,2,2,0.517145208,0.611186764,0.894122254,1,41,3,1
AS,1,1,2,2,0.446607014,0.516962331,0.423629567,1,42,3,1
AS,1,1,2,2,0.587790818,0.599301294,0.788271072,2,43,3,1
AS,2,1,1,1,0.905400187,1.09342324,1.023554183,2,44,3,0
AS,2,2,2,2,0.587737302,0.705232941,0.717092231,1,45,3,1
AS,1,1,1,2,0.646580218,0.905176499,0.811768275,1,46,3,1
AS,2,2,2,2,0.623128061,1.469812384,0.694164065,1,47,3,1
AS,2,1,1,1,0.235478308,0.22290445,0.375917129,1,48,3,0
AS,1,1,1,1,0.317193564,0.34049634,0.400063449,1,49,3,1
AS,2,1,1,1,0.258115411,0.269741774,0.435403386,1,0,4,0
AS,2,2,1,1,0.31722706,0.269243578,0.423587602,1,1,4,1
AS,2,1,1,1,0.353156824,0.363402946,0.270026677,1,2,4,0
AS,2,2,2,2,0.552437405,0.528784275,1.011818095,1,3,4,1
AS,1,1,1,1,0.563580202,0.471593799,0.600064373,2,4,4,1
AS,1,2,1,2,0.599546927,0.552270698,0.576539065,1,5,4,0
AS,1,1,1,1,0.494388754,0.598587496,1.069956837,1,6,4,1
AS,2,2,2,2,0.528958682,0.540541154,0.811811396,1,7,4,1
AS,1,1,2,2,0.375977959,0.34053176,0.682463397,2,8,4,1
AS,1,1,2,2,0.517173698,0.764041591,0.764715734,2,9,4,1
AS,1,1,1,2,0.399532528,0.528764255,0.82358791,1,10,4,1
AS,2,2,2,2,0.540434893,0.551851043,0.97676152,1,11,4,1
AS,2,2,2,2,0.517528672,0.576470534,0.751957459,1,12,4,1
AS,2,1,1,1,0.587711122,0.540543079,0.364882518,2,13,4,0
AS,1,1,2,2,0.28211697,0.280831055,0.81180254,1,14,4,1
AS,1,1,2,2,0.399537148,0.776672045,0.76394842,1,15,4,1
AS,2,2,2,2,0.388855586,0.410713825,0.716956325,2,16,4,1
AS,2,2,1,1,0.787112209,0.552922126,0.776528054,2,17,4,1
AS,1,1,1,1,0.223114277,0.211087125,0.400059599,1,18,4,1
AS,1,1,2,2,0.341526997,0.493304581,0.54060314,1,19,4,1
AS,1,1,2,2,0.423080551,0.505206992,0.788320738,1,20,4,1
AS,1,1,2,2,0.364281911,0.505241257,0.729437012,1,21,4,1
AS,2,2,2,2,0.506168348,0.540462614,0.622913998,1,22,4,1
AS,1,1,2,2,0.575986198,0.622900523,0.811789065,2,23,4,1
AS,2,1,2,2,0.540689766,0.599324394,0.753006596,2,24,4,0
AS,1,1,2,2,0.481972362,0.505143081,0.611789296,1,25,4,1
AS,2,1,1,1,0.387746003,0.340554861,0.658862243,2,26,4,0
AS,1,1,2,2,0.352551212,0.387541181,0.530167981,2,27,4,1
AS,2,2,2,2,0.31723553,0.269245888,0.364762011,1,28,4,1
AS,2,1,2,1,0.434736559,0.38698793,0.846193057,1,29,4,0
AS,2,2,2,2,0.435505413,0.364066309,0.775856606,2,30,4,1
AS,1,1,2,2,0.363553868,0.387582762,0.5647356,2,31,4,1
AS,1,1,2,2,0.776006758,0.49277597,0.588289784,1,32,4,1
AS,2,2,2,2,0.599480706,0.505093416,0.70600295,2,33,4,1
AS,1,1,2,2,0.317190869,0.305258428,0.353036318,2,34,4,1
AS,1,1,2,2,0.293775673,0.364087869,0.67048745,2,35,4,1
AS,2,2,2,2,0.281115958,0.270635369,0.529560059,2,36,4,1
AS,2,2,1,1,1.481181178,0.694087834,0.482386242,2,37,4,1
AS,1,1,1,2,0.87012647,0.470059941,0.411824563,2,38,4,1
AS,2,2,2,2,0.15179876,0.141216144,0.341282904,1,39,4,1
AS,1,1,2,2,0.258368359,0.281730425,0.552961011,2,40,4,1
AS,1,1,1,2,0.363672064,0.341086167,0.905953053,1,41,4,1
AS,2,2,2,2,0.528960223,1.069888691,0.658893428,1,42,4,1
AS,2,2,2,2,0.5296001,0.517012381,0.611167899,2,43,4,1
AS,2,1,2,2,0.494315603,0.493459738,0.693508788,1,44,4,0
AS,1,1,2,2,0.434795464,0.399382376,0.988273921,1,45,4,1
AS,1,1,2,2,0.646589843,0.446543488,0.38832197,2,46,4,1
AS,2,1,1,2,0.493688431,0.398661263,0.517716169,2,47,4,0
AS,1,2,1,2,0.352574313,0.387525396,0.400068454,2,48,4,0
AS,2,1,1,1,0.447258827,0.422859173,0.400089629,1,49,4,0
AS,1,1,2,2,0.364025498,0.387337129,1.258871175,1,0,5,1
AS,1,1,2,2,0.387478425,0.386968295,0.776513423,1,1,5,1
AS,1,1,2,2,0.340700392,0.38698023,0.482375462,1,2,5,1
AS,2,2,2,2,0.646469722,0.422910764,1.50596699,2,3,5,1
AS,2,1,2,2,0.376023005,0.305891761,0.446188514,2,4,5,0
AS,1,1,2,2,0.43482357,0.458175241,0.705845868,2,5,5,1
AS,2,2,2,2,0.705493974,0.716884329,0.694168685,1,6,5,1
AS,1,1,1,1,0.434211413,0.482372382,0.176536832,1,7,5,1
AS,2,2,2,2,0.411351007,0.446396417,0.423595302,1,8,5,1
AS,2,2,2,2,0.152537968,0.152284635,0.494195866,2,9,5,1
AS,2,2,2,2,0.152489458,0.16412583,0.505941195,2,10,5,1
AS,2,2,2,2,0.128963765,0.175868464,0.447108675,1,11,5,1
AS,1,1,2,2,0.223840781,0.246285381,0.52878235,2,12,5,1
AS,1,1,2,2,0.246649211,0.552223343,0.541286523,2,13,5,1
AS,2,2,2,2,0.670109376,0.505238562,0.505969686,1,14,5,1
AS,1,1,1,2,0.411314817,0.505234327,0.400006468,2,15,5,1
AS,2,2,2,2,0.317175854,0.269278228,0.470680953,2,16,5,1
AS,1,1,1,2,0.399620694,0.387540411,0.69415752,2,17,5,1
AS,1,1,2,2,0.317198954,0.317024547,0.601045749,1,18,5,1
AS,2,2,2,2,0.223061917,0.211179141,0.470655158,1,19,5,1
AS,1,1,2,2,0.387121911,0.423557186,0.647114219,2,20,5,1
AS,2,2,2,2,0.175914665,0.152338151,0.353080978,1,21,5,1
AS,2,2,2,2,0.164877744,0.152339691,0.446482273,2,22,5,1
AS,1,1,1,2,0.093709298,0.527966141,0.424261359,1,23,5,1
AS,2,2,2,2,0.129633287,0.175202791,0.446379476,1,24,5,1
AS,1,1,1,1,0.142404268,0.163078233,0.411215486,2,25,5,1
AS,2,2,2,2,0.140042266,0.153022689,0.482437447,1,26,5,1
AS,1,2,2,2,0.37687964,0.44577733,0.916791312,1,27,5,0
AS,2,2,1,1,0.398925376,0.352916196,0.470676333,2,28,5,1
AS,1,1,2,2,0.116485002,0.175968565,0.764775025,1,29,5,1
AS,2,2,2,2,0.152482528,0.175856914,0.635346175,2,30,5,1
AS,2,2,2,2,0.128947979,0.152320056,0.682427591,2,31,5,1
AS,1,1,2,2,0.129658312,0.152792841,0.364089409,2,32,5,1
AS,1,1,2,2,0.129224798,0.222830529,0.470436091,1,33,5,1
AS,1,1,2,2,0.140256713,0.164611706,0.353034008,2,34,5,1
AS,2,2,1,1,0.199529679,0.199321776,0.646479732,1,35,5,1
AS,1,1,2,2,0.152484838,0.175903884,0.482444762,1,36,5,1
AS,1,1,2,2,0.234854216,0.22289675,0.423598382,1,37,5,1
AS,2,1,1,1,0.280868785,0.305603007,0.470679413,2,38,5,0
AS,2,2,1,2,0.505404499,0.434929446,0.729457417,2,39,5,1
AS,2,1,1,1,0.24657914,0.269962381,0.564779876,1,40,5,0
AS,1,1,2,2,0.364896763,0.363384081,0.599331709,1,41,5,1
AS,2,2,2,2,0.176006681,0.175848829,0.470647843,2,42,5,1
AS,2,1,2,2,0.199543924,0.199394542,0.411853438,2,43,5,0
AS,1,1,2,2,0.505447235,0.446427602,0.75297387,2,44,5,1
AS,2,1,2,2,0.62307031,0.328100739,0.800070687,2,45,5,0
AS,1,1,2,2,0.245957743,0.235330467,0.458908674,2,46,5,1
AS,2,1,1,1,0.376007605,0.328748701,0.353032853,2,47,5,0
AS,1,1,1,2,0.293638226,0.399377371,0.482434752,1,48,5,1
AS,1,1,1,1,0.411944684,0.387628577,0.646498982,1,49,5,1
AS,1,1,1,1,0.199255941,0.210966234,0.788776198,1,0,6,1
AS,2,2,2,2,0.411286712,0.364074394,0.717717478,2,1,6,1
AS,1,1,1,1,0.258383374,0.222191807,0.411835343,1,2,6,1
AS,1,1,1,1,0.234786455,0.211246517,2.458812038,1,3,6,1
AS,2,1,1,2,0.622503968,0.329254597,0.600108263,2,4,6,0
AS,1,1,2,2,0.24658607,0.269995107,2.070577464,2,5,6,1
AS,1,1,2,2,0.493011593,0.611080118,0.635346945,1,6,6,1
AS,2,2,2,2,0.787839482,0.375734251,0.576504414,1,7,6,1
AS,2,2,2,2,0.340731193,0.305213383,0.552967556,2,8,6,1
AS,2,2,2,2,0.151868061,0.152948383,0.423580287,2,9,6,1
AS,1,2,2,2,0.187977622,0.175616671,0.764789655,2,10,6,0
AS,1,1,2,2,0.223770325,0.25803687,0.446474958,2,11,6,1
AS,2,1,2,2,1.117189175,0.363941567,0.564804516,1,12,6,0
AS,1,1,2,2,0.457732101,0.282361448,0.611826642,2,13,6,1
AS,2,2,2,2,0.541237242,0.504811977,0.575896877,1,14,6,1
AS,1,1,2,2,0.458323468,1.234623599,0.705854338,1,15,6,1
AS,1,1,1,2,0.516944236,0.211104836,0.635386215,1,16,6,1
AS,2,1,1,1,0.164383398,0.152355861,0.482280751,2,17,6,0
AS,2,1,1,1,0.152481758,0.152342386,0.494190091,1,18,6,0
AS,2,2,2,2,0.517191408,0.5287092,0.729468197,1,19,6,1
AS,1,1,2,2,0.30542321,0.352284404,0.482436292,2,20,6,1
AS,2,2,2,2,0.587754627,0.493497083,0.670643762,1,21,6,1
AS,2,2,2,2,0.622408102,0.517656109,0.611780056,1,22,6,1
AS,1,1,2,2,0.528926727,0.505230477,0.541268813,1,23,6,1
AS,2,2,2,2,0.646596388,0.89340422,0.600096328,1,24,6,1
AS,1,1,2,2,0.317285965,0.446397572,0.423612627,2,25,6,1
AS,2,2,2,2,0.622412722,0.423512911,0.482430902,2,26,6,1
AS,1,1,2,2,0.422188496,0.388290015,0.47081147,2,27,6,1
AS,2,2,2,2,0.859041039,0.340525215,0.752345543,2,28,6,1
AS,1,1,1,1,0.140714098,0.151670938,0.482454773,2,29,6,1
AS,2,2,2,2,0.176018616,0.164146235,0.553012217,1,30,6,1
AS,1,1,2,2,0.198842061,0.164704107,0.400063064,2,31,6,1
AS,1,1,2,2,0.834822338,0.352291719,0.6353635,1,32,6,1
AS,2,2,2,2,0.398723248,0.317016462,0.647180825,2,33,6,1
AS,1,1,2,2,0.340065905,0.341238243,0.576531365,2,34,6,1
AS,2,1,1,2,1.457652405,0.411767197,0.494176616,2,35,6,0
AS,1,1,1,2,0.505414124,0.22288212,0.505964295,1,36,6,1
AS,1,1,1,2,0.363602378,0.258836909,0.458909829,2,37,6,1
AS,2,1,1,2,0.340708477,0.304464164,0.388264604,1,38,6,0
AS,2,2,2,2,1.022218603,0.282590525,0.51772772,1,39,6,1
AS,2,1,1,2,0.505406424,0.480955565,0.411851128,1,40,6,0
AS,2,1,1,1,0.140827675,0.17503339,0.376550461,1,41,6,0
AS,2,1,1,1,0.188422687,0.187611868,0.011231348,1,42,6,0
AS,2,1,1,1,0.164881209,0.16409118,0.328851882,1,43,6,0
AS,2,1,1,1,0.187805525,0.658188485,0.176525667,1,44,6,0
AS,1,2,1,1,0.45900223,0.410479357,1.187601088,2,45,6,0
AS,1,1,2,2,0.387786429,0.434616052,0.788308803,1,46,6,1
AS,1,2,2,2,0.141412496,0.187599933,0.340585661,2,47,6,0
AS,1,1,1,2,0.375996824,0.610446016,0.753028926,1,48,6,1
AS,1,1,2,2,0.328894233,0.328800677,0.753011216,2,49,6,1
AS,1,1,1,1,0.693387126,0.292328056,1.200054825,1,0,7,1
AS,1,2,2,2,0.681860095,0.493475138,0.788311883,1,1,7,0
AS,2,2,1,2,0.505443,0.387572751,0.505747923,2,2,7,1
AS,2,2,1,2,0.69370591,0.4699044,0.635316144,1,3,7,1
AS,2,2,2,2,0.152256145,0.175827269,0.52965939,2,4,7,1
AS,2,1,1,1,0.164243257,0.140552012,0.38830965,2,5,7,0
AS,1,1,1,1,0.152469437,0.187685789,0.423607622,1,6,7,1
AS,2,2,2,2,0.458428574,0.340413179,0.600088243,1,7,7,1
AS,1,1,2,2,0.517176008,0.399348881,0.517698459,2,8,7,1
AS,1,2,2,2,0.176841755,0.175870004,0.19922052,2,9,7,0
AS,2,1,1,1,0.152465202,0.164066155,0.482467093,1,10,7,0
AS,1,1,1,1,0.176087147,0.175739873,0.388302335,2,11,7,1
AS,1,1,1,1,0.152449032,0.187592618,0.306016887,1,12,7,1
AS,1,1,1,2,0.352441486,0.375991434,0.658894198,1,13,7,1
AS,2,1,1,1,0.563589827,0.31766019,0.811836036,2,14,7,0
AS,2,1,1,1,0.17597049,0.175860764,0.529505004,1,15,7,0
AS,2,2,2,2,0.364273826,0.328765641,0.647093429,1,16,7,1
AS,2,2,1,2,0.258302908,0.234616668,0.505954285,2,17,7,1
AS,1,1,1,1,0.176595737,0.152459042,0.352315975,2,18,7,1
AS,1,1,2,2,0.387802984,0.399345416,0.400045739,2,19,7,1
AS,1,1,2,2,0.292985644,0.50589153,0.44714679,2,20,7,1
AS,1,1,1,2,0.470680183,0.199335251,0.528901702,2,21,7,1
AS,1,1,2,2,0.352447261,0.5045906,0.423621482,2,22,7,1
AS,2,2,1,2,0.340760068,0.328799137,0.470597792,2,23,7,1
AS,2,2,2,2,0.482557954,0.657520887,0.528796981,2,24,7,1
AS,2,1,1,1,0.152442487,0.164049599,0.364845557,1,25,7,0
AS,1,1,2,2,0.282482724,0.434731169,0.434686508,2,26,7,1
AS,2,2,2,2,0.176062891,0.164025344,0.341261729,1,27,7,1
AS,1,2,2,2,0.151868061,0.176470996,0.470654388,2,28,7,0
AS,2,2,2,2,0.164317562,0.175761433,0.458892119,1,29,7,1
AS,1,1,2,2,0.387678628,0.434642233,0.506035521,2,30,7,1
AS,2,2,2,2,0.199561634,0.187653448,0.37646576,2,31,7,1
AS,2,2,1,2,0.4936584,0.622855092,0.658876488,2,32,7,1
AS,2,1,1,1,0.188431157,0.187703114,1.528734225,2,33,7,0
AS,1,1,1,1,0.223170488,0.211679647,0.187668078,1,34,7,1
AS,1,1,2,1,0.423079396,0.352257839,0.576524049,1,35,7,1
AS,1,1,2,2,0.234207794,0.223555107,0.482371227,1,36,7,1
AS,2,1,1,1,0.176087917,0.163990694,0.423583752,2,37,7,0
AS,1,1,1,1,0.164242102,0.163428202,0.364811292,2,38,7,1
AS,2,2,1,1,0.317215125,0.258142362,1.18824828,2,39,7,1
AS,1,1,1,2,0.351795449,0.411794147,0.858899357,2,40,7,1
AS,2,2,2,2,0.481903061,0.445736519,0.658861473,1,41,7,1
AS,2,2,1,2,0.341349125,0.292816242,0.717063356,2,42,7,1
AS,1,1,2,2,0.470161582,0.599307454,0.517718479,1,43,7,1
AS,2,2,2,2,0.49366302,0.3163454,0.541268043,2,44,7,1
AS,2,2,2,2,0.329644221,0.305223393,0.775860841,2,45,7,1
AS,1,1,2,2,0.270138713,0.258199727,0.329466349,2,46,7,1
AS,1,1,1,2,0.304770243,0.24706386,0.494184701,1,47,7,1
AS,2,1,1,1,0.187770875,0.175832274,0.435385676,2,48,7,0
AS,1,1,2,2,0.304781793,0.447107135,0.44709982,2,49,7,1
AS,1,1,1,1,0.38832967,0.316658023,1.022885431,1,0,8,1
AS,1,1,2,2,0.363535002,0.328806067,0.600098638,1,1,8,1
AS,2,1,2,2,0.269423375,0.282392633,0.38831889,2,2,8,0
AS,1,2,1,2,0.293210486,1.011646383,0.670361169,2,3,8,0
AS,2,2,2,2,0.304736747,0.293457659,0.506012036,2,4,8,1
AS,1,1,2,2,0.305455551,0.305270364,0.541210292,2,5,8,1
AS,2,1,2,2,0.270148338,0.281078228,0.411876538,2,6,8,0
AS,2,2,2,2,0.128971465,0.152315051,0.364795507,2,7,8,1
AS,2,2,2,2,0.140083076,0.176492941,0.38831812,2,8,8,1
AS,1,1,2,2,0.069490212,0.176599587,0.447126,2,9,8,1
AS,1,1,1,1,0.234838046,0.234634764,0.470653233,2,10,8,1
AS,2,1,1,1,0.164287532,0.164043439,0.576566785,1,11,8,0
AS,1,1,1,1,0.18778127,0.198794705,0.588320969,1,12,8,1
AS,1,1,1,1,0.200222687,0.199371057,0.258217437,1,13,8,1
AS,1,1,2,2,0.198843216,0.247140091,0.905943043,1,14,8,1
AS,2,2,1,2,0.305428215,0.269295554,0.929444866,2,15,8,1
AS,1,1,2,2,0.316510182,0.364739296,0.564775641,2,16,8,1
AS,2,2,2,2,0.375994514,0.316989897,0.730488074,2,17,8,1
AS,2,2,2,2,0.141491807,0.175883094,0.552214102,2,18,8,1
AS,2,1,2,2,0.129090046,0.163998009,0.482422432,2,19,8,0
AS,2,2,2,2,0.469453559,0.305984162,0.682460702,2,20,8,1
AS,1,2,2,2,0.151849965,0.164719507,0.57654253,1,21,8,0
AS,2,1,1,1,0.176003601,0.175870389,0.38831427,2,22,8,0
AS,1,1,2,2,0.223010711,0.293521955,0.858915912,1,23,8,1
AS,1,1,1,2,0.270082503,0.222957581,0.564810291,1,24,8,1
AS,1,1,1,2,0.223091562,0.222902525,0.411801462,2,25,8,1
AS,1,2,1,2,0.364243796,0.375850908,0.529480748,2,26,8,0
AS,2,2,1,2,0.435479617,0.364108274,0.553019147,2,27,8,1
AS,2,2,2,2,0.128690411,0.152578009,0.517051267,2,28,8,1
AS,2,2,2,2,0.269365239,0.247087346,0.694278026,2,29,8,1
AS,2,2,2,2,0.140734504,0.164081555,0.435353721,2,30,8,1
AS,1,1,2,2,0.164287147,0.163950268,0.670670327,2,31,8,1
AS,1,1,2,2,0.117201881,0.175896569,0.341275589,2,32,8,1
AS,1,1,2,2,0.128907939,0.175739873,0.517889806,1,33,8,1
AS,2,2,1,2,0.481886891,0.305238023,0.705949819,2,34,8,1
AS,2,2,2,2,0.14082575,0.16326804,0.423632262,1,35,8,1
AS,2,2,2,2,0.176360885,0.164746457,0.293230506,2,36,8,1
AS,2,2,2,2,0.18692425,0.16408348,0.10615726,2,37,8,1
AS,1,2,2,2,0.175332153,0.152972253,0.317745661,2,38,8,0
AS,1,1,1,1,0.176106397,0.15223343,0.329470584,1,39,8,1
AS,1,1,2,2,0.176114097,0.26981608,0.435377976,1,40,8,1
AS,2,1,1,1,0.152429012,0.152318901,0.411843428,2,41,8,0
AS,2,1,1,1,0.152460582,0.175858454,0.353043248,1,42,8,0
AS,2,2,2,2,0.282052674,0.269088806,0.741448379,2,43,8,1
AS,1,1,2,2,0.0701709,0.175818028,0.364788192,2,44,8,1
AS,2,1,1,1,0.176019001,0.16319104,0.400081159,1,45,8,0
AS,2,1,1,1,0.176010916,0.186911545,0.411833418,1,46,8,0
AS,1,1,1,1,0.175933915,0.164103885,0.353092528,1,47,8,1
AS,1,1,1,1,0.188435007,0.18695659,0.564078783,1,48,8,1
AS,1,1,1,1,0.15318054,0.175191626,0.411870763,1,49,8,1
AS,1,1,1,1,0.316614518,0.305017416,0.941298766,1,0,9,1
AS,2,1,1,1,0.152498698,0.140580887,0.423596842,2,1,9,0
AS,1,1,2,2,0.199541614,0.234689049,0.647097279,2,2,9,1
AS,1,1,2,2,0.152453267,0.16413815,0.411891939,2,3,9,1
AS,1,1,2,2,0.105345285,0.140942791,0.306036907,2,4,9,1
AS,2,1,2,2,0.128983015,0.152332376,0.494193556,2,5,9,0
AS,2,2,2,2,0.164250572,0.152345466,0.505955825,1,6,9,1
AS,2,2,1,2,0.187750084,0.175848059,0.494220122,1,7,9,1
AS,2,2,2,2,0.140707553,0.175244757,0.31767251,2,8,9,1
AS,1,1,2,2,0.317193179,0.422896904,0.811826026,2,9,9,1
AS,1,1,2,2,0.43483974,0.410511698,0.800054517,2,10,9,1
AS,2,2,2,2,0.152492923,0.152325831,0.423600307,1,11,9,1
AS,2,2,2,2,0.164229011,0.164126985,0.482399717,2,12,9,1
AS,2,2,2,2,0.152511788,0.175824189,0.376535831,2,13,9,1
AS,1,1,2,2,0.093589946,0.152624209,0.458968735,2,14,9,1
AS,1,1,2,2,0.506064012,0.305195288,0.905312406,2,15,9,1
AS,1,1,2,2,0.211967245,0.175202791,0.517050882,2,16,9,1
AS,2,1,1,1,0.152380116,0.152449417,0.341247099,1,17,9,0
AS,1,1,1,1,0.198922527,0.176442506,0.011838885,1,18,9,1
AS,2,2,1,1,0.152480603,0.175131181,0.647163884,1,19,9,1
AS,2,1,1,1,0.152455192,0.175264392,0.353051333,1,20,9,0
AS,1,1,2,2,0.223076547,0.258165462,0.988290092,1,21,9,1
AS,2,1,2,2,0.211191462,0.187729679,0.565093269,2,22,9,0
AS,2,1,1,2,0.540044114,0.305927951,0.682417581,2,23,9,0
AS,2,2,2,2,0.163600684,0.141155698,0.788974475,2,24,9,1
AS,2,1,2,2,0.200216911,0.269272838,0.375900573,2,25,9,0
AS,1,1,1,2,0.223138533,0.21108828,0.623588911,2,26,9,1
AS,1,1,2,2,0.528963303,0.44622047,1.152957238,2,27,9,1
AS,1,1,1,2,0.387085336,0.176499101,0.553021457,2,28,9,1
AS,1,1,1,2,0.245934642,0.188232495,0.294219583,2,29,9,1
AS,2,2,2,2,0.223036507,0.199369132,1.00003927,2,30,9,1
AS,1,1,1,1,0.187642668,0.176122952,0.50596545,2,31,9,1
AS,1,1,2,2,0.258282888,0.646486277,0.811839116,1,32,9,1
AS,1,1,2,2,0.234853446,0.234667489,0.50594697,1,33,9,1
AS,2,2,2,2,0.152569924,0.163946033,0.282484264,1,34,9,1
AS,2,2,2,2,0.128924494,0.152455577,0.353036703,2,35,9,1
AS,1,1,2,2,0.105424981,0.1640727,0.235420558,2,36,9,1
AS,2,2,2,2,0.152489073,0.152952233,0.658224675,2,37,9,1
AS,1,1,2,2,0.105421131,0.140572417,0.20009756,2,38,9,1
AS,2,1,2,2,0.140742204,0.152335841,0.517661499,1,39,9,0
AS,1,1,2,2,0.151904251,0.152286175,1.011760344,2,40,9,1
AS,2,2,2,2,0.153077744,0.187646903,0.128908324,1,41,9,1
AS,1,1,2,2,0.152435557,0.140491181,0.482495198,2,42,9,1
AS,2,2,2,2,0.176724329,0.16414893,0.611184454,1,43,9,1
AS,2,2,1,2,0.176681978,0.198734645,0.54059082,2,44,9,1
AS,1,1,2,2,0.352603573,0.316870161,0.483352603,1,45,9,1
AS,2,2,2,2,0.258380294,0.246420133,0.482444762,1,46,9,1
AS,1,1,2,2,0.129713368,0.139848224,0.340607991,2,47,9,1
AS,1,1,1,1,0.188389577,0.187632658,0.011223263,1,48,9,1
AS,2,1,1,1,0.340747363,0.917640247,0.105217079,1,49,9,0
AS,2,1,1,1,0.199983984,0.199160844,0.717052576,1,0,10,0
AS,2,1,1,1,0.176669658,0.199464228,0.340560251,1,1,10,0
AS,1,1,1,2,0.304771783,0.270073647,0.376555851,1,2,10,1
AS,2,2,2,2,0.164272132,0.175849984,0.57654176,1,3,10,1
AS,1,2,2,1,0.270176059,0.257512109,0.294167607,2,4,10,0
AS,2,2,2,2,0.199507733,0.198734645,0.588285549,2,5,10,1
AS,1,1,2,2,0.151857665,0.176516041,0.223615168,2,6,10,1
AS,2,2,2,2,0.164283682,0.163469783,0.07067949,2,7,10,1
AS,1,1,2,2,0.140719103,0.223048827,0.882374615,2,8,10,1
AS,1,1,2,2,0.317231295,0.269953526,0.564789886,1,9,10,1
AS,2,2,2,2,0.164403033,0.187628808,0.376426489,2,10,10,1
AS,2,2,2,2,0.176020926,0.269282463,0.741260882,2,11,10,1
AS,1,1,2,2,0.117174545,0.269995492,0.482454388,2,12,10,1
AS,1,1,2,2,0.551638521,0.305288459,0.411927359,2,13,10,1
AS,2,2,2,2,0.481248554,0.375828963,0.541242632,2,14,10,1
AS,1,1,2,2,0.976056962,0.352211253,0.376548921,2,15,10,1
AS,1,1,2,2,0.45900916,0.446377936,0.575908042,2,16,10,1
AS,2,2,2,2,0.528997953,0.458160996,0.623602001,2,17,10,1
AS,1,1,2,2,0.505405654,0.4111227,0.50595852,2,18,10,1
AS,2,2,2,2,0.164377238,0.163912923,0.458909059,2,19,10,1
AS,2,2,2,2,0.176939931,0.163889053,0.411052629,2,20,10,1
AS,2,2,2,2,0.16412044,0.175843054,0.4001674,2,21,10,1
AS,1,1,2,2,0.140801494,0.187510997,0.435370661,2,22,10,1
AS,2,2,2,2,0.151720989,0.152918353,0.435498868,2,23,10,1
AS,1,1,2,2,0.117220361,0.128726602,0.329484059,2,24,10,1
AS,1,1,2,2,0.234908887,0.293426089,0.447064014,2,25,10,1
AS,1,1,2,2,0.105445387,0.188343761,0.41117121,2,26,10,1
AS,2,2,2,2,0.164359143,0.175817258,0.423489426,2,27,10,1
AS,1,2,2,2,0.164242102,0.199363357,0.294217273,2,28,10,0
AS,2,1,1,1,0.175933915,0.1641343,0.353017838,2,29,10,0
AS,1,1,1,1,0.176689293,0.187554887,0.011268308,1,30,10,1
AS,2,1,1,1,0.187719284,0.175802628,0.094244069,1,31,10,0
AS,1,1,1,1,0.399553703,0.446396417,0.494171996,1,32,10,1
AS,1,1,2,2,0.576013149,0.434607197,0.929470661,1,33,10,1
AS,2,2,2,2,0.175879244,0.175883864,0.411968554,2,34,10,1
AS,2,2,2,2,0.176031321,0.175824574,0.29484252,2,35,10,1
AS,1,2,2,2,0.176012456,0.175626296,0.434689203,2,36,10,0
AS,2,2,2,2,0.176012456,0.1877805,0.270680799,2,37,10,1
AS,1,1,1,1,0.199514278,0.175833814,0.69419448,2,38,10,1
AS,2,1,2,2,0.105472722,0.187639203,0.51774543,1,39,10,0
AS,1,1,2,2,0.447296172,0.446373316,0.434703063,2,40,10,1
AS,1,1,2,2,0.211288868,0.222236082,0.482427437,1,41,10,1
AS,2,1,2,2,0.116608204,0.141175719,0.905898768,2,42,10,0
AS,1,1,2,2,0.6230449,0.434637613,0.388323895,2,43,10,1
AS,1,1,2,2,0.364323876,0.352319825,0.470503851,2,44,10,1
AS,2,2,2,2,0.176037866,0.175154666,0.847082803,2,45,10,1
AS,2,1,2,2,0.281880962,0.269958146,0.376598201,2,46,10,0
AS,2,1,1,1,0.187028586,0.164746457,0.541326178,2,47,10,0
AS,2,1,1,2,0.55245858,0.387650522,0.517672279,1,48,10,0
AS,1,1,2,2,0.176107552,0.128730452,0.411814938,1,49,10,1
AS,2,1,1,1,0.176484856,0.198543297,0.411199316,1,0,11,0
AS,1,1,2,1,1.211241897,0.599342105,0.529448408,1,1,11,1
AS,2,2,1,2,0.411989345,0.305253423,0.517059352,2,2,11,1
AS,1,1,2,2,0.364251496,0.364083249,1.576478619,1,3,11,1
AS,2,2,2,2,0.505466485,0.458003144,0.5647587,2,4,11,1
AS,1,1,2,2,0.317213585,0.317019157,0.435364886,2,5,11,1
AS,1,1,2,2,0.434677268,0.340525215,0.411977794,2,6,11,1
AS,2,2,2,2,0.481890741,0.398691293,0.470662088,2,7,11,1
AS,1,1,2,2,0.3054132,0.293486919,0.494170841,2,8,11,1
AS,2,2,2,2,0.187854421,0.199515048,0.529474588,2,9,11,1
AS,2,1,1,2,0.340645337,0.516981581,0.776615835,2,10,11,0
AS,1,1,2,2,0.234136568,0.211813629,0.811840656,2,11,11,1
AS,1,1,1,1,0.176015536,0.175821878,0.32952949,2,12,11,1
AS,2,2,2,2,0.152498698,0.164057684,0.341247099,2,13,11,1
AS,1,1,2,2,0.128947594,0.176536062,0.411205091,2,14,11,1
AS,2,2,2,2,0.517874406,0.693434867,0.540531144,2,15,11,1
AS,2,2,2,2,0.670111686,0.317023007,0.870605801,2,16,11,1
AS,2,1,1,1,0.176013996,0.175815718,0.258908135,2,17,11,0
AS,1,1,2,2,0.152483298,0.222243012,0.411857673,1,18,11,1
AS,1,1,2,2,0.105369541,0.151573532,0.364849407,1,19,11,1
AS,2,1,1,1,0.164185506,0.175905424,0.588357544,2,20,11,0
AS,2,1,1,1,0.176639628,0.175843824,0.340638792,2,21,11,0
AS,2,1,1,1,0.176037866,0.175837279,0.176592657,1,22,11,0
AS,1,1,1,1,0.176661958,0.175896184,0.011250213,1,23,11,1
AS,1,1,2,2,0.070696431,0.222895595,0.399535993,1,24,11,1
AS,2,1,1,1,0.163542934,0.176505646,0.341326409,2,25,11,0
AS,2,1,1,2,0.129077341,0.363662824,1.294317374,1,26,11,0
AS,1,1,1,1,0.175310978,0.164741452,0.38829425,1,27,11,1
AS,1,1,2,2,0.070878923,0.15226269,0.258243233,2,28,11,1
AS,1,1,1,2,0.11719033,0.387596622,1.647032983,2,29,11,1
AS,1,1,1,2,0.153195941,0.199342182,0.659163316,2,30,11,1
AS,2,1,1,1,0.17597742,0.175240522,0.294139887,1,31,11,0
AS,2,1,1,2,0.188563214,0.222753913,1.458199881,1,32,11,0
AS,1,1,1,1,0.164254807,0.16408733,0.411821098,1,33,11,1
AS,2,2,1,2,0.31722706,0.26988692,0.788289553,1,34,11,1
AS,1,1,1,1,0.176015536,0.17592352,0.352997432,2,35,11,1
AS,1,1,2,2,0.423720043,0.845744527,0.622952884,2,36,11,1
AS,1,1,1,2,0.411301727,0.222887895,0.835329004,2,37,11,1
AS,2,1,1,1,0.164259812,0.187664228,0.458907904,2,38,11,0
AS,2,2,2,2,0.693593874,0.586902228,0.400160855,2,39,11,1
AS,1,1,1,2,0.553141578,0.445736134,0.634684737,1,40,11,1
AS,2,2,2,2,0.176661573,0.187619183,0.434710379,2,41,11,1
AS,1,2,2,2,0.176016306,0.164701412,0.811100292,2,42,11,0
AS,2,2,2,2,0.152464047,0.164069235,0.305994172,2,43,11,1
AS,1,1,2,1,0.411294797,0.657378051,0.952962859,2,44,11,1
AS,1,1,2,2,0.093695438,0.128757787,0.447176436,2,45,11,1
AS,1,1,2,2,0.270148338,0.269995877,1.058867171,2,46,11,1
AS,2,1,2,2,0.43486284,0.434598727,0.764729979,1,47,11,0
AS,2,1,1,1,0.140806884,0.163940643,0.376573561,1,48,11,0
AS,2,2,2,2,0.16498901,0.15224652,0.435373741,2,49,11,1
BG,1,1,1,1,2.234522223,1.010806001,1.51765124,1,0,0,1
BG,1,2,2,1,2.042871724,3.261483133,1.329458491,2,1,0,0
BG,2,1,1,2,2.96335269,1.281654438,1.482359541,2,2,0,0
BG,2,1,2,1,1.952946327,0.881016558,1.611194551,1,3,0,0
BG,1,1,1,2,2.435309717,1.46924542,1.223515633,1,4,0,1
BG,1,2,1,1,2.399388146,0.728357678,2.141085174,2,5,0,0
BG,2,2,2,2,0.917025526,1.3058329,0.811258616,2,6,0,1
BG,1,1,1,2,2.693419031,1.763335981,1.282411363,2,7,0,1
BG,2,2,1,2,1.116468959,0.482368011,0.70595949,2,8,0,1
BG,2,2,1,2,1.999412094,1.869113671,0.941280219,1,9,0,1
BG,1,1,1,2,1.140650501,0.387601531,1.328799743,1,10,0,1
BG,1,1,1,2,3.645723165,0.881603309,1.247100413,1,11,0,1
BG,2,1,1,2,3.151660941,0.376384342,4.470352316,2,12,0,0
BG,1,1,2,2,2.823487605,2.905025231,1.528842248,2,13,0,1
BG,2,1,2,1,1.164048938,0.846385532,0.953093399,1,14,0,0
BG,2,2,2,1,2.584021502,2.202816098,1.235298013,1,15,0,1
BG,1,1,2,1,1.058092219,1.08168085,1.835400117,1,16,0,1
BG,2,2,2,2,1.365112097,0.88165952,1.046151601,2,17,0,1
BG,2,2,1,2,0.799510117,0.423515017,0.681778719,2,18,0,1
BG,1,1,2,2,0.658439958,1.316849115,0.5294829,2,19,0,1
BG,1,1,2,2,1.587739903,0.904478136,0.752930387,1,20,0,1
BG,2,2,1,2,0.965135659,0.340509357,1.116766955,1,21,0,1
BG,1,1,1,2,1.010572302,0.88242068,1.529396274,1,22,0,1
BG,1,2,1,2,0.846598056,1.845632457,0.588333584,2,23,0,0
BG,2,2,2,2,0.952388836,0.504582935,0.635391493,2,24,0,1
BG,2,2,2,2,1.281197819,0.388202528,0.729476894,2,25,0,1
BG,2,2,2,2,1.081833313,0.834588906,0.835363541,1,26,0,1
BG,1,1,2,1,1.352394149,0.423515017,0.622959605,1,27,0,1
BG,1,1,1,1,2.234726277,4.540030177,1.894141844,1,28,0,1
BG,2,1,1,2,1.151766433,0.317011203,1.541190589,1,29,0,0
BG,2,1,2,1,1.270044542,2.587479253,0.553035725,2,30,0,0
BG,1,2,2,1,1.470041615,0.517002502,0.305983053,2,31,0,0
BG,1,1,1,2,1.293603526,4.046130426,1.094164713,2,32,0,1
BG,2,1,2,1,1.188363307,4.186772841,0.834697094,1,33,0,0
BG,1,1,2,1,2.164213721,3.093116723,1.152969966,1,34,0,1
BG,2,2,1,2,1.176005341,0.411160131,0.718312066,1,35,0,1
BG,1,1,1,2,0.870126625,1.175720435,0.753017784,2,36,0,1
BG,2,2,2,2,1.822955139,0.222240104,1.01175774,2,37,0,1
BG,2,1,1,2,1.270046082,0.669928962,1.247065763,2,38,0,0
BG,1,1,2,1,0.740027636,1.117578165,0.753014704,2,39,0,1
BG,2,1,2,1,1.317070494,0.434954355,0.7177026,1,40,0,0
BG,2,2,2,1,1.328897535,1.26920484,1.317666101,1,41,0,1
BG,1,1,2,1,1.410651536,3.928554186,1.000030801,1,42,0,1
BG,1,2,1,2,0.846557245,0.669949368,1.164741566,1,43,0,0
BG,1,2,2,1,2.104676954,1.54044714,2.211658562,2,44,0,0
BG,1,1,2,2,0.85833385,0.692484233,0.741240794,2,45,0,1
BG,2,2,2,2,0.776673791,1.128680237,0.787463622,2,46,0,1
BG,2,2,1,2,2.717022292,0.56402422,0.764747418,2,47,0,1
BG,2,1,1,2,1.65828095,0.269946365,1.258850838,2,48,0,0
BG,1,1,1,2,1.222374856,0.705194481,0.964755272,1,49,0,1
BG,2,2,1,2,2.23512938,0.293272805,1.211167292,1,0,1,1
BG,2,2,1,2,1.857670867,1.352792247,2.023477363,1,1,1,1
BG,1,1,2,2,0.717147034,0.575792355,1.364721699,1,2,1,1
BG,1,1,1,2,1.575935577,3.539275177,1.670589635,1,3,1,1
BG,1,1,2,2,1.234831384,0.787499812,1.352945864,1,4,1,1
BG,2,2,2,2,1.258321838,0.657604877,0.965378214,2,5,1,1
BG,1,1,2,2,1.411189777,0.610523098,0.964749112,2,6,1,1
BG,2,2,2,2,0.564934377,0.658144272,0.646451214,2,7,1,1
BG,2,2,2,2,1.423004497,0.51687006,1.0235509,2,8,1,1
BG,1,1,1,2,1.352446125,0.598653321,0.588285458,2,9,1,1
BG,2,2,1,2,1.117112306,3.057955542,0.788333353,1,10,1,1
BG,2,2,1,2,1.434905075,4.975297928,1.094168563,1,11,1,1
BG,1,1,1,2,1.105416938,1.386463835,0.752958108,1,12,1,1
BG,2,1,2,1,1.952358805,0.599319384,0.646453139,1,13,1,0
BG,1,1,1,2,0.975962066,1.164007357,1.670563839,1,14,1,1
BG,1,1,2,2,0.740702939,1.211077971,0.447117508,2,15,1,1
BG,1,1,2,1,1.375901158,1.269890539,0.894194975,2,16,1,1
BG,2,1,2,1,1.105998684,3.375605087,3.693318159,2,17,1,0
BG,2,2,1,2,1.175071313,0.647230084,1.682971856,2,18,1,1
BG,1,1,2,2,0.82301597,0.575816995,0.835372781,2,19,1,1
BG,1,1,2,2,0.681284369,1.058728251,0.564787305,2,20,1,1
BG,1,1,1,2,0.693638485,0.469926113,1.200045585,1,21,1,1
BG,2,2,1,2,1.399550234,0.327954652,1.364716309,1,22,1,1
BG,2,1,2,1,0.740660588,0.90523583,2.10581234,1,23,1,0
BG,2,2,1,2,0.7871098,0.493453913,0.670670101,1,24,1,1
BG,1,2,2,1,1.705298818,2.15215144,0.36477483,1,25,1,0
BG,2,2,2,2,1.49358212,0.916933509,0.764766668,2,26,1,1
BG,1,1,1,2,0.929525174,0.469290851,0.599409476,2,27,1,1
BG,2,2,2,2,1.117175062,2.116833176,0.553003,2,28,1,1
BG,1,1,2,2,0.717132019,0.375846487,0.54123063,2,29,1,1
BG,2,1,1,2,1.081858338,0.493431967,0.811821882,2,30,1,0
BG,1,1,1,2,0.505477307,0.916896163,1.129428306,1,31,1,1
BG,2,1,2,1,2.376539115,0.764041699,0.775845255,1,32,1,0
BG,2,2,2,2,0.917187229,0.75227703,1.129369785,1,33,1,1
BG,2,2,1,2,0.634775866,0.281684854,0.906007,1,34,1,1
BG,1,1,1,2,0.458983049,0.846400932,0.528839553,1,35,1,1
BG,1,1,2,1,1.046471927,1.246339639,0.364880707,1,36,1,1
BG,1,1,1,2,0.517161895,3.516767263,1.152989601,2,37,1,1
BG,1,1,1,2,0.528294768,1.15292107,1.058824118,2,38,1,1
BG,2,2,1,1,2.105339166,0.905179234,0.600069763,2,39,1,1
BG,1,1,1,2,0.976137629,0.364044856,0.941045749,2,40,1,1
BG,1,1,2,2,0.681900766,0.893394159,0.905886493,2,41,1,1
BG,2,1,2,1,1.105342632,2.469786741,0.541273751,1,42,1,0
BG,2,1,2,1,0.964220112,1.469823701,2.599915375,1,43,1,0
BG,2,1,2,1,1.576799149,1.751285251,0.634686544,1,44,1,0
BG,1,1,1,2,0.61169968,0.622882989,0.858456667,1,45,1,1
BG,1,1,1,2,0.505395301,0.399365816,0.62293381,1,46,1,1
BG,1,1,1,2,0.563641138,0.422493978,0.658872321,2,47,1,1
BG,2,2,2,2,0.881857799,1.610334444,0.55303919,2,48,1,1
BG,2,2,2,2,0.787760077,1.234547634,0.72948498,2,49,1,1
BG,1,1,2,1,2.282182668,1.234263113,1.293503809,1,0,2,1
BG,2,2,1,2,0.963514393,0.76408713,0.905924224,1,1,2,1
BG,1,2,2,1,2.387669293,1.281576667,0.71771646,1,2,2,0
BG,1,1,1,2,0.693620775,0.41109545,1.882320578,1,3,2,1
BG,2,2,2,2,0.752457213,0.599190792,0.952972892,1,4,2,1
BG,2,2,2,2,0.576626666,0.681726743,0.564124707,2,5,2,1
BG,1,1,2,2,0.528280523,1.035225478,0.670646616,2,6,2,1
BG,2,2,1,2,0.68186727,0.422929036,0.589226416,2,7,2,1
BG,1,1,2,2,1.105291041,0.88136961,0.576601255,2,8,2,1
BG,2,2,1,2,2.258242526,0.234668526,0.564742644,2,9,2,1
BG,2,2,2,2,1.305996528,1.740452684,1.246452061,1,10,2,1
BG,2,2,1,2,0.8583223,0.387896062,0.670647001,1,11,2,1
BG,1,1,2,2,0.587776094,0.822824237,0.564112772,1,12,2,1
BG,2,2,1,2,1.246879419,1.881609854,1.187883588,1,13,2,1
BG,2,1,2,1,1.081871043,0.516938206,0.423620509,1,14,2,0
BG,1,1,1,2,1.717781526,0.587528534,0.364121473,2,15,2,1
BG,1,1,2,2,0.669300245,1.211973113,0.658906202,2,16,2,1
BG,1,1,1,2,0.928859882,0.423498462,0.552413168,2,17,2,1
BG,1,1,1,2,0.800063372,1.340482792,0.411276788,2,18,2,1
BG,2,2,2,2,0.952445817,0.787509437,0.423650155,2,19,2,1
BG,2,2,2,1,1.400175871,0.963299174,0.717066182,1,20,2,1
BG,1,1,1,2,1.422992562,0.928723974,1.588223087,1,21,2,1
BG,1,1,2,2,1.17596684,1.034599071,0.964716771,1,22,2,1
BG,2,2,1,2,1.305368966,0.775819074,0.964729477,1,23,2,1
BG,2,2,2,2,0.881924405,0.658746039,0.599379445,1,24,2,1
BG,1,1,1,2,0.892987977,1.305869861,0.647108037,2,25,2,1
BG,2,2,2,2,0.917830961,0.834582746,0.328832854,2,26,2,1
BG,1,1,2,2,0.646549776,0.599327469,0.564805015,2,27,2,1
BG,1,1,1,2,1.022900237,1.292703764,0.435511461,2,28,2,1
BG,2,2,2,2,0.587747603,1.305175692,0.411863155,2,29,2,1
BG,1,1,1,2,0.599500722,0.611190316,0.823585011,1,30,2,1
BG,2,2,2,2,1.176572457,1.740454994,1.117038385,1,31,2,1
BG,1,1,1,2,0.575976773,0.680972128,0.506009772,1,32,2,1
BG,2,2,2,1,1.340600219,1.552215275,0.411920136,1,33,2,1
BG,2,2,1,1,1.635392263,2.258001512,2.175760861,1,34,2,1
BG,2,2,1,2,1.599434116,0.705202181,2.047065994,2,35,2,1
BG,2,2,1,2,0.529591473,0.846429038,0.681739448,2,36,2,1
BG,1,1,2,2,0.587728353,0.928086402,0.69418635,2,37,2,1
BG,1,1,1,2,0.682537953,0.611087519,0.587636336,2,38,2,1
BG,1,1,2,1,1.081823302,0.41111162,0.858894036,2,39,2,1
BG,1,1,2,1,1.128811525,1.457467275,1.611865234,1,40,2,1
BG,1,1,2,2,0.752428338,1.03456981,0.800105723,1,41,2,1
BG,2,1,2,1,1.458973424,1.01126647,3.340372294,1,42,2,0
BG,2,2,2,1,0.78841613,0.928701644,2.317532888,1,43,2,1
BG,2,2,2,2,0.58839634,0.493497418,0.540556867,1,44,2,1
BG,1,1,2,2,0.68186958,0.763384877,0.670664711,2,45,2,1
BG,1,2,2,1,2.634664214,0.646375368,0.788327578,2,46,2,0
BG,2,2,2,2,0.787746602,0.482378406,0.599390995,2,47,2,1
BG,2,2,1,2,0.6224333,0.423503467,0.505893885,2,48,2,1
BG,1,1,2,2,1.658939312,1.587466548,0.422964842,2,49,2,1
BG,2,2,2,1,1.610282083,0.541125138,0.470526725,1,0,3,1
BG,2,2,1,2,0.681378696,0.553206668,0.493760378,1,1,3,1
BG,1,2,2,1,2.634416654,0.575824695,0.84733342,1,2,3,0
BG,1,1,2,2,0.964317519,0.42286551,0.517594643,1,3,3,1
BG,2,2,2,2,2.175862118,0.587610925,0.800034882,1,4,3,1
BG,1,1,2,2,0.917114847,0.447135603,0.95232146,2,5,3,1
BG,1,1,1,2,0.869407046,1.246991841,0.364763665,2,6,3,1
BG,1,1,1,2,0.740023401,0.364063337,1.070622669,2,7,3,1
BG,2,2,2,2,0.517811403,0.59934672,0.387676223,2,8,3,1
BG,2,2,1,2,0.692950862,0.317496313,0.670821024,2,9,3,1
BG,2,2,1,1,1.223680031,0.528750616,2.187533616,1,10,3,1
BG,2,2,2,2,0.869845955,4.34039578,0.740567031,1,11,3,1
BG,1,1,1,2,0.870756112,0.764049785,1.775799054,1,12,3,1
BG,1,1,1,2,1.281124283,1.117604346,0.941235173,1,13,3,1
BG,2,2,2,2,0.481874431,0.493469313,0.764762048,1,14,3,1
BG,1,1,1,2,0.68186881,0.646417333,1.741154937,2,15,3,1
BG,1,1,1,2,0.788382634,0.422224087,0.658232439,2,16,3,1
BG,2,2,2,2,0.83479758,1.222857655,0.752970813,2,17,3,1
BG,2,2,2,2,0.494325569,0.599339789,0.469976934,2,18,3,1
BG,1,1,2,2,0.506178405,0.481480569,0.552363502,2,19,3,1
BG,1,1,2,1,1.246629934,0.987483796,0.270636298,1,20,3,1
BG,1,1,2,1,1.21212057,0.716932585,0.752178468,1,21,3,1
BG,1,1,1,2,0.705386214,0.645765131,0.482429227,1,22,3,1
BG,1,1,1,2,0.657669943,1.105817346,0.329499302,1,23,3,1
BG,2,2,2,2,0.657276466,1.600309623,0.494178111,1,24,3,1
BG,2,2,2,2,0.764248063,1.292794241,0.623590247,2,25,3,1
BG,2,2,2,2,0.599520358,0.716956455,0.588320494,2,26,3,1
BG,2,2,2,2,0.399633011,0.411069269,0.482429612,2,27,3,1
BG,1,1,2,2,0.693580349,0.469991949,0.576598175,2,28,3,1
BG,2,2,2,1,1.269935969,0.598678347,1.08248282,1,29,3,1
BG,2,2,2,2,0.458389753,1.528650515,0.517698595,1,30,3,1
BG,1,1,1,2,0.494312864,0.375783731,0.63472851,1,31,3,1
BG,2,2,2,2,0.623071258,0.646334172,0.752979668,1,32,3,1
BG,1,1,1,2,0.6119457,0.940484024,0.905282801,1,33,3,1
BG,2,2,1,2,0.964234742,0.364064107,0.611812103,1,34,3,1
BG,1,1,2,1,1.258311057,0.352332163,0.588224242,2,35,3,1
BG,1,1,2,2,0.599542303,0.598660251,0.70596411,2,36,3,1
BG,1,1,2,2,0.493742668,0.575693408,0.565398311,2,37,3,1
BG,2,1,2,1,1.070121389,0.375807601,0.470669177,2,38,3,0
BG,2,2,2,2,0.764193392,1.022882527,0.975065384,2,39,3,1
BG,2,2,1,2,0.599509193,0.352219356,0.353119888,2,40,3,1
BG,1,2,1,1,1.328685396,0.799271412,0.741866046,1,41,3,0
BG,1,1,2,1,1.304725234,0.623477825,1.21182142,1,42,3,1
BG,1,2,2,1,2.411184772,0.928713579,0.788375704,1,43,3,0
BG,2,1,2,1,0.987822602,0.987340573,0.682181436,1,44,3,0
BG,1,1,2,2,0.917149883,0.669875446,0.729512315,1,45,3,1
BG,2,2,2,2,1.446353268,1.434575893,0.623539041,2,46,3,1
BG,2,2,2,2,0.5289154,0.50511078,0.564871236,2,47,3,1
BG,1,1,2,2,0.681922326,0.552181779,0.564652167,2,48,3,1
BG,2,1,1,2,2.71693143,0.493577115,0.470705753,2,49,3,0
BG,2,2,2,1,1.12937325,0.610827254,1.093474395,1,0,4,1
BG,2,2,2,1,1.964163131,2.116862051,0.400077694,1,1,4,1
BG,1,1,1,2,0.551674724,2.847039274,1.752890346,1,2,4,1
BG,2,2,1,2,0.775949207,0.446401394,1.035356765,1,3,4,1
BG,1,1,1,2,0.799500106,1.04636451,0.811816107,2,4,4,1
BG,1,2,1,2,1.387711643,1.15160704,0.611807097,2,5,4,0
BG,1,1,2,2,0.69364272,0.552256085,2.941078475,2,6,4,1
BG,2,2,2,2,0.635046526,2.716527172,0.74128661,2,7,4,1
BG,2,2,1,2,1.199424953,0.846266564,1.470711143,1,8,4,1
BG,1,1,2,2,0.481879436,1.634633028,0.952992527,1,9,4,1
BG,1,1,2,1,2.646565561,1.14036752,0.870567073,1,10,4,1
BG,1,1,1,2,1.023058475,1.175710425,0.823573076,1,11,4,1
BG,2,2,1,2,0.600238397,0.611050558,0.599386375,1,12,4,1
BG,2,2,2,2,0.586765834,1.094011865,0.44749828,2,13,4,1
BG,2,2,1,2,0.622447931,0.376422843,0.494181191,2,14,4,1
BG,1,1,2,2,0.529086728,0.364037541,0.494054909,2,15,4,1
BG,1,1,2,2,0.575975233,0.529449405,0.575903237,2,16,4,1
BG,2,2,2,2,0.658385672,0.599300904,0.400021483,2,17,4,1
BG,2,2,1,2,0.881841629,1.952189017,0.54124372,1,18,4,1
BG,1,1,1,2,0.610658621,0.65882381,0.411840824,1,19,4,1
BG,2,2,1,2,0.600182185,2.210958233,1.022906012,1,20,4,1
BG,2,2,1,2,0.634152154,0.529323122,1.400068069,1,21,4,1
BG,1,1,2,2,0.964234742,0.352235911,0.52946981,1,22,4,1
BG,1,1,2,2,0.517177296,0.421990388,0.741228089,2,23,4,1
BG,1,1,1,2,0.470149803,0.364023681,0.423360244,2,24,4,1
BG,2,2,1,2,0.528906929,0.292802326,0.588283918,2,25,4,1
BG,1,1,2,2,0.68186804,0.446411404,0.505924686,2,26,4,1
BG,2,2,1,2,0.916511926,0.388202143,0.341251651,2,27,4,1
BG,2,2,2,1,1.187074302,0.505192017,1.188235869,1,28,4,1
BG,1,1,1,2,0.61064091,0.976424845,0.71772031,1,29,4,1
BG,2,2,1,2,0.694258732,1.128085786,0.893521982,1,30,4,1
BG,2,2,2,2,0.682509078,0.952102775,0.505297509,1,31,4,1
BG,1,1,2,2,0.599524978,2.269227941,1.03533713,1,32,4,1
BG,1,1,1,2,0.693601524,0.72874923,0.752960803,2,33,4,1
BG,1,1,2,2,0.670101831,0.504366946,0.553651737,2,34,4,1
BG,1,2,2,1,1.752382137,1.434574353,0.870638685,2,35,4,0
BG,2,2,2,2,0.846624621,0.55222721,0.681719042,2,36,4,1
BG,1,1,2,2,0.659194957,0.881017328,0.646096237,2,37,4,1
BG,2,1,2,1,1.646390768,0.975864659,1.317670721,1,38,4,0
BG,2,2,1,2,1.081159935,0.552920223,0.494240483,1,39,4,1
BG,2,2,2,2,1.081175335,0.470583706,0.988288076,1,40,4,1
BG,2,2,1,2,0.623046232,0.304429163,0.776563678,1,41,4,1
BG,2,2,2,2,0.469452169,0.505260933,0.505908515,1,42,4,1
BG,2,2,2,2,0.423041843,0.328776258,0.482452327,2,43,4,1
BG,1,1,2,2,0.470180603,0.55223876,0.929429692,2,44,4,1
BG,1,1,2,2,0.481858646,0.43467407,0.435390954,2,45,4,1
BG,1,1,2,2,0.470144027,0.433980287,0.364797931,2,46,4,1
BG,1,1,2,2,0.376053236,0.469889153,0.294180267,2,47,4,1
BG,2,2,1,2,0.787463237,0.575823155,0.470797385,1,48,4,1
BG,1,1,2,2,0.552462449,1.481657287,0.84709895,1,49,4,1
BG,1,1,2,1,1.023478903,1.481226079,1.093409714,1,0,5,1
BG,1,1,1,2,0.728915939,0.56402191,1.070659244,1,1,5,1
BG,2,2,1,2,0.646628702,1.493366901,0.764724317,1,2,5,1
BG,2,2,2,1,1.329604024,0.469921108,0.646459299,1,3,5,1
BG,2,2,2,2,0.634826302,2.563916803,1.212429731,1,4,5,1
BG,2,2,1,2,0.705304593,0.398762894,0.435472575,2,5,5,1
BG,1,1,2,2,0.49304619,1.269858198,0.423593559,2,6,5,1
BG,2,2,2,2,0.45769751,0.741161097,0.411908585,2,7,5,1
BG,1,1,2,2,0.57606956,0.692447657,0.576603565,2,8,5,1
BG,1,1,2,2,1.64648856,0.481669992,0.270665173,2,9,5,1
BG,2,2,1,2,1.070136019,0.351584479,0.74103135,1,10,5,1
BG,2,2,1,2,0.670136866,0.680980983,0.647127672,1,11,5,1
BG,1,1,1,2,0.846608066,1.152216507,0.435343983,1,12,5,1
BG,1,1,2,1,0.9161839,0.741449468,0.38830032,1,13,5,1
BG,1,1,2,1,0.705376204,0.928748229,1.529403974,1,14,5,1
BG,2,2,2,2,0.658332156,5.198963714,0.741231554,2,15,5,1
BG,2,2,1,2,0.704727852,0.305895656,0.505957796,2,16,5,1
BG,1,1,2,2,0.540731275,0.892669961,0.482424992,2,17,5,1
BG,2,2,1,2,0.504754263,0.647083396,0.36477637,2,18,5,1
BG,1,1,2,2,0.599518818,0.481692708,0.423583933,2,19,5,1
BG,1,1,1,2,0.622988481,0.493501653,1.400060369,1,20,5,1
BG,1,1,2,2,0.599537298,0.446421029,0.494182731,1,21,5,1
BG,1,1,2,2,0.858330385,0.622235022,0.317749262,1,22,5,1
BG,2,2,2,2,0.458415548,0.398601961,0.388282994,1,23,5,1
BG,1,1,1,2,0.494322874,0.458292346,1.034654512,1,24,5,1
BG,2,2,1,2,0.669162028,1.576685187,0.447048976,2,25,5,1
BG,2,2,2,2,0.48181206,0.364069882,0.247275977,2,26,5,1
BG,2,2,2,2,0.458353947,0.516982097,0.388316875,2,27,5,1
BG,2,2,1,2,0.504743868,0.329254052,0.294243794,2,28,5,1
BG,1,1,1,2,0.528720201,0.363650994,0.400165476,2,29,5,1
BG,2,2,1,2,0.588369005,0.493475858,0.434776867,1,30,5,1
BG,2,2,1,2,0.717249061,0.458035161,0.400076539,1,31,5,1
BG,2,1,2,1,0.798840589,0.52946442,0.741143387,1,32,5,0
BG,2,2,1,2,0.52894389,0.55224415,0.753036649,1,33,5,1
BG,1,1,1,2,0.493669132,0.58758667,0.952964422,1,34,5,1
BG,2,2,1,2,0.600269967,1.398620057,0.587627866,2,35,5,1
BG,1,1,2,2,0.458336622,0.41111624,0.423607804,2,36,5,1
BG,1,1,2,2,0.35247346,0.269953295,0.317732707,2,37,5,1
BG,1,1,2,2,0.305380901,0.293493414,0.364835662,2,38,5,1
BG,1,1,2,1,1.270076882,0.788062308,0.340619469,2,39,5,1
BG,2,2,2,1,1.376023205,1.493331095,0.658860386,1,40,5,1
BG,1,1,1,2,0.598893181,0.894098338,1.023550515,1,41,5,1
BG,1,1,2,1,1.728172874,0.516971317,0.505994757,1,42,5,1
BG,2,2,2,2,0.481831311,0.763438393,0.411856609,1,43,5,1
BG,2,1,2,1,0.787783948,0.681662446,0.400062294,1,44,5,0
BG,1,2,2,1,1.246489792,0.599303214,0.40012505,2,45,5,0
BG,2,2,2,1,1.646532066,0.692765288,1.047059449,2,46,5,1
BG,1,1,2,2,0.494253573,0.493614076,0.434731051,2,47,5,1
BG,1,1,2,1,1.328205677,0.552278416,0.306008463,2,48,5,1
BG,2,2,2,2,0.670089125,0.74051005,0.400100025,2,49,5,1
BG,1,1,2,1,0.941128911,0.327845695,0.952314914,1,0,6,1
BG,1,1,1,2,0.457787986,0.622729756,0.976554977,1,1,6,1
BG,2,2,2,2,0.528893069,0.928737834,0.705974121,1,2,6,1
BG,1,2,2,1,1.458015911,0.433963347,0.32967371,1,3,6,0
BG,2,2,1,2,0.740717184,1.093425884,0.729451099,1,4,6,1
BG,2,2,2,2,0.504747333,0.669843876,0.694221771,2,5,6,1
BG,1,1,2,1,1.728862038,1.422824699,2.92928185,2,6,6,1
BG,2,2,2,2,0.646564021,1.446423339,0.670022904,2,7,6,1
BG,1,1,2,1,0.835185668,0.987749451,0.4817828,2,8,6,1
BG,2,2,2,2,0.423087274,0.340512822,0.341220851,2,9,6,1
BG,1,1,2,1,1.129563059,0.587545089,0.611192241,1,10,6,1
BG,2,2,1,2,0.434828458,0.328773563,0.588284303,1,11,6,1
BG,2,1,2,1,0.823054086,0.811093833,0.83529732,1,12,6,0
BG,2,2,1,2,0.494306704,0.352292122,0.47003584,1,13,6,1
BG,2,2,2,2,0.328331959,0.494044129,0.447089017,1,14,6,1
BG,1,1,2,2,0.446583118,0.458146043,0.517722081,2,15,6,1
BG,1,1,2,2,0.787752762,0.517054863,0.411823499,2,16,6,1
BG,1,2,1,2,2.458255385,0.305183777,0.847751923,2,17,6,0
BG,1,1,2,2,0.446603908,0.352238991,0.40011427,2,18,6,1
BG,2,2,2,2,0.552452054,0.516998267,0.400091555,2,19,6,1
BG,1,1,2,1,1.093616848,0.434523147,0.600052053,1,20,6,1
BG,1,1,2,2,0.564239054,0.751619052,0.894158399,1,21,6,1
BG,1,1,1,2,0.68184032,0.469956914,1.341252806,1,22,6,1
BG,2,2,1,2,0.482458873,0.39932616,0.964169291,1,23,6,1
BG,2,2,1,2,0.634817062,0.446396774,0.482448477,1,24,6,1
BG,2,2,1,2,0.46922771,0.388460483,0.364804476,2,25,6,1
BG,2,2,1,2,0.435493751,0.422895925,0.446469925,2,26,6,1
BG,2,2,2,1,1.517103759,0.869677321,0.376760879,2,27,6,1
BG,1,1,2,2,0.916163879,0.411770368,1.035648986,2,28,6,1
BG,1,1,2,1,0.987096479,0.646324162,0.482410747,2,29,6,1
BG,1,2,2,1,0.893592823,0.400009163,0.282156103,1,30,6,0
BG,1,1,1,2,0.505330619,0.386960879,0.753728507,1,31,6,1
BG,2,1,2,1,2.494150006,1.411076585,2.446345953,1,32,6,0
BG,2,1,2,1,0.740105407,0.516913565,0.741256579,1,33,6,0
BG,1,2,2,1,0.458345092,0.411111235,0.306001918,1,34,6,0
BG,1,1,2,2,0.564242904,0.423518097,0.599423336,2,35,6,1
BG,2,2,2,2,0.411291804,0.42288014,0.364757505,2,36,6,1
BG,2,2,1,2,0.434257492,0.36473556,0.329324123,2,37,6,1
BG,1,1,2,1,0.681162322,0.575829315,0.564828885,2,38,6,1
BG,2,2,2,2,0.364202324,0.411421166,0.353025561,2,39,6,1
BG,1,1,2,1,0.68186188,0.469946904,0.317742717,1,40,6,1
BG,2,2,2,2,0.528727131,0.563557206,0.647191968,1,41,6,1
BG,2,2,1,2,0.47002352,0.834581976,0.517787917,1,42,6,1
BG,1,1,2,2,0.659011694,1.528629339,1.10525485,1,43,6,1
BG,1,1,1,2,0.669467723,0.564706453,0.811767981,1,44,6,1
BG,2,2,1,2,0.505330234,0.352940089,0.51714919,1,45,6,1
BG,1,1,1,2,0.869473268,0.776398125,0.458878712,2,46,6,1
BG,1,1,2,2,0.364488385,0.540666594,0.257886779,2,47,6,1
BG,2,2,2,1,0.682507922,0.35164993,0.540627323,2,48,6,1
BG,2,2,1,2,1.751757655,0.493194418,1.282352072,2,49,6,1
BG,2,2,1,1,0.89343112,1.03431994,0.799989836,1,0,7,1
BG,2,2,1,2,0.564224809,0.505256698,0.411838514,1,1,7,1
BG,2,2,1,2,0.658357181,0.375146928,1.717594797,1,2,7,1
BG,2,2,1,2,0.493671442,0.622836403,0.930079585,1,3,7,1
BG,1,1,2,1,0.728861268,1.281611702,0.329558208,1,4,7,1
BG,1,1,2,1,1.187021171,0.599982367,2.588231942,2,5,7,1
BG,1,1,2,2,0.51713918,0.48234953,0.846492949,2,6,7,1
BG,1,1,2,2,0.223037454,0.234782873,0.353046351,2,7,7,1
BG,1,2,1,2,0.611291958,0.211075275,0.447161399,2,8,7,0
BG,2,1,2,1,0.870269463,0.481492889,0.882405665,2,9,7,0
BG,1,1,2,1,0.681895761,0.811066112,1.164715,1,10,7,1
BG,1,2,1,1,0.481882517,1.458037471,0.635359922,1,11,7,0
BG,2,1,2,1,1.022609942,1.222802214,1.011191779,1,12,7,0
BG,1,1,2,1,0.811245526,0.693431351,0.682433616,1,13,7,1
BG,1,1,2,1,0.235048528,0.32863881,0.905935389,1,14,7,1
BG,2,2,1,1,0.634808592,2.481744684,0.905932309,2,15,7,1
BG,2,2,2,2,0.494378315,1.140404866,0.469903783,2,16,7,1
BG,2,1,2,1,0.834796425,0.516992492,0.470669947,2,17,7,0
BG,2,2,1,2,0.752446433,0.305237294,0.38831341,2,18,7,1
BG,1,1,1,2,0.552525205,0.798677346,0.529435545,2,19,7,1
BG,2,2,2,2,0.399522514,0.693490642,0.400104645,2,20,7,1
BG,1,1,2,2,0.481997634,0.728765786,0.599978517,1,21,7,1
BG,1,1,1,2,0.58709078,0.588253118,0.40010195,1,22,7,1
BG,1,1,1,2,0.658327151,0.835120987,0.740584741,1,23,7,1
BG,2,1,2,1,0.810884389,1.505142351,0.776860904,2,24,7,0
BG,2,1,2,1,0.634831307,0.552342712,0.364791001,1,25,7,0
BG,1,1,1,2,0.540710485,1.163295093,0.635396498,1,26,7,1
BG,2,2,2,2,0.64598959,0.764631916,0.530105072,2,27,7,1
BG,1,1,2,2,0.423718301,1.140469162,0.340603299,2,28,7,1
BG,2,1,1,2,0.340706866,2.422712277,0.340619084,2,29,7,0
BG,2,1,2,1,0.517903804,0.364014441,0.375852262,2,30,7,0
BG,1,2,1,1,0.557839847,0.999335477,0.335860008,1,31,7,0
BG,2,1,2,1,0.705982591,0.480995845,0.411248683,1,32,7,0
BG,1,1,1,2,0.681894991,0.693445211,0.823580776,1,33,7,1
BG,1,1,1,2,2.222934272,0.952255238,0.85883821,1,34,7,1
BG,1,1,1,2,0.529019352,0.49331839,0.341293232,1,35,7,1
BG,2,2,1,2,0.623059322,0.928051751,0.552969889,2,36,7,1
BG,1,1,2,2,0.434815753,0.528743301,0.400103875,2,37,7,1
BG,2,2,2,2,0.481909082,0.564020755,0.411854684,2,38,7,1
BG,2,2,2,2,0.587783409,0.552266481,0.318362579,2,39,7,1
BG,2,1,2,1,0.823004035,0.317005428,0.741232324,2,40,7,0
BG,2,2,1,2,0.587798424,0.38753454,0.424268476,1,41,7,1
BG,2,2,2,2,0.269996801,0.364180764,0.294224543,1,42,7,1
BG,1,1,1,2,0.482863515,0.704221952,0.352098463,1,43,7,1
BG,1,1,2,2,0.575999104,2.834452999,0.823593482,1,44,7,1
BG,1,2,2,1,0.470684578,0.316978093,0.446521516,1,45,7,0
BG,2,2,2,2,0.317194467,0.305129106,0.352944709,2,46,7,1
BG,2,2,2,2,0.340788102,1.292688749,0.305167607,2,47,7,1
BG,1,1,2,2,0.35244651,0.375928878,0.305976893,2,48,7,1
BG,1,1,2,2,0.351836658,0.400010318,0.70594871,2,49,7,1
BG,2,1,2,1,0.799315303,1.151953162,1.176513936,1,0,8,0
BG,1,1,2,2,1.069475347,0.988157559,0.458876017,1,1,8,1
BG,2,2,2,2,0.505189322,0.611069808,0.364955784,1,2,8,1
BG,2,2,1,2,0.587132746,0.599948101,0.294161787,1,3,8,1
BG,1,1,2,2,0.635604787,0.552174079,0.305205338,1,4,8,1
BG,2,2,1,2,0.728908239,0.376466734,0.587670217,2,5,8,1
BG,1,1,2,2,0.494273593,0.68104374,0.470032375,2,6,8,1
BG,1,1,2,1,0.681925791,0.481669607,0.38832265,2,7,8,1
BG,2,2,2,2,0.823080652,0.598785379,0.388996798,2,8,8,1
BG,1,1,2,2,0.50536065,0.492837516,0.376587626,2,9,8,1
BG,2,2,1,2,0.446581962,0.304568921,0.435369393,1,10,8,1
BG,2,1,1,2,0.434805358,2.422755013,0.400066914,1,11,8,0
BG,1,1,1,2,1.164231816,0.916804531,0.411860844,1,12,8,1
BG,1,2,2,1,1.564784225,0.364051402,0.434669065,1,13,8,0
BG,1,1,2,2,0.611301198,0.775761323,0.317734632,1,14,8,1
BG,2,2,2,2,0.482145092,0.551972335,0.400069224,2,15,8,1
BG,1,1,2,2,0.410654616,0.36474172,0.506015547,2,16,8,1
BG,2,1,2,1,0.775998873,0.622882219,0.588284688,2,17,8,0
BG,1,1,2,2,0.89367637,0.38753069,0.529467885,2,18,8,1
BG,2,2,1,2,0.576013734,0.693451756,0.400055364,2,19,8,1
BG,2,2,1,2,0.658498864,0.952063505,0.36477329,1,20,8,1
BG,1,2,2,1,0.788344133,0.305256929,0.446513816,1,21,8,0
BG,2,1,2,1,0.399509809,0.376523715,0.423622819,1,22,8,0
BG,2,2,2,2,0.5289308,1.587524684,0.494218922,1,23,8,1
BG,1,1,1,2,0.728887833,0.975811913,0.364742875,1,24,8,1
BG,1,1,2,2,0.541430064,0.528662065,0.434697556,2,25,8,1
BG,1,1,2,2,0.340709176,0.328798203,0.36477175,2,26,8,1
BG,2,2,2,2,0.387765159,0.39930152,0.341281297,2,27,8,1
BG,2,2,2,2,0.328923716,0.364210025,0.423601259,2,28,8,1
BG,1,1,2,2,0.447300001,0.422175576,0.43469178,2,29,8,1
BG,1,1,1,2,0.811269011,0.340501657,1.211772524,1,30,8,1
BG,2,1,2,1,0.553585901,0.469820621,0.423263607,1,31,8,0
BG,2,2,1,2,0.376938368,0.481880207,0.305020919,1,32,8,1
BG,2,1,2,1,0.517171135,0.528725591,0.847106651,1,33,8,0
BG,1,1,2,2,0.470122082,0.375104578,0.56479,2,34,8,1
BG,2,1,2,1,0.764205327,0.505242453,0.741225394,2,35,8,0
BG,1,1,1,2,0.540011697,0.611735101,0.364826036,2,36,8,1
BG,1,2,2,1,1.43416586,0.505883105,0.635317186,2,37,8,0
BG,2,2,2,2,0.434217836,0.341111509,0.470639147,2,38,8,1
BG,1,1,2,1,0.493662971,0.363386109,0.505921221,1,39,8,1
BG,2,2,1,2,0.492959948,0.317693821,0.341213535,1,40,8,1
BG,2,1,1,2,0.434817293,0.858160982,0.341311327,1,41,8,0
BG,1,2,2,1,0.893602833,0.247040352,0.411242908,1,42,8,0
BG,1,2,1,1,0.458335467,0.364071807,0.341272827,1,43,8,0
BG,2,2,1,2,0.564121242,0.363434235,0.329580153,2,44,8,1
BG,1,1,1,2,0.423030678,0.928730519,0.341324803,2,45,8,1
BG,2,2,1,2,0.599536913,0.400023408,0.399421257,2,46,8,1
BG,1,1,1,2,0.411348785,0.775768253,0.21186146,2,47,8,1
BG,1,1,1,2,0.575979468,0.822952059,0.330447575,2,48,8,1
BG,2,1,2,1,0.611333153,0.422862815,0.329493142,2,49,8,0
BG,1,1,2,1,0.88164027,1.351984501,1.035299784,1,0,9,1
BG,2,2,1,2,0.940678837,0.410967242,0.776538653,1,1,9,1
BG,1,1,2,2,0.952483548,0.752086066,0.364806786,1,2,9,1
BG,2,2,1,2,0.551797927,0.552963344,0.353037111,1,3,9,1
BG,1,1,1,2,0.775375931,0.576411447,0.37654566,1,4,9,1
BG,1,1,2,2,0.670136481,0.469312027,0.435363233,2,5,9,1
BG,2,2,2,2,0.293669363,0.305221893,0.376523715,2,6,9,1
BG,1,1,2,2,0.270132323,0.246435506,0.329501227,2,7,9,1
BG,2,2,2,2,0.24720937,0.246441666,0.340670675,2,8,9,1
BG,2,2,1,2,1.68186496,0.422146316,1.505707926,2,9,9,1
BG,2,2,1,2,0.506063288,0.269919414,0.340609074,1,10,9,1
BG,1,1,2,2,0.823055241,0.411066574,0.682435541,1,11,9,1
BG,2,2,1,2,0.587624786,0.657534806,0.364783301,1,12,9,1
BG,2,2,2,2,0.398819105,0.364051402,0.071338397,1,13,9,1
BG,1,1,2,2,0.400130825,0.387605381,0.340642185,1,14,9,1
BG,2,2,2,2,0.281903153,0.269290697,0.247147384,2,15,9,1
BG,1,1,2,2,0.304744484,0.258940929,0.341259736,2,16,9,1
BG,2,2,2,2,0.233887346,0.222550805,0.31865634,2,17,9,1
BG,1,1,1,2,0.30476797,0.317285714,0.317698441,2,18,9,1
BG,1,1,1,2,0.387750529,1.442231379,0.38831649,2,19,9,1
BG,2,2,1,2,0.445838128,1.37627346,0.317820489,1,20,9,1
BG,1,1,2,1,0.411955941,0.445786922,0.552355802,1,21,9,1
BG,1,1,1,2,0.575989479,0.551630448,0.282458719,1,22,9,1
BG,2,2,1,2,2.317041234,1.140457227,0.658891572,1,23,9,1
BG,2,2,2,2,0.50613105,0.7169476,0.31708243,1,24,9,1
BG,2,2,1,2,0.422516308,0.32861032,0.329502767,2,25,9,1
BG,1,1,2,2,0.341297082,0.317046239,0.293639717,2,26,9,1
BG,2,2,2,2,0.270091897,0.258217501,0.282452558,2,27,9,1
BG,1,1,1,2,0.458419784,0.64651397,0.294179112,2,28,9,1
BG,1,1,2,2,0.552466684,1.799252162,0.470665327,2,29,9,1
BG,2,2,1,2,0.481333111,0.470498234,0.317595259,1,30,9,1
BG,2,1,2,1,1.011927913,0.411063109,0.387632717,1,31,9,0
BG,1,1,2,2,0.446599288,1.98743798,0.294190663,1,32,9,1
BG,1,1,1,2,0.5407255,0.364016366,0.364765205,1,33,9,1
BG,1,1,1,2,0.387746679,0.422865125,0.306003843,1,34,9,1
BG,2,2,2,2,0.352423795,0.363404204,0.294246104,2,35,9,1
BG,2,2,2,2,0.411326069,0.316345526,0.07071199,2,36,9,1
BG,1,1,1,2,0.447848637,0.786507648,0.387348966,2,37,9,1
BG,2,2,2,2,0.375980469,0.845368727,0.211919982,2,38,9,1
BG,1,1,1,2,0.517088744,0.705197176,0.305877561,1,39,9,1
BG,1,2,2,1,0.564298345,0.269864743,0.376494839,1,40,9,0
BG,2,2,1,2,0.528911165,0.881038503,0.870635605,2,41,9,1
BG,1,1,2,2,0.599371745,0.775799439,0.611953015,1,42,9,1
BG,2,2,1,2,0.505391065,0.305193018,0.376584931,1,43,9,1
BG,2,2,1,2,0.553113112,2.045649552,0.317088975,1,44,9,1
BG,2,2,2,2,0.258366499,0.23463503,0.329540498,2,45,9,1
BG,1,1,1,2,0.399582575,0.30507713,0.564762664,2,46,9,1
BG,1,1,1,2,0.352516966,0.446410634,0.341275137,2,47,9,1
BG,1,1,2,2,0.352613988,0.422744232,0.329387265,2,48,9,1
BG,2,2,1,2,0.3642081,0.434696016,0.482458488,2,49,9,1
BG,2,1,2,1,0.693422111,0.434354514,0.811826502,1,0,10,0
BG,1,1,1,2,0.481989934,1.081583058,0.823581161,1,1,10,1
BG,2,2,2,2,0.399520974,0.411139341,0.705790472,1,2,10,1
BG,2,2,2,2,0.305357801,0.305167222,0.223739322,1,3,10,1
BG,1,1,2,2,0.611278482,1.175736991,0.388329965,1,4,10,1
BG,1,1,2,2,0.411294499,0.41110931,0.341281682,2,5,10,1
BG,2,2,2,2,0.411300274,0.552285731,0.353561491,2,6,10,1
BG,2,2,2,2,0.340715721,0.281726435,0.38830186,2,7,10,1
BG,1,1,2,2,0.352603593,0.293489949,0.282299711,2,8,10,1
BG,1,2,2,1,1.117002194,0.222981243,0.753005079,2,9,10,0
BG,2,2,1,2,1.047445996,0.281635573,0.881511677,1,10,10,1
BG,1,1,2,1,0.470177138,0.305161447,0.247157009,1,11,10,1
BG,2,2,1,2,0.51717537,0.411097375,0.341220081,1,12,10,1
BG,1,1,1,2,0.446617768,1.033974204,0.458906048,1,13,10,1
BG,2,2,1,1,2.093540231,0.552272641,0.400061909,1,14,10,1
BG,2,1,2,1,1.540591518,0.352329468,0.282461799,2,15,10,0
BG,2,2,2,2,0.505426101,0.692771448,0.365475544,2,16,10,1
BG,1,1,1,2,0.881083934,0.988249191,0.576553129,2,17,10,1
BG,1,1,2,1,1.293627012,0.987637414,0.435322807,2,18,10,1
BG,1,2,2,1,0.576692502,0.752137657,0.387644652,2,19,10,0
BG,2,1,2,1,1.023014969,0.376050541,0.282446013,2,20,10,0
BG,2,2,2,1,1.058362109,4.82248543,1.529801302,1,21,10,1
BG,1,1,2,1,0.823084117,0.752218509,0.799829673,1,22,10,1
BG,1,1,2,1,0.729772195,0.739554077,1.422899005,1,23,10,1
BG,1,2,2,1,0.599508808,0.835126762,0.364166519,1,24,10,0
BG,1,1,2,2,0.493027709,0.434591679,0.517741331,2,25,10,1
BG,1,1,2,2,0.39959066,0.446359043,0.294187198,2,26,10,1
BG,2,2,2,1,1.669771879,0.223736242,0.469974239,2,27,10,1
BG,2,2,1,2,0.36423274,0.516316419,0.364796391,2,28,10,1
BG,2,2,2,2,0.281253646,0.258800787,0.294193358,2,29,10,1
BG,1,1,2,2,0.55250326,0.505223587,0.482406127,1,30,10,1
BG,1,1,2,2,0.563585697,0.470588326,0.447136373,1,31,10,1
BG,2,2,1,2,0.576269764,0.681351745,0.376626127,1,32,10,1
BG,1,1,2,2,0.893614769,0.375844562,0.352966655,1,33,10,1
BG,1,1,1,2,0.529888698,0.822833862,0.410884081,1,34,10,1
BG,2,1,2,1,0.68186342,0.422195982,0.305994603,2,35,10,0
BG,2,2,2,1,0.517142645,0.469988099,1.247115429,2,36,10,1
BG,1,1,1,2,0.528988166,0.669883531,2.952810034,2,37,10,1
BG,2,2,1,2,0.598588255,0.329670245,0.764756658,2,38,10,1
BG,2,2,2,2,0.316660847,0.329332594,0.305949942,2,39,10,1
BG,1,1,2,1,0.610673636,0.446346723,1.423482291,1,40,10,1
BG,2,2,1,2,0.694460861,0.305219583,1.046961272,1,41,10,1
BG,1,1,1,2,0.705386984,1.987419885,1.234691626,1,42,10,1
BG,1,1,1,2,0.423777207,0.987424505,0.647132677,1,43,10,1
BG,2,2,1,2,0.576037989,0.375116898,0.823571921,1,44,10,1
BG,2,2,1,2,0.764267699,0.399249159,1.399788554,2,45,10,1
BG,1,1,2,2,0.892985282,0.517602729,0.400096175,2,46,10,1
BG,2,1,2,1,1.258296812,0.399368896,0.482447322,2,47,10,0
BG,2,2,2,2,0.411907815,0.575834706,0.270029526,2,48,10,1
BG,1,1,1,2,0.365187173,0.469978089,0.305042095,2,49,10,1
BG,2,1,2,1,0.705219891,0.434359134,1.16471269,1,0,11,0
BG,2,2,1,2,0.563706589,0.25816822,1.105821966,1,1,11,1
BG,1,1,1,2,0.375385248,0.669902782,0.917684658,1,2,11,1
BG,1,1,1,2,0.446596208,1.658090371,0.40011273,1,3,11,1
BG,2,2,1,2,0.599472232,1.434508517,0.364760585,1,4,11,1
BG,1,1,2,2,0.97536261,0.435235796,0.364731325,2,5,11,1
BG,2,2,2,2,0.458336622,0.881723432,0.317758118,2,6,11,1
BG,2,1,2,1,0.447234165,0.38756072,0.728821227,2,7,11,0
BG,1,1,2,2,0.576022974,0.386878487,0.317744257,2,8,11,1
BG,1,1,1,2,0.811146579,0.446446055,0.541307631,2,9,11,1
BG,1,1,1,2,0.39957218,0.516313724,0.36476559,2,10,11,1
BG,2,2,1,2,0.552457444,0.305251539,0.764628451,1,11,11,1
BG,2,2,2,1,0.293645492,0.222975468,0.494228162,1,12,11,1
BG,1,1,1,2,0.54073166,0.964026068,1.164739641,2,13,11,1
BG,1,1,2,1,0.647383702,0.387646962,0.340476246,1,14,11,1
BG,2,2,1,2,0.434777637,0.340523602,0.317799313,2,15,11,1
BG,1,1,2,2,0.412120339,0.505172766,0.411048479,2,16,11,1
BG,2,2,1,2,0.72898216,0.352245151,1.047698176,2,17,11,1
BG,2,2,1,2,0.964233972,0.293436818,0.999978825,2,18,11,1
BG,1,1,2,1,0.929505154,1.175752391,0.540649269,2,19,11,1
BG,1,2,2,1,1.270099598,0.246401625,1.058829508,1,20,11,0
BG,2,2,1,2,0.5171592,0.329416525,0.446498416,1,21,11,1
BG,2,1,2,1,1.085408876,0.775798284,0.855281512,1,22,11,0
BG,1,1,2,1,0.716202611,0.387932253,0.364725164,1,23,11,1
BG,2,2,2,1,0.976003647,0.316933817,0.623595638,1,24,11,1
BG,1,1,2,1,0.75231476,0.340634099,0.741216924,2,25,11,1
BG,1,1,2,1,0.646590202,0.434724506,0.458880637,2,26,11,1
BG,2,2,2,1,1.328910241,0.399964887,0.822924339,2,27,11,1
BG,1,1,2,2,0.717189385,0.422840484,0.435402889,2,28,11,1
BG,2,2,1,2,0.482487748,0.317023524,0.340666055,1,29,11,1
BG,2,2,1,2,0.4467017,0.292649863,0.436054706,2,30,11,1
BG,2,1,2,1,2.234638495,0.292776146,0.400113115,2,31,11,0
BG,2,2,1,1,0.975974001,0.740608612,0.41190435,1,32,11,1
BG,1,1,1,2,0.504666867,0.376509084,0.764820954,1,33,11,1
BG,1,1,2,1,0.705657645,0.39932,0.493830065,2,34,11,1
BG,1,1,2,1,0.87010622,0.716995341,0.435362078,2,35,11,1
BG,1,1,2,1,0.657716144,0.517632374,1.447056292,2,36,11,1
BG,2,1,2,1,0.764211873,0.646368822,1.882306333,2,37,11,0
BG,1,1,2,1,0.540600758,0.493537459,0.517758272,2,38,11,1
BG,2,1,2,1,1.258317603,0.364000196,0.376545275,2,39,11,0
BG,1,1,2,1,0.412172315,0.316965002,0.3403927,1,40,11,1
BG,1,1,1,2,0.434808823,0.787581819,0.988261511,1,41,11,1
BG,2,1,2,1,0.599467227,0.246355809,0.31841494,1,42,11,0
BG,1,1,2,1,0.398903807,0.282343986,0.353002461,1,43,11,1
BG,2,2,1,2,0.799521282,0.316991568,0.564782685,1,44,11,1
BG,1,1,2,1,0.551826032,0.329467346,0.458893343,1,45,11,1
BG,2,1,2,1,0.517861069,0.516337594,0.599387915,2,46,11,0
BG,2,2,1,2,0.705227206,0.269438155,0.306026559,2,47,11,1
BG,1,2,2,1,0.493651806,0.26993982,0.352999381,2,48,11,0
BG,2,1,2,1,0.505423791,0.316993108,0.40008193,2,49,11,0
EU,1,2,1,2,1.376419469,0.39912057,2.211032112,1,0,0,0
EU,1,2,2,1,0.870064369,2.281660669,5.011554796,1,1,0,0
EU,2,1,1,1,3.352315791,0.764032983,0.02359701,1,2,0,0
EU,1,2,2,1,0.317195556,0.681674067,2.447040325,1,3,0,0
EU,1,1,1,1,2.575803228,0.89342614,0.694239504,2,4,0,1
EU,1,2,1,1,2.869967348,0.305204933,2.047029237,1,5,0,0
EU,2,2,1,1,0.50544379,0.811058755,3.094015353,2,6,0,1
EU,2,2,1,2,0.387753656,0.55230786,0.482412739,2,7,0,1
EU,2,2,1,2,1.011276822,0.469934699,0.400100025,1,8,0,1
EU,2,2,1,1,0.375994807,2.622743914,2.164666625,1,9,0,1
EU,1,1,1,1,1.529057355,1.057956474,0.447156597,2,10,0,1
EU,2,2,2,2,0.528899503,1.281360364,0.588350569,2,11,0,1
EU,1,2,1,1,0.446578318,0.434678557,0.635367871,2,12,0,0
EU,2,2,1,2,0.434717827,0.658398537,0.541109964,2,13,0,1
EU,2,2,1,2,0.423744775,1.364010344,1.034661308,2,14,0,1
EU,1,1,1,2,0.600216835,0.658142508,2.258104085,1,15,0,1
EU,1,1,1,1,2.399370823,0.587530507,0.600085163,1,16,0,1
EU,2,2,1,1,0.904981321,0.434663926,3.083287935,2,17,0,1
EU,1,2,1,1,0.823062083,0.281698399,1.094121615,2,18,0,0
EU,2,2,1,1,0.740743208,0.387566158,0.541887291,1,19,0,1
EU,1,1,1,1,0.670100406,0.422853486,0.317761899,1,20,0,1
EU,1,2,1,2,0.528960719,0.434599245,0.588307064,1,21,0,0
EU,2,2,1,2,0.563599312,0.400041504,0.623579761,2,22,0,1
EU,1,2,2,1,0.423720905,0.598714157,4.328556694,2,23,0,0
EU,1,2,1,1,0.528963414,0.352309246,4.952611938,2,24,0,0
EU,2,1,1,1,1.763860885,1.080981365,0.283391655,1,25,0,0
EU,2,2,1,2,0.540751524,2.58710623,0.482379629,1,26,0,1
EU,2,2,1,1,0.457731168,0.458848455,0.129493259,1,27,0,1
EU,1,1,1,1,1.121559443,0.376734403,0.312360267,2,28,0,1
EU,2,1,1,1,1.328909359,2.610319389,1.106555379,2,29,0,0
EU,1,1,1,1,0.446620669,0.528729715,1.976421856,2,30,0,1
EU,2,2,1,1,4.105823483,0.62285826,0.905282011,2,31,0,1
EU,1,2,1,1,0.646595027,1.163352215,1.929387229,1,32,0,0
EU,1,1,1,1,1.869943477,0.822916165,1.988931851,1,33,0,1
EU,1,1,1,2,0.434005181,0.423737845,0.858920374,2,34,0,1
EU,2,1,1,1,0.87076123,0.422851946,0.29356505,2,35,0,0
EU,2,2,1,1,0.611792807,0.446495542,0.681775324,2,36,0,1
EU,1,1,1,1,2.917070891,0.480952797,1.058847762,2,37,0,1
EU,2,1,1,1,0.823723138,0.375870835,0.658173309,1,38,0,0
EU,2,2,1,2,0.870738129,0.433963216,0.622916011,1,39,0,1
EU,2,2,1,2,1.093398574,0.846383428,0.694352695,1,40,0,1
EU,2,2,1,1,4.117951938,0.987162364,1.117017914,2,41,0,1
EU,2,2,1,2,0.328969805,0.269945325,0.918322545,2,42,0,1
EU,2,2,1,1,0.376005972,0.352260735,0.341052829,2,43,0,1
EU,1,2,1,1,1.506114471,0.752292614,1.752204832,1,44,0,0
EU,1,2,1,1,0.622416659,0.294103289,1.341811291,1,45,0,0
EU,2,2,1,1,0.493235254,0.517663492,0.788025008,1,46,0,1
EU,1,2,1,1,0.269450593,0.388308065,1.682381708,2,47,0,0
EU,1,1,1,1,1.187713847,0.28172843,0.541227006,2,48,0,1
EU,1,2,1,2,2.081818752,0.611071306,2.917504407,1,49,0,0
EU,1,1,1,1,0.552287455,0.587329919,0.647116325,1,0,1,1
EU,1,2,1,1,1.917090911,0.352263815,0.658869014,1,1,1,0
EU,2,2,1,2,0.681744908,0.257560457,0.506666569,2,2,1,1
EU,1,1,1,1,1.164035601,0.281684924,0.247928765,2,3,1,1
EU,1,2,1,1,2.99935858,0.340471085,1.529428501,2,4,1,0
EU,1,2,1,2,0.306095836,0.222985774,0.37589201,1,5,1,0
EU,2,2,1,2,0.2466286,0.140578733,1.058850457,1,6,1,1
EU,2,2,1,2,0.234863205,0.869270872,0.37651418,2,7,1,1
EU,2,1,1,1,0.77600012,0.316988807,0.353013807,2,8,1,0
EU,2,2,1,1,0.787744724,0.246384121,0.364802301,1,9,1,1
EU,2,1,1,1,0.811987004,1.187530969,2.528568398,1,10,1,0
EU,2,2,1,2,0.222408651,0.164100282,1.09415588,1,11,1,1
EU,2,2,1,2,0.235619742,0.422064609,3.740346652,2,12,1,1
EU,1,2,1,1,1.869976588,0.246495388,0.459628477,2,13,1,0
EU,2,2,1,1,2.011974068,4.657777138,4.187371961,2,14,1,1
EU,2,1,1,1,0.870126355,0.975127466,0.188317921,1,15,1,0
EU,1,1,1,1,2.634833483,0.963208839,0.141137762,1,16,1,1
EU,1,1,1,1,1.24600412,1.340444905,0.694664935,1,17,1,1
EU,1,1,1,1,2.505471511,0.399166385,0.423581147,2,18,1,1
EU,1,2,1,1,0.281838927,0.575678101,0.764724068,2,19,1,0
EU,2,2,1,2,0.281888207,0.246395671,0.364801531,2,20,1,1
EU,1,2,1,2,0.387785612,0.339808875,3.729253862,1,21,1,0
EU,1,1,2,2,0.42307294,3.363204142,0.482410814,1,22,1,1
EU,2,2,1,1,0.917117091,0.35227652,0.670657894,1,23,1,1
EU,1,2,1,1,1.434767878,0.398705918,2.470493343,2,24,1,0
EU,2,2,1,1,0.411985541,1.06921366,0.481772475,2,25,1,1
EU,2,2,1,1,1.717049176,0.399326163,0.646493001,1,26,1,1
EU,1,2,1,1,1.04726101,0.44635848,6.798973805,2,27,1,0
EU,1,2,1,1,3.18758256,0.551646805,1.670552788,2,28,1,0
EU,2,1,1,1,1.599460299,0.340497651,5.305624589,1,29,1,0
EU,2,2,1,1,0.552950435,0.305271539,0.399418564,1,30,1,1
EU,2,2,1,1,1.399395849,0.328737647,0.32958543,1,31,1,1
EU,1,1,1,2,0.222415966,0.199371054,1.482371544,2,32,1,1
EU,2,1,1,1,0.235428779,0.622883286,1.328824658,2,33,1,0
EU,1,1,1,1,0.975985259,0.505223567,0.494192764,2,34,1,1
EU,2,2,1,1,0.234146325,0.352321566,0.823555275,1,35,1,1
EU,2,2,1,1,0.340665898,0.387625064,0.94126004,1,36,1,1
EU,1,2,1,1,0.27091169,0.575702742,0.858206188,1,37,1,0
EU,1,2,1,1,0.52901462,0.375696427,1.517646167,1,38,1,0
EU,1,1,1,1,0.270131668,0.469983595,1.164729381,2,39,1,1
EU,2,2,1,1,0.728238217,0.552919634,0.623641747,2,40,1,1
EU,1,1,1,1,1.399411249,0.398634692,0.364830792,2,41,1,1
EU,1,1,1,1,0.92881819,2.258024389,1.764768729,1,42,1,1
EU,1,2,2,1,0.387812947,0.822842629,2.235233581,1,43,1,0
EU,1,1,1,1,0.470233849,0.293595851,1.046132173,1,44,1,1
EU,2,2,1,1,1.681843085,0.551767312,2.588096081,2,45,1,1
EU,2,1,1,1,0.846675648,1.692747606,3.282036435,2,46,1,0
EU,2,2,1,1,0.657694747,0.54118119,1.635267385,2,47,1,1
EU,2,2,1,2,0.176664178,0.140563718,2.081654355,2,48,1,1
EU,1,1,2,1,0.623065394,1.658123643,3.940982065,1,49,1,1
EU,2,2,1,1,1.445511082,0.658676512,0.976610123,1,0,2,1
EU,2,2,1,2,1.258897582,1.187702682,0.564080954,2,1,2,1
EU,2,2,1,2,0.328283725,0.375823864,0.294170665,2,2,2,1
EU,2,2,1,2,0.270747678,0.152320257,1.140558713,1,3,2,1
EU,1,1,1,1,1.211330107,0.704276992,1.823469804,1,4,2,1
EU,1,1,1,2,0.164151102,0.222824457,0.965830344,1,5,2,1
EU,1,1,1,2,0.44574247,0.482615637,2.270944416,2,6,2,1
EU,2,1,1,1,0.352534474,0.692759926,1.647034704,2,7,2,0
EU,1,1,1,2,0.176033154,0.175798685,1.247069432,2,8,2,1
EU,1,1,1,2,0.258350874,0.540578656,2.094052699,1,9,2,1
EU,2,1,1,1,1.482483195,0.470149147,1.599324007,1,10,2,0
EU,2,2,1,1,1.552401416,0.646381734,2.305824407,1,11,2,1
EU,1,2,1,1,0.353150869,0.411146228,0.540568261,2,12,2,0
EU,1,2,1,2,4.504465876,0.55294928,3.305747406,2,13,2,0
EU,2,2,1,1,4.575691961,0.26989874,0.764729458,2,14,2,1
EU,1,2,1,2,0.246645155,0.211060988,0.447101926,2,15,2,0
EU,1,1,1,1,1.187699601,0.434523399,0.141318714,1,16,2,1
EU,2,2,1,1,2.375915881,0.610328629,2.941074082,1,17,2,1
EU,1,2,2,1,0.304764101,5.929037258,1.00002849,1,18,2,0
EU,2,1,1,1,0.705447025,0.281667599,0.529443901,1,19,2,0
EU,2,2,1,2,0.717172378,1.551557483,0.341246872,1,20,2,1
EU,2,2,1,1,1.470032491,0.36408465,0.258913752,2,21,2,1
EU,2,2,1,2,0.235397979,0.175186141,1.328588649,2,22,2,1
EU,1,1,1,1,2.30631529,0.316056708,0.90488122,2,23,2,1
EU,1,1,1,2,0.176015058,0.199491561,0.905940756,2,24,2,1
EU,2,1,1,2,0.728293658,0.670573578,1.435262996,2,25,2,0
EU,2,2,1,2,0.222918398,0.117802941,0.717138883,1,26,2,1
EU,1,1,1,1,1.128913825,0.317019993,0.882392642,1,27,2,1
EU,1,1,1,2,0.446588713,0.587609048,0.729460611,1,28,2,1
EU,1,2,1,1,0.834762026,0.340516516,0.164843343,2,29,2,0
EU,1,1,1,1,0.375992882,0.26990952,0.211845245,2,30,2,1
EU,2,2,1,1,0.741513219,0.751341649,4.057742025,1,31,2,1
EU,2,1,1,1,0.340780245,0.293335587,1.752993709,1,32,2,0
EU,1,1,1,1,1.352323876,1.235301342,0.32992462,1,33,2,1
EU,1,2,1,1,0.328140888,0.305911804,0.153185365,1,34,2,0
EU,2,2,1,2,0.517168759,0.222256958,2.576386897,2,35,2,1
EU,2,2,1,1,0.270119348,0.293495364,1.047746888,2,36,2,1
EU,2,2,1,2,0.164264679,0.093523316,1.63528856,2,37,2,1
EU,1,1,1,1,0.305409756,0.316378188,0.517727018,2,38,2,1
EU,1,2,1,1,0.327992275,0.434951141,3.23515735,1,39,2,0
EU,2,1,1,1,0.258258087,0.269973431,0.623677938,1,40,2,0
EU,1,2,1,1,0.257676343,0.317586337,3.918118877,1,41,2,0
EU,2,1,1,1,0.32961315,0.269979206,1.411110422,1,42,2,0
EU,1,1,1,1,0.281914003,0.257513101,0.635298185,1,43,2,1
EU,2,2,1,1,0.246572004,0.45817739,1.000040426,1,44,2,1
EU,2,2,1,2,0.199526597,0.211209215,1.529817357,2,45,2,1
EU,2,2,1,2,0.258242687,0.246533888,1.18825709,2,46,2,1
EU,1,1,2,2,0.316531421,2.576355712,0.729127966,2,47,2,1
EU,1,1,1,2,0.246779522,0.246173138,1.435329217,2,48,2,1
EU,1,2,1,2,0.481854481,0.36405154,0.823595316,2,49,2,0
EU,2,2,1,1,0.845708898,0.352685397,2.188207424,1,0,3,1
EU,2,2,1,2,0.66940624,0.270645266,1.058800406,1,1,3,1
EU,1,1,1,1,0.340026789,0.622908696,2.364644834,1,2,3,1
EU,1,1,1,1,0.246578549,0.422849251,0.824276776,2,3,3,1
EU,1,2,1,1,1.176674188,0.293424523,1.999275034,2,4,3,0
EU,1,2,1,1,0.647246842,0.246413767,2.563989323,2,5,3,0
EU,1,1,1,2,0.235005658,1.058669504,1.09346518,2,6,3,1
EU,2,2,1,1,0.246582014,0.387595804,0.964751943,1,7,3,1
EU,2,2,1,2,0.363568743,0.35227729,2.070534615,1,8,3,1
EU,2,1,1,1,0.599509195,0.352382012,0.247129107,1,9,3,0
EU,1,2,1,1,1.29356813,1.293453014,1.141201673,2,10,3,0
EU,2,1,1,1,0.317222506,0.775819552,1.952851026,2,11,3,0
EU,2,2,2,1,0.223055075,0.834660769,1.705907877,2,12,3,1
EU,1,1,1,2,0.223063161,0.64707282,0.64647221,1,13,3,1
EU,2,2,1,1,0.340688614,0.328867009,1.141257498,1,14,3,1
EU,1,1,1,1,0.375263296,0.411843474,0.600116349,1,15,3,1
EU,2,2,1,1,1.140508662,0.340458765,0.212013877,1,16,3,1
EU,1,1,1,1,0.328914749,0.352225315,1.447128876,2,17,3,1
EU,1,1,1,1,6.482501676,0.492801353,1.798898729,2,18,3,1
EU,2,2,1,1,0.281867417,0.317022688,0.447136962,2,19,3,1
EU,2,2,1,2,0.305803617,0.282153476,4.716493228,2,20,3,1
EU,1,1,1,1,0.281219067,0.223531328,1.329415642,2,21,3,1
EU,2,2,1,2,0.210622081,0.153005183,0.952953823,1,22,3,1
EU,2,1,1,1,0.388208348,0.505677874,0.575638061,1,23,3,0
EU,1,2,1,1,0.211931871,0.151656892,0.822919245,1,24,3,0
EU,1,1,1,2,0.270865874,1.48147294,0.387655095,1,25,3,1
EU,1,1,1,1,0.270785793,0.610255093,1.234648757,2,26,3,1
EU,2,2,2,2,0.352522539,1.399266487,0.470640415,2,27,3,1
EU,2,2,2,2,0.328996756,0.340513436,0.553008956,2,28,3,1
EU,1,1,1,1,0.31713357,0.328123947,1.858822968,2,29,3,1
EU,1,2,1,1,0.247264245,0.305219178,1.234644907,2,30,3,0
EU,2,1,2,1,1.410609145,0.294002417,0.294185295,1,31,3,0
EU,1,1,1,2,0.270814284,0.340492261,3.222749766,1,32,3,1
EU,1,2,1,2,0.258352414,0.246442257,0.647128645,1,33,3,0
EU,2,2,1,2,0.316936062,0.152313712,2.058981359,2,34,3,1
EU,2,1,1,1,0.305426696,0.305238428,0.588613143,2,35,3,0
EU,1,1,1,1,0.306467752,0.222772866,1.763837015,1,36,3,1
EU,2,2,1,1,0.599486479,0.093436304,0.753039525,1,37,3,1
EU,2,2,1,1,0.222913393,0.269962651,0.894295484,1,38,3,1
EU,1,2,1,1,1.64645912,0.234697268,0.800948885,2,39,3,0
EU,1,2,1,1,0.305263069,0.281885897,1.552934264,2,40,3,0
EU,2,2,1,1,0.282499212,0.364126231,3.751807506,2,41,3,1
EU,2,1,1,1,0.681900451,0.446272623,0.588347874,2,42,3,0
EU,1,1,1,1,0.764223946,0.446414306,1.353071173,1,43,3,1
EU,2,2,1,1,0.258498331,0.293320187,1.129360047,1,44,3,1
EU,1,2,1,1,0.269142588,0.341492891,0.352965681,1,45,3,0
EU,1,1,1,1,0.246539278,0.187719622,1.058850842,1,46,3,1
EU,1,1,1,2,0.187806633,0.24630943,0.906649937,2,47,3,1
EU,2,2,1,2,0.258207266,0.234706893,0.317889336,2,48,3,1
EU,2,1,1,1,0.211276976,0.222944964,1.341196052,2,49,3,0
EU,1,2,1,1,0.258182241,0.74025733,5.329158843,1,0,4,0
EU,2,2,1,1,0.223053535,0.293571981,1.729397855,1,1,4,1
EU,2,1,1,2,0.352459398,0.611173332,1.752903618,1,2,4,0
EU,1,1,1,2,0.199577033,0.258167226,0.376549986,1,3,4,1
EU,1,2,1,1,0.164225409,0.211143764,1.91766611,2,4,4,0
EU,2,2,1,2,0.281768086,0.246509633,0.576529349,2,5,4,1
EU,2,1,1,1,0.245834718,0.434740158,1.341217612,2,6,4,0
EU,1,2,1,1,0.234869751,0.246393361,0.659565105,1,7,4,0
EU,2,2,1,1,0.22305238,0.1876149,0.258887572,1,8,4,1
EU,1,1,1,1,0.199946638,0.257754884,2.740406327,1,9,4,1
EU,1,1,1,1,0.258336628,0.422232472,1.141227083,1,10,4,1
EU,2,2,1,2,2.175867986,1.105202854,0.294239581,2,11,4,1
EU,2,2,2,2,0.211266581,1.481647348,0.800085702,2,12,4,1
EU,1,1,2,1,0.257689048,2.588174237,0.658861314,2,13,4,1
EU,2,2,1,2,0.223036595,0.18761567,0.247177233,2,14,4,1
EU,1,2,1,1,0.223069706,0.176079354,0.764739853,2,15,4,0
EU,2,2,1,2,0.199586273,0.081694395,0.623585537,1,16,4,1
EU,2,2,1,1,0.199608603,0.105173978,1.929383763,1,17,4,1
EU,1,1,1,1,0.234682638,0.223061621,0.353053462,1,18,4,1
EU,1,2,1,1,1.258261552,0.293464949,0.811859182,1,19,4,0
EU,1,2,1,1,0.870855171,0.128002131,0.693532633,1,20,4,0
EU,2,1,1,1,0.245902479,0.199988604,1.604708699,1,21,4,0
EU,2,1,1,1,0.199588583,0.281632948,1.658810879,2,22,4,0
EU,1,1,2,1,0.799463533,0.375202465,2.188218974,2,23,4,1
EU,2,2,1,1,0.75240003,0.281030029,0.799835448,2,24,4,1
EU,2,2,1,1,0.623051918,0.18758487,0.36470682,2,25,4,1
EU,1,2,1,2,0.211248485,0.222978459,0.811818371,1,26,4,0
EU,2,2,1,1,1.704677783,1.24698473,0.847086449,1,27,4,1
EU,1,2,1,1,0.22303005,0.163480807,1.71761629,1,28,4,0
EU,1,2,1,1,0.481909537,0.469930464,1.423491826,1,29,4,0
EU,1,1,2,1,0.269072902,3.270054282,0.49426861,1,30,4,1
EU,1,2,1,2,0.198852452,0.164829483,0.294202235,1,31,4,0
EU,1,2,1,1,0.305417841,0.599299366,14.83430579,1,32,4,0
EU,2,2,1,1,0.305403596,0.316902951,0.400088089,2,33,4,1
EU,2,2,1,2,0.352472873,0.246436482,2.611644195,2,34,4,1
EU,2,1,1,1,0.281912463,0.305218023,0.411827303,2,35,4,0
EU,2,2,1,1,0.270101253,0.245775427,1.164683566,2,36,4,1
EU,2,1,2,1,0.446624904,0.44637234,1.63526238,2,37,4,0
EU,1,1,1,1,0.258226132,0.293499214,0.764859205,2,38,4,1
EU,1,2,1,1,0.258339323,0.211158394,0.270027332,1,39,4,0
EU,1,1,1,1,0.270783868,0.269053652,0.846451959,1,40,4,1
EU,2,1,2,1,0.669470151,0.282345209,3.000243324,1,41,4,0
EU,1,1,1,2,0.258352029,1.105224799,0.423598088,2,42,4,1
EU,2,1,1,1,0.599767148,0.56380452,0.505924663,2,43,4,0
EU,2,1,1,1,1.010575341,0.293467644,2.035278473,2,44,4,0
EU,2,2,1,1,0.258395149,0.281015784,0.964695347,2,45,4,1
EU,1,2,1,1,0.281874732,0.317048868,1.047103928,1,46,4,0
EU,1,2,1,1,2.798695831,0.458150825,0.411845399,1,47,4,0
EU,2,1,1,1,0.458381828,0.622226466,2.752836627,1,48,4,0
EU,1,1,1,1,1.728849221,0.258851766,0.717052256,1,49,4,1
EU,1,1,1,2,1.140115186,0.728495401,2.870491341,1,0,5,1
EU,2,2,1,2,0.446446646,0.328792702,0.282524237,1,1,5,1
EU,2,2,1,2,0.576049632,0.658102083,1.235282092,1,2,5,1
EU,2,2,1,2,0.281903223,0.211086783,0.329541924,2,3,5,1
EU,1,2,1,1,0.658376592,0.246366411,0.282436071,2,4,5,0
EU,2,2,1,2,0.199545077,0.10528563,1.246553909,2,5,5,1
EU,1,1,2,2,0.187783918,1.399298057,0.305956079,2,6,5,1
EU,1,1,1,2,0.140795491,1.116870457,1.17647822,2,7,5,1
EU,2,2,1,1,0.705383884,0.258196486,0.588321309,1,8,5,1
EU,1,1,1,2,0.164323585,0.304269754,1.141214763,1,9,5,1
EU,1,1,1,2,0.281856637,0.846398443,2.52936844,1,10,5,1
EU,2,1,1,1,2.18761182,0.305216098,0.717707151,1,11,5,0
EU,1,2,1,1,0.611948734,0.551609844,2.775715216,2,12,5,0
EU,2,2,1,2,0.188425338,0.105368021,1.26990105,2,13,5,1
EU,1,1,1,2,0.176062029,0.646398674,1.435270696,2,14,5,1
EU,2,2,2,2,0.4230637,0.434603866,0.576548214,2,15,5,1
EU,1,2,1,1,0.492943035,0.294151414,1.694117842,2,16,5,0
EU,1,1,1,2,0.247512573,1.010174935,0.364123921,2,17,5,1
EU,2,2,1,2,0.351805273,0.329434122,1.317663338,1,18,5,1
EU,2,2,1,1,1.470067911,0.45816892,2.317517421,1,19,5,1
EU,1,1,1,2,0.352458243,0.399368128,0.353008032,1,20,5,1
EU,1,2,1,1,0.32894632,0.375840805,0.541270897,1,21,5,0
EU,2,2,1,1,0.893663689,1.77568634,0.65888711,1,22,5,1
EU,2,2,1,1,0.753120761,0.246564689,1.034647063,2,23,5,1
EU,1,2,1,1,0.269455213,1.176408919,2.764572376,2,24,5,0
EU,2,1,1,1,1.176020063,0.388237224,0.658185244,2,25,5,0
EU,2,2,1,1,0.517315446,0.327892944,2.929309457,2,26,5,1
EU,1,1,1,1,0.458354493,0.540546701,7.470816748,2,27,5,1
EU,1,1,1,1,0.199552777,0.199384145,0.705941757,1,28,5,1
EU,2,2,1,2,0.32829489,0.152314097,1.235265152,1,29,5,1
EU,1,1,1,2,0.164325895,0.458079213,4.458637087,1,30,5,1
EU,2,2,1,2,0.211949196,0.175943062,0.317066579,1,31,5,1
EU,1,2,1,2,0.175996193,0.140472857,1.094189376,1,32,5,0
EU,1,1,2,2,0.50605518,0.72875066,0.305320435,2,33,5,1
EU,2,1,1,2,0.223032745,0.198718084,1.917637234,2,34,5,0
EU,2,2,1,2,0.375988262,0.28170533,0.435412378,2,35,5,1
EU,2,2,1,2,0.199520437,0.211199205,1.72940132,2,36,5,1
EU,2,2,2,2,0.235473055,0.222941114,0.517057493,2,37,5,1
EU,1,2,1,2,0.199504266,0.199371439,2.141177032,2,38,5,0
EU,1,1,1,2,0.552513068,0.775756026,0.37654267,2,39,5,1
EU,1,2,1,1,0.788040409,0.282390255,2.787181076,1,40,5,0
EU,2,2,1,2,0.152428059,0.163504293,0.29422572,1,41,5,1
EU,1,1,1,2,0.223136697,0.199294438,0.341245717,1,42,5,1
EU,1,1,1,1,0.58776536,0.728085755,1.435287251,1,43,5,1
EU,2,2,1,1,0.917835897,0.246385661,0.869946172,1,44,5,1
EU,1,2,1,1,0.293666692,0.257496546,0.682401728,1,45,5,0
EU,2,2,1,2,0.175337833,0.188297131,0.564738929,1,46,5,1
EU,1,2,1,2,0.17675042,2.010958807,0.223585229,2,47,5,0
EU,2,1,1,1,1.151743133,2.211629641,3.376331302,2,48,5,0
EU,2,2,1,1,0.292939031,0.270697627,0.541270512,2,49,5,1
EU,2,2,1,1,1.011044278,1.210785708,1.059510742,2,0,6,1
EU,1,2,1,1,0.293791434,0.199259018,0.576493544,1,1,6,0
EU,2,2,2,2,0.764134239,2.32863177,0.917793932,1,2,6,1
EU,1,2,1,2,0.199529292,0.211142224,1.517619986,1,3,6,0
EU,2,2,1,2,0.587040394,0.200247328,0.765494465,1,4,6,1
EU,2,2,1,2,0.353155489,0.211062143,0.340630093,1,5,6,1
EU,1,1,1,1,0.847268172,0.234608332,0.787354328,2,6,6,1
EU,1,1,2,2,0.658335011,0.52870392,0.294228416,2,7,6,1
EU,1,1,1,2,0.457737328,0.340544237,0.624252367,2,8,6,1
EU,2,2,2,2,0.481897217,1.033915167,0.21184101,2,9,6,1
EU,1,2,1,2,0.40011889,0.222179572,1.670000689,1,10,6,0
EU,1,1,1,1,0.705374643,0.505215482,0.470680071,1,11,6,1
EU,2,2,1,1,0.199518512,0.269963421,0.40012043,1,12,6,1
EU,2,2,1,1,0.259016164,0.246415307,0.975858592,1,13,6,1
EU,1,1,1,2,1.976554298,1.046356632,2.128695912,1,14,6,1
EU,1,1,1,1,1.270818134,5.940093857,2.905123004,1,15,6,1
EU,1,1,1,1,0.22301465,0.364111601,0.988265791,2,16,6,1
EU,2,2,1,1,0.963521849,0.175794065,0.65892715,2,17,6,1
EU,2,2,1,1,0.270133593,0.258221512,0.540569031,2,18,6,1
EU,2,2,1,1,0.469326005,0.306011135,0.529513972,2,19,6,1
EU,2,2,1,2,0.270108953,3.481549556,0.411843474,2,20,6,1
EU,1,2,1,1,0.281226767,0.282397955,0.929450369,1,21,6,0
EU,1,1,1,1,0.834826707,0.364068095,2.035882547,1,22,6,1
EU,1,2,1,1,0.223128997,0.199982059,0.869976588,1,23,6,0
EU,2,1,1,1,0.222365915,0.200024794,0.894795991,1,24,6,0
EU,2,2,1,1,0.246617435,0.199364894,0.529455067,1,25,6,1
EU,1,2,1,1,1.151744288,0.305866373,0.776532583,2,26,6,0
EU,2,1,2,1,1.528233828,1.835065411,3.258694299,2,27,6,0
EU,1,2,1,1,0.258327388,0.317045788,0.953001564,2,28,6,0
EU,2,2,1,1,0.257818025,0.610943484,1.482360379,2,29,6,1
EU,1,1,2,2,0.423045604,0.61102087,0.56480207,2,30,6,1
EU,1,2,1,2,0.434835639,0.234586771,0.47066621,2,31,6,0
EU,2,2,1,1,0.470113342,0.352299236,0.38833694,1,32,6,1
EU,2,1,1,1,0.951614002,0.294273461,2.047050412,1,33,6,0
EU,2,1,1,1,1.516509629,0.375745323,0.529484712,1,34,6,0
EU,2,2,1,1,0.211389783,0.175759029,0.56477974,1,35,6,1
EU,2,2,1,1,0.270007696,0.31712202,5.717333311,1,36,6,1
EU,1,1,1,1,0.987084593,0.2581037,0.623570906,2,37,6,1
EU,1,1,1,2,0.246601649,0.258192251,0.48244508,2,38,6,1
EU,1,1,1,1,0.258316608,0.257563537,1.81173213,2,39,6,1
EU,2,2,1,1,1.092647427,1.4588396,1.02359008,2,40,6,1
EU,2,2,1,2,0.175994653,0.093497905,2.164680101,2,41,6,1
EU,1,1,2,2,0.305417841,0.610640484,0.470686231,2,42,6,1
EU,1,2,1,1,1.175972708,0.282380245,1.046411688,1,43,6,0
EU,2,2,1,1,1.12890266,0.292761543,2.211680077,1,44,6,1
EU,1,1,1,1,0.32894786,0.494110758,0.869980053,1,45,6,1
EU,2,2,1,1,0.223072401,0.175962698,0.423591158,1,46,6,1
EU,1,2,1,1,0.188428033,0.128895345,0.399414329,1,47,6,0
EU,1,2,1,1,0.835479292,0.422876972,0.893468106,2,48,6,0
EU,2,2,1,1,1.187760432,0.317616752,0.764066478,2,49,6,1
EU,2,1,1,1,1.693448702,0.539424409,0.764752559,1,0,7,0
EU,1,2,1,1,0.752165947,0.505121541,0.247356646,1,1,7,0
EU,1,2,1,1,0.245909794,0.670654044,1.776422472,2,2,7,0
EU,2,2,1,1,0.293626651,0.29350807,0.870628018,2,3,7,1
EU,1,1,2,2,0.317143965,0.669938703,0.411907,2,4,7,1
EU,1,1,1,1,0.35257105,0.34106284,1.164790597,1,5,7,1
EU,1,1,1,1,1.31780887,0.716421232,0.846463894,1,6,7,1
EU,2,2,1,1,0.246578549,0.176667643,0.704984632,1,7,7,1
EU,2,1,1,1,1.082475187,1.292691472,1.399368513,1,8,7,0
EU,2,2,1,1,0.881634951,0.199397235,0.706152355,2,9,7,1
EU,1,2,1,1,0.222409036,0.469963575,1.035303498,2,10,7,0
EU,2,1,1,1,0.352454393,0.528732411,1.764044148,2,11,7,0
EU,1,2,1,1,0.341379314,0.528789391,1.176494006,2,12,7,0
EU,1,1,1,1,0.317191706,0.304635509,1.682318952,1,13,7,1
EU,1,1,1,1,1.328848528,0.893438075,2.776377426,1,14,7,1
EU,2,1,1,1,1.446529422,0.35227652,7.293674392,1,15,7,0
EU,1,2,1,1,0.811982384,0.387556148,3.775641295,1,16,7,0
EU,2,2,1,2,0.164873759,0.070037958,2.069905516,2,17,7,1
EU,2,2,1,1,0.223129767,0.187417777,0.447196638,2,18,7,1
EU,2,2,1,1,0.163604009,0.09416127,1.352921405,2,19,7,1
EU,2,1,1,1,0.16429548,0.152289457,1.141213608,2,20,7,0
EU,1,1,1,2,0.270128973,0.516374492,0.847131495,2,21,7,1
EU,2,2,2,2,0.493646826,0.386942064,1.058814267,1,22,7,1
EU,1,2,1,2,0.294358933,0.363988014,3.06982659,1,23,7,0
EU,1,1,1,1,0.575854819,0.387511488,0.410871334,1,24,7,1
EU,1,1,2,2,1.117843752,0.328736492,0.469948559,1,25,7,1
EU,2,2,2,2,0.31649831,0.564719294,0.247167993,2,26,7,1
EU,2,1,1,1,0.222434446,0.222840242,2.352878285,2,27,7,0
EU,2,2,1,2,0.364250203,0.317040398,0.601033818,2,28,7,1
EU,1,1,2,2,0.387119167,0.423542647,0.553002796,2,29,7,1
EU,1,1,2,2,0.364252513,0.811199667,0.976526577,2,30,7,1
EU,2,2,2,2,0.458974352,0.434672012,0.281833922,2,31,7,1
EU,1,1,1,1,0.576009206,0.44701992,0.528851377,2,32,7,1
EU,2,2,1,1,0.799538609,0.246394901,0.564787055,1,33,7,1
EU,1,1,1,1,0.282525007,0.481682383,0.517116013,1,34,7,1
EU,1,1,1,1,0.458382213,0.386868528,1.10590857,1,35,7,1
EU,1,2,1,1,0.223705735,0.18692266,0.317030388,1,36,7,0
EU,2,2,2,2,0.376019062,0.646399829,0.294219175,1,37,7,1
EU,2,1,1,1,0.353101588,0.375868525,2.046373572,1,38,7,0
EU,2,2,2,2,0.34139356,0.352237635,0.434697807,2,39,7,1
EU,2,2,1,2,0.282530397,0.292843934,2.834577608,2,40,7,1
EU,2,2,1,1,1.081869958,0.340532301,0.388305755,2,41,7,1
EU,1,1,1,1,0.317830815,0.352347747,0.293536175,2,42,7,1
EU,2,1,1,1,0.210597826,0.176555222,0.482339203,1,43,7,0
EU,1,1,1,1,0.211957666,0.211131444,0.834689645,1,44,7,1
EU,2,2,2,2,0.564278847,1.105187069,0.494053007,1,45,7,1
EU,2,2,1,2,0.211299306,0.152279061,0.611847478,1,46,7,1
EU,1,2,1,2,0.1757752,0.128747118,3.600052053,1,47,7,0
EU,1,1,2,2,0.293042982,1.023482278,0.447116941,1,48,7,1
EU,1,1,1,1,0.823729298,0.905179599,1.458149669,1,49,7,1
EU,1,2,1,1,0.292458544,0.423337824,1.541422589,1,0,8,0
EU,1,2,1,2,0.175351693,0.105948995,1.047065043,1,1,8,0
EU,1,1,1,2,0.822967756,1.598615211,0.411897759,1,2,8,1
EU,2,2,1,2,0.282546952,0.317023073,0.38763854,1,3,8,1
EU,1,1,1,1,0.58775997,0.68085824,0.37653651,1,4,8,1
EU,1,1,1,2,0.387073736,0.847080289,1.070643187,2,5,8,1
EU,2,1,1,1,0.317176305,0.328759977,2.058811572,2,6,8,0
EU,2,2,1,2,0.364298714,0.351514979,0.800057982,2,7,8,1
EU,2,2,2,2,0.446591023,1.351581585,0.517731638,2,8,8,1
EU,2,2,1,2,0.693710506,2.751864487,1.01181891,2,9,8,1
EU,2,2,2,2,0.376011747,0.399990298,0.446476677,2,10,8,1
EU,1,1,1,1,0.246573929,0.53986216,2.905776359,2,11,8,1
EU,2,1,1,1,0.329583119,0.37584273,0.341282678,1,12,8,0
EU,1,1,1,2,0.258380904,0.457484379,0.482384634,1,13,8,1
EU,1,1,1,1,1.128073357,0.27058097,0.670721035,1,14,8,1
EU,2,2,1,2,0.294298102,0.293551575,0.752356525,1,15,8,1
EU,1,1,1,1,0.340694004,0.410495183,4.564476355,2,16,8,1
EU,1,1,1,2,0.341322718,0.587647164,0.270714952,2,17,8,1
EU,2,2,2,2,0.411302925,0.505243202,0.258873712,2,18,8,1
EU,2,2,1,2,0.270110108,0.246416462,0.493542104,2,19,8,1
EU,2,2,2,2,0.211324332,0.233964987,0.247161063,2,20,8,1
EU,2,2,2,2,0.575114068,0.846355708,0.412079482,2,21,8,1
EU,1,1,2,2,0.482493591,0.387563078,0.39944513,2,22,8,1
EU,1,1,2,2,0.450798367,0.375805384,0.595821993,2,23,8,1
EU,1,1,2,2,0.317171685,0.433998251,0.823576065,2,24,8,1
EU,1,1,1,2,1.152717968,3.222538013,0.410884809,2,25,8,1
EU,2,2,2,2,0.446604498,0.411099257,0.176549446,2,26,8,1
EU,1,1,1,1,0.692830382,1.787617672,0.694150182,2,27,8,1
EU,2,2,2,2,0.975318429,1.247001671,0.36472761,1,28,8,1
EU,2,2,1,2,0.376148424,0.305257679,0.152856185,1,29,8,1
EU,2,2,1,2,0.281895522,0.199372209,0.624244282,1,30,8,1
EU,2,2,1,1,0.282657449,0.352140998,3.41094333,1,31,8,1
EU,2,2,1,2,0.270495499,0.140119806,0.64710054,1,32,8,1
EU,2,2,2,2,0.211336267,0.175175361,0.223636049,1,33,8,1
EU,1,2,1,1,0.31783813,0.234690338,0.917008905,1,34,8,0
EU,1,1,1,1,0.435629906,1.975553282,0.340597367,1,35,8,1
EU,1,1,1,2,0.353122378,0.411428437,0.364126231,2,36,8,1
EU,1,1,2,2,0.341645353,1.728012604,1.163761477,2,37,8,1
EU,1,1,1,2,0.564912182,0.446325754,0.658243765,2,38,8,1
EU,2,2,1,2,0.363708115,1.246875774,0.376535355,2,39,8,1
EU,1,1,1,1,0.304773341,0.412047527,1.282346364,2,40,8,1
EU,2,2,1,1,0.363592998,0.44705919,0.752998329,2,41,8,1
EU,2,2,1,2,0.434815619,0.281623708,5.082100192,2,42,8,1
EU,2,2,1,2,0.576103533,1.258918372,1.446140566,1,43,8,1
EU,2,1,1,1,0.823736613,0.398616982,0.222966524,1,44,8,0
EU,1,2,1,1,0.28105852,0.246426857,0.506766671,1,45,8,0
EU,1,2,1,1,1.21124579,0.869243922,1.000009625,1,46,8,0
EU,2,2,1,1,1.787623832,0.081700556,0.553027051,1,47,8,1
EU,1,1,2,1,1.022393096,1.282248958,1.01177733,1,48,8,1
EU,1,1,1,2,0.493231019,1.235344848,0.905627361,1,49,8,1
EU,2,2,1,1,1.646179606,0.363266898,1.423482201,2,0,9,1
EU,2,2,2,2,0.575758182,1.128811799,0.270799268,2,1,9,1
EU,2,2,2,1,0.798846368,5.046093288,0.388345795,2,2,9,1
EU,1,2,1,2,0.375986337,0.328767292,1.64706512,1,3,9,0
EU,2,2,1,2,0.269495253,0.199971279,0.517750118,1,4,9,1
EU,2,1,1,1,1.423660844,0.305226493,0.258257702,1,5,9,0
EU,1,1,1,1,1.081853403,0.411747222,0.234725758,1,6,9,1
EU,1,1,1,2,0.140200272,1.811539242,0.305964164,1,7,9,1
EU,1,2,1,1,0.293673622,0.352305396,1.341170641,1,8,9,0
EU,1,1,1,2,0.222890293,0.234620267,1.05903757,2,9,9,1
EU,2,2,2,2,0.458239761,0.352965296,0.340722879,2,10,9,1
EU,1,1,1,2,0.305402826,1.964071252,0.435401598,2,11,9,1
EU,2,2,2,2,0.281109341,0.611886363,0.564710439,2,12,9,1
EU,2,2,1,2,0.293578526,0.44572476,0.412498754,2,13,9,1
EU,1,2,1,1,0.281864722,0.364068865,0.400083084,2,14,9,0
EU,1,1,1,2,0.235896176,0.385847877,1.329421802,2,15,9,1
EU,1,1,1,2,0.235208941,0.293347137,0.447129261,1,16,9,1
EU,2,2,2,2,0.693659685,0.493448163,0.341261118,1,17,9,1
EU,1,1,1,2,0.32827795,0.552283605,0.353036907,1,18,9,1
EU,2,2,1,2,0.375393428,0.117618523,1.588178087,1,19,9,1
EU,2,2,1,2,0.375962852,0.175876071,0.411868114,1,20,9,1
EU,1,1,1,2,0.317244836,0.469215508,0.811821836,1,21,9,1
EU,2,1,1,2,0.634801913,0.645746474,2.5998942,1,22,9,0
EU,2,2,1,2,0.293630501,0.799364971,0.870624938,1,23,9,1
EU,1,1,2,1,0.564235727,0.62280513,3.046942996,1,24,9,1
EU,2,2,1,2,0.469229753,0.399571411,0.764749479,2,25,9,1
EU,2,1,1,1,1.070202355,0.552176958,2.776354711,2,26,9,0
EU,1,2,2,1,0.258364734,0.446456271,0.529416181,2,27,9,0
EU,1,1,1,2,0.387752116,0.987523115,0.30599304,2,28,9,1
EU,1,1,1,2,0.270163624,0.316939527,0.29421879,2,29,9,1
EU,2,1,1,1,1.270061597,0.305275389,0.423615028,2,30,9,0
EU,2,2,2,2,0.270791568,0.281191347,0.187658791,2,31,9,1
EU,2,2,2,2,0.211544555,0.19907922,0.117755585,2,32,9,1
EU,2,2,1,2,0.222384395,0.176472445,0.811883052,2,33,9,1
EU,2,2,1,2,0.211287756,0.187646856,1.423555737,2,34,9,1
EU,1,1,2,2,0.623054998,0.681600146,0.305960699,1,35,9,1
EU,1,1,1,2,0.281902068,0.269939165,1.294112144,1,36,9,1
EU,1,1,1,1,0.32828796,0.317654483,0.435346542,1,37,9,1
EU,1,1,1,1,0.282572748,0.317207876,0.340608533,1,38,9,1
EU,1,1,1,1,0.494126928,0.29351423,0.469574334,1,39,9,1
EU,1,1,1,1,0.340069909,0.928729638,0.717709076,1,40,9,1
EU,1,2,1,1,0.282533862,0.399363123,2.458103084,1,41,9,0
EU,2,2,2,1,0.411529309,0.748084115,3.282213922,1,42,9,1
EU,2,2,2,1,0.623036518,0.434657766,4.39981204,1,43,9,1
EU,1,2,1,1,0.259003844,0.317036548,2.411037271,2,44,9,0
EU,2,2,1,2,0.258346253,0.78745828,0.317724554,2,45,9,1
EU,1,1,1,1,0.446636454,0.293419903,0.482427755,2,46,9,1
EU,2,2,1,2,0.270127818,0.564057469,0.223612949,2,47,9,1
EU,1,1,1,2,0.353120453,0.575849814,0.517073663,2,48,9,1
EU,2,2,1,1,0.317217886,0.751595368,1.564681949,2,49,9,1
EU,2,1,1,1,0.740864099,0.728488856,0.787641158,1,0,10,0
EU,1,1,1,1,1.775267839,2.776314285,11.31693683,1,1,10,1
EU,2,2,1,1,0.305447102,0.411081547,0.658899045,1,2,10,1
EU,1,1,1,1,0.870817441,8.527476521,1.469914679,1,3,10,1
EU,2,2,1,1,0.293617026,0.234698808,0.517732023,2,4,10,1
EU,1,2,1,2,0.21023207,0.165043161,0.494291325,2,5,10,0
EU,2,2,2,2,0.187865924,0.16399171,0.517683512,2,6,10,1
EU,2,2,1,1,0.32894478,0.222272359,0.682371698,2,7,10,1
EU,1,2,1,1,0.281246018,0.623530481,0.447156212,2,8,10,0
EU,1,1,1,2,0.364410365,1.434522629,0.599263176,2,9,10,1
EU,2,1,1,1,1.576018446,0.305169127,0.29416566,2,10,10,0
EU,2,1,1,1,0.692978609,0.341164866,1.894084115,1,11,10,0
EU,1,2,1,1,1.257640923,0.329409482,1.176471675,1,12,10,0
EU,1,1,1,1,0.41060029,0.705866296,0.329529989,1,13,10,1
EU,1,2,1,1,0.258315453,0.328846988,0.823587231,1,14,10,0
EU,1,1,1,1,0.575971091,0.751633869,1.165439717,1,15,10,1
EU,2,2,1,1,0.281858947,0.270026177,0.847121869,1,16,10,1
EU,2,2,1,2,0.175361318,0.105295255,1.611773171,2,17,10,1
EU,2,2,2,2,0.212294546,0.175838341,0.328495863,2,18,10,1
EU,1,1,1,2,0.31712279,1.23387066,0.717812643,2,19,10,1
EU,2,2,1,2,0.211302386,0.163513148,0.376570006,2,20,10,1
EU,1,2,1,1,0.400195506,0.352236865,0.281801966,2,21,10,0
EU,1,2,1,2,0.151490184,0.093860966,1.764691728,2,22,10,0
EU,2,2,1,2,0.235115384,1.010780164,1.129437818,2,23,10,1
EU,2,2,2,2,0.646530731,0.434684332,0.882441923,1,24,10,1
EU,2,2,1,2,0.258402849,0.764694038,0.752313019,1,25,10,1
EU,1,1,1,1,0.89307309,0.493353836,0.411826148,2,26,10,1
EU,2,2,1,1,0.387110697,0.27055864,0.376577706,1,27,10,1
EU,1,1,1,2,0.493768488,0.328757282,1.364585928,1,28,10,1
EU,1,1,2,1,0.22369842,0.446464356,0.952332423,1,29,10,1
EU,2,1,1,1,1.246529653,0.681693702,0.447145432,2,30,10,0
EU,2,2,2,1,0.281180567,1.422821146,0.517722013,2,31,10,1
EU,1,1,1,1,0.457410458,0.481919547,0.541245871,2,32,10,1
EU,2,2,2,2,0.282575058,0.293473034,0.305263069,2,33,10,1
EU,1,1,2,2,0.434768648,0.411111577,0.494281315,2,34,10,1
EU,1,1,1,2,0.387069886,0.258837136,0.858861853,1,35,10,1
EU,2,2,1,2,0.423077175,0.37582964,0.364811157,1,36,10,1
EU,1,2,1,1,0.270104718,0.693433301,0.294242276,1,37,10,0
EU,2,2,1,1,0.281209442,0.281800811,0.282477651,1,38,10,1
EU,1,1,1,1,0.434807149,0.434645446,0.717718702,1,39,10,1
EU,1,1,1,2,0.245917494,0.27060946,0.870633408,1,40,10,1
EU,1,1,2,2,0.305448642,0.575126003,0.411610545,1,41,10,1
EU,2,2,1,2,0.317910512,0.199299443,0.364113141,1,42,10,1
EU,1,2,1,2,0.293416438,0.16396784,1.423838716,2,43,10,0
EU,2,2,1,2,0.258313528,0.328839288,0.412486048,2,44,10,1
EU,2,2,1,2,0.187805863,0.152357218,0.611828997,2,45,10,1
EU,1,1,2,2,0.470748987,1.599276651,0.364148176,2,46,10,1
EU,1,1,2,2,0.434822934,0.411102722,0.635320515,2,47,10,1
EU,2,2,1,1,0.281991389,0.246231659,1.10592397,1,48,10,1
EU,2,1,1,1,0.353071943,0.316302342,0.540635252,1,49,10,0
EU,1,2,1,1,0.599337867,1.116676799,0.858858388,1,0,11,0
EU,2,2,1,1,0.293675162,0.175852586,0.870649963,1,1,11,1
EU,2,2,2,1,0.351813358,0.27059252,0.470668135,1,2,11,1
EU,1,1,1,1,0.869647793,0.870532921,0.576373422,2,3,11,1
EU,1,1,1,2,0.881918315,0.375810774,1.305862908,2,4,11,1
EU,2,2,1,1,0.24663707,0.211086783,0.38829305,2,5,11,1
EU,1,1,2,2,0.494306726,0.399335788,1.10526484,2,6,11,1
EU,2,2,2,1,0.352442843,0.352279601,1.564711979,2,7,11,1
EU,1,2,2,2,0.293667077,1.211089863,0.353021892,1,8,11,0
EU,2,2,2,2,0.32894555,0.328783462,0.011875506,1,9,11,1
EU,2,2,1,2,0.32895479,0.222887598,1.458805719,1,10,11,1
EU,1,1,1,1,0.658988751,0.352320411,0.269969196,1,11,11,1
EU,1,1,1,1,0.339713394,0.318000603,2.552853028,1,12,11,1
EU,1,2,2,1,0.729306608,0.32897635,1.187703452,1,13,11,0
EU,2,2,1,2,0.257644003,0.247032856,2.117664339,1,14,11,1
EU,1,1,1,2,0.294298102,0.634671011,5.575491373,1,15,11,1
EU,2,2,1,2,0.328948245,0.211116043,1.447066121,2,16,11,1
EU,2,2,2,2,0.175878766,0.164107597,0.294281546,2,17,11,1
EU,1,1,2,2,0.305460192,0.329367516,0.352361222,2,18,11,1
EU,2,2,2,2,0.552409116,0.669246848,0.341308858,2,19,11,1
EU,2,2,2,2,0.31649292,0.329300525,0.317742264,2,20,11,1
EU,2,2,2,2,0.234925576,0.517022457,0.141207063,2,21,11,1
EU,1,1,2,2,0.42242305,0.328715316,0.235355628,2,22,11,1
EU,1,1,2,2,0.316773974,0.457412383,0.353287546,2,23,11,1
EU,2,2,2,2,0.234781199,0.245768112,0.223602169,2,24,11,1
EU,2,2,2,2,0.235502315,1.088407743,0.128785233,2,25,11,1
EU,1,1,1,1,0.210765303,0.176652243,0.882287535,1,26,11,1
EU,1,1,2,1,0.563866121,1.153231566,2.046406297,1,27,11,1
EU,2,1,1,1,0.42375748,0.975758875,1.775760261,1,28,11,0
EU,1,1,1,1,0.210823054,0.211646197,0.764716368,1,29,11,1
EU,1,1,2,2,0.552452237,0.493493208,1.212371548,2,30,11,1
EU,2,2,1,2,0.387763666,0.246472672,0.482422365,2,31,11,1
EU,1,1,2,2,0.505444946,0.446276088,0.64711671,1,32,11,1
EU,2,1,1,1,1.035531807,1.199248623,1.552269359,1,33,11,0
EU,1,1,1,2,0.281964824,0.281640264,0.870641108,1,34,11,1
EU,2,1,1,1,0.434809844,0.316341998,0.317766904,1,35,11,0
EU,1,1,1,2,0.528909128,0.446394285,1.082418976,2,36,11,1
EU,2,2,1,1,0.469997455,0.45817431,0.376650857,2,37,11,1
EU,2,2,1,1,0.764238961,0.246391051,0.176522881,1,38,11,1
EU,1,1,1,1,0.433796893,0.376131099,0.764782974,1,39,11,1
EU,2,1,1,1,0.270769238,0.316988422,1.952931877,1,40,11,0
EU,2,2,2,2,0.517003977,0.340653578,0.48246587,2,41,11,1
EU,2,2,1,2,0.257640153,0.199364894,0.482581757,2,42,11,1
EU,1,1,1,2,0.223080871,1.811195817,1.081298994,2,43,11,1
EU,2,2,2,1,0.281249483,0.646966943,1.212755398,2,44,11,1
