"Subj_idx","Stimulus","Response","RT_dec","Confidence","RT_conf","SOA","Accuracy","Trial"
1,2,1,1.88912499999994,0.354486441535625,1.56725000000006,48.6,0,1
1,1,1,1.13391499999986,0.908135745847589,1.531125,54,1,2
1,1,1,0.903499999999884,0.962726312269893,1.49825000000012,54,1,3
1,2,2,0.612914999999921,1,0.842294999999925,48.6,1,4
1,2,2,0.771210000000079,1,1.19949999999994,48.6,1,5
1,1,1,0.673755000000005,1,0.810619999999995,43.74,1,6
1,1,1,0.745170000000158,0.826906479225854,1.07608000000007,43.74,1,7
1,2,2,0.592795000000042,1,0.923244999999937,39.366,1,8
1,2,2,0.872249999999884,0.988932481256349,1.29620999999996,39.366,1,9
1,1,1,0.753619999999995,0.951028023123052,1.07116999999993,35.4294,1,10
1,1,1,0.669374999999942,0.972228994949729,0.887460000000196,35.4294,1,11
1,2,2,0.665414999999921,1,0.872335000000021,31.88646,1,12
1,1,1,0.844039999999979,0.870565659480022,1.24179499999987,31.88646,1,13
1,2,2,0.604079999999842,0.968404358372406,1.16937500000017,28.697814,1,14
1,2,2,0.642119999999995,0.961658429023162,0.993334999999846,28.697814,1,15
1,1,1,0.700915000000154,1,1.1046649999998,25.8280326,1,16
1,2,2,0.808335000000196,0.984672073746974,1.5083299999999,25.8280326,1,17
1,1,1,0.734709999999905,1,0.8664200000001,23.24522934,1,18
1,2,2,0.5229200000001,1,1.7364150000001,23.24522934,1,19
1,1,1,0.767539999999804,0.795943014563562,0.871505000000063,20.920706406,1,20
1,1,1,0.656880000000005,0.748532970356445,2.03383000000007,20.920706406,1,21
1,2,2,0.702710000000021,0.959939272335207,1.357,18.8286357654,1,22
1,1,2,1.31287999999995,0.477683778611222,1.4147049999999,18.8286357654,0,23
1,2,2,0.724455000000016,0.938176362530394,1.11504500000004,20.920706406,1,24
1,1,1,1.44804000000004,0.497502617659249,1.4277099999999,20.920706406,1,25
1,2,2,0.695039999999863,0.915856964496111,1.32403999999998,18.8286357654,1,26
1,2,2,0.646289999999921,1,0.823125000000116,18.8286357654,1,27
1,1,1,1.12558500000002,0.484544070757487,1.11116499999998,16.94577218886,1,28
1,1,1,0.883915000000095,0.238641493681903,1.58345499999996,16.94577218886,1,29
1,2,2,1.17849500000011,0.049793228006888,1.4465849999999,15.251194969974,1,30
1,2,2,1.82228999999986,0.694319887504818,1.48812500000006,15.251194969974,1,31
1,1,2,0.901585000000079,0.168065166857862,1.23374999999983,13.7260754729766,0,32
1,1,2,0.921919999999984,0,1.0899549999999,15.251194969974,0,33
1,2,2,0.886919999999925,0.796312645193051,1.71562500000006,16.94577218886,1,34
1,2,2,0.694835000000021,1,0.955619999999937,16.94577218886,1,35
1,1,1,1.16341500000004,0.177376933222852,1.90667000000004,15.251194969974,1,36
1,1,1,1.34674999999994,0.07694550233202,1.35416500000021,15.251194969974,1,37
1,2,2,0.687625,0.740658943948529,2.54620999999996,13.7260754729766,1,38
1,1,1,1.20225499999995,0.009256324999985,1.30762499999988,13.7260754729766,1,39
1,2,2,0.709790000000095,0.753709495366889,1.88087999999995,12.3534679256789,1,40
1,2,2,1.40212500000006,0.066706419057814,0.866665000000037,12.3534679256789,1,41
1,1,1,0.968539999999863,0.47764648984987,0.941835000000079,11.1181211331111,1,42
1,2,2,0.627414999999921,0.798379894227372,1.07537500000012,11.1181211331111,1,43
1,1,1,1.06834000000003,0.269648107096477,1.75774499999988,10.0063090197999,1,44
1,2,2,0.678414999999863,1,1.08737500000006,10.0063090197999,1,45
1,1,1,0.835790000000037,0.310277618595398,0.986290000000095,9.00567811781995,1,46
1,2,2,0.604209999999963,0.588870302559175,0.814130000000005,9.00567811781995,1,47
1,1,1,1.22820999999996,0.118848762743827,1.23350000000006,8.10511030603796,1,48
1,2,2,0.736709999999905,0.966007261604079,1.170625,8.10511030603796,1,49
1,1,1,0.669205000000133,0.272331823664411,0.981419999999867,7.29459927543416,1,50
1,1,1,1.1015,0.394730016330077,0.767709999999846,7.29459927543416,1,51
1,2,2,0.601165000000037,0.421932604685382,2.02028999999998,6.56513934789075,1,52
1,2,1,1.12033499999985,0.064374778390854,0.9155450000001,6.56513934789075,0,53
1,1,2,0.873829999999958,0.551020408163265,0.8714650000002,7.29459927543416,0,54
1,1,1,0.886290000000154,0.130778032124064,0.856044999999984,8.10511030603796,1,55
1,2,2,0.539420000000042,0.564265999535399,1.1727900000001,8.10511030603796,1,56
1,2,2,0.785499999999942,0.834582859549352,0.882419999999925,7.29459927543416,1,57
1,1,1,0.518790000000095,0.140988381564966,1.00416999999993,7.29459927543416,1,58
1,1,1,0.691915000000095,0.247988637339407,1.52649999999994,6.56513934789075,1,59
1,2,2,0.641039999999979,1,1.15996000000014,6.56513934789075,1,60
1,2,2,0.7075,0.884714087356173,1.8015,5.90862541310167,1,61
1,1,1,0.776040000000037,0.1340562236333,0.876084999999846,5.90862541310167,1,62
1,1,2,1.29128999999992,0.229308282084079,1.6785,5.3177628717915,0,63
1,2,2,0.689455000000075,0.532636276860212,1.11212499999988,5.90862541310167,1,64
1,1,1,1.04304000000004,0.011371211547682,1.57324999999988,5.90862541310167,1,65
1,2,2,0.567414999999921,0.685763433637251,0.956625000000116,5.3177628717915,1,66
1,2,2,1.05270500000007,0.418810379658993,1.767125,5.3177628717915,1,67
1,1,1,0.718709999999963,0.289798057582526,2.15195499999996,4.78598658461235,1,68
1,2,2,0.602745000000112,0.682069213804209,0.799624999999884,4.78598658461235,1,69
1,1,2,0.678914999999921,0.237730632127873,1.37704500000004,4.30738792615112,0,70
1,2,2,0.810834999999963,0.823272960470594,0.857540000000037,4.78598658461235,1,71
1,1,1,0.584334999999963,0.301355856253455,1.64424999999988,4.78598658461235,1,72
1,2,2,0.719164999999921,1,1.85654000000004,4.30738792615112,1,73
1,1,2,1.00521000000008,0.232773814755878,1.31058499999996,4.30738792615112,0,74
1,1,1,0.668580000000075,0.386620101286803,1.13579499999993,4.78598658461235,1,75
1,2,1,1.37953999999992,0.056289539704822,1.01754500000016,4.78598658461235,0,76
1,2,2,0.608210000000079,0.756672508355174,1.3345,5.3177628717915,1,77
1,1,2,0.850379999999888,0.130354906503717,0.788414999999921,5.3177628717915,0,78
1,2,2,0.601669999999925,0.442414126863603,0.857039999999921,5.90862541310167,1,79
1,1,1,0.942080000000075,0.171616988607516,1.488875,5.90862541310167,1,80
1,1,1,1.18567000000004,0.483473639903138,1.07666500000004,5.3177628717915,1,81
1,2,2,0.519039999999921,0.778026283719788,1.13195999999996,5.3177628717915,1,82
1,1,1,1.04308499999996,0.251759320061855,1.19458499999996,4.78598658461235,1,83
1,2,2,0.661920000000042,1,0.825540000000037,4.78598658461235,1,84
1,2,2,0.756085000000079,0.733955286925653,1.98253999999992,4.30738792615112,1,85
1,1,1,0.535914999999921,0.693766930357064,0.914085000000079,4.30738792615112,1,86
1,2,2,0.761755000000005,1,0.947620000000112,3.87664913353601,1,87
1,1,1,0.585879999999888,0.421809686243459,0.885875000000233,3.87664913353601,1,88
1,1,1,0.735290000000037,0.25380625135002,0.819125,3.48898422018241,1,89
1,2,2,0.518414999999804,1,1.06716999999993,3.48898422018241,1,90
1,1,1,1.00183500000008,0.573014113255852,2.09254000000004,3.14008579816417,1,91
1,2,2,1.51920500000007,0.085819541686688,1.05679000000004,3.14008579816417,1,92
1,2,2,0.819915000000037,1,0.676295000000042,2.82607721834775,1,93
1,1,1,0.857875000000233,0.517041867362055,1.64520499999996,2.82607721834775,1,94
1,2,2,0.593545000000158,0.863048874441194,1.17495999999985,2.54346949651297,1,95
1,1,1,0.945670000000042,0.485980742769339,1.05670499999996,2.54346949651297,1,96
2,1,1,0.900519999995595,0.733400935407053,2.70489999998244,60,1,1
2,2,2,0.7561000000278,0.781962718831918,1.07511499998509,60,1,2
2,2,2,1.88542499998584,0,1.37874000001466,54,1,3
2,1,1,1.33273499997449,0.685986796557002,1.70325500000035,54,1,4
2,1,1,1.9335049999936,0.44584359554612,1.67223500000546,48.6,1,5
2,2,2,1.5922750000027,0.79268396778301,1.26541999998153,48.6,1,6
2,2,2,1.47651999999653,0.822002792471861,1.53895000001648,43.74,1,7
2,1,1,1.71617500000866,0.611846435284825,1.23746500001289,43.74,1,8
2,2,2,1.68833499998436,0.570391213031623,1.29889000000549,39.366,1,9
2,1,1,1.36472499999218,0.768453614765963,1.183474999998,39.366,1,10
2,1,1,1.39975000001141,0.544756305348578,1.58139499998651,35.4294,1,11
2,2,2,1.30218500000774,0.613958954250057,1.02859500001068,35.4294,1,12
2,1,1,1.56653000001097,0.404962569395598,0.972470000007888,31.88646,1,13
2,2,1,1.79738499998348,0.714393687184945,1.05143000002136,31.88646,0,14
2,1,1,1.20098500000313,0.553882319949353,1.64775999999256,35.4294,1,15
2,2,2,1.02037000001292,0.644644138023458,1.42868499999167,35.4294,1,16
2,1,1,2.38311500000418,0.458250939710871,2.67598999998881,31.88646,1,17
2,2,2,1.07324999998673,0.326579904737037,2.27623500002665,31.88646,1,18
2,1,1,0.813704999978654,0.431157091421196,1.00112000000081,28.697814,1,19
2,2,2,0.938064999994822,0.278801829042496,0.863270000001648,28.697814,1,20
2,2,2,1.10643500002334,0.340279752505161,1.88050499997917,25.8280326,1,21
2,1,1,1.16362999999546,0.30182440803821,1.86733999999706,25.8280326,1,22
2,2,2,0.847070000017993,0.360544217687074,1.70583500000066,23.24522934,1,23
2,1,1,0.833434999978635,0.192138020469255,1.71656500000972,23.24522934,1,24
2,1,1,1.70614499997464,0.155843515647621,1.80888000002597,20.920706406,1,25
2,2,2,1.4845750000095,0,2.38164499998675,20.920706406,1,26
2,2,2,1.24660000001313,0,1.07673000000068,18.8286357654,1,27
2,1,1,1.51043500000378,0.040311728133826,1.33062999998219,18.8286357654,1,28
2,2,2,1.56416499998886,0.061337837004131,0.967585000005784,16.94577218886,1,29
2,1,1,1.12085499998648,0.030578895020162,3.79217500000959,16.94577218886,1,30
2,1,2,1.69728500000201,0,1.1002500000177,15.251194969974,0,31
2,2,1,1.72477999998955,0,1.18398500001058,16.94577218886,0,32
2,1,1,1.17355999999563,0.170068027210884,2.53808500000741,18.8286357654,1,33
2,2,1,1.13738999998895,0,1.21993500000099,18.8286357654,0,34
2,2,2,0.776225000008708,0,1.10965499997837,20.920706406,1,35
2,1,1,1.63641999999527,0.185440231619419,2.00177999999141,20.920706406,1,36
2,2,1,1.73311500001,0.063030557148592,1.53894999998738,18.8286357654,0,37
2,1,2,1.47493999998551,0,0.857150000025285,20.920706406,0,38
2,1,1,1.21507500001462,0.240275587491938,0.966474999993807,23.24522934,1,39
2,2,1,1.80860000001849,0.132295896818458,1.09014499999466,23.24522934,0,40
2,1,2,1.17109499999788,0.036739847380191,1.28561000002082,25.8280326,0,41
2,2,1,1.104090000008,0.287653532851611,0.738469999982044,28.697814,0,42
2,1,1,1.51905000000261,0.024467671785698,1.68348000000697,31.88646,1,43
2,2,1,1.46355999997468,0.078727856801392,1.65440500000841,31.88646,0,44
2,1,1,0.935499999992317,0.28706191317891,0.973440000001574,35.4294,1,45
2,2,2,1.02154499999597,0.050632144943236,1.21017999999458,35.4294,1,46
2,2,1,0.989555000007385,0.040311728133826,0.902639999985695,31.88646,0,47
2,1,1,1.43153000000166,0.102889685281475,1.24473499998567,35.4294,1,48
2,2,1,2.48853500001132,0,2.04084000000148,35.4294,0,49
2,1,1,1.05044500000076,0,1.05588999998872,39.366,1,50
2,1,1,1.42430499999318,0.050751693479696,2.06450500001665,39.366,1,51
2,2,1,1.53629499999806,0.115287972258643,1.52181000000564,35.4294,0,52
2,1,1,1.21671499998774,0.026118943515295,1.1218350000272,39.366,1,53
2,2,1,0.820565000001807,0.01595397999903,1.52899999998044,39.366,0,54
2,1,1,0.981159999995725,0.054890365357124,0.887849999999162,43.74,1,55
2,2,1,1.04869500000495,0.069012401393162,0.972179999982473,43.74,0,56
2,1,1,0.748294999997597,0,1.41859499999555,48.6,1,57
2,2,1,0.866979999991599,0.003677953935632,1.43205999999191,48.6,0,58
2,1,1,0.839435000001686,0.029239600553381,1.35921500000404,54,1,59
2,2,1,1.11817000000156,0.039679018571411,1.27416000000085,54,0,60
2,1,1,0.95763000001898,0.018841691483057,1.2485549999983,60,1,61
2,2,1,1.07394500001101,0.0696666578478,0.86316499998793,60,0,62
2,2,1,0.858140000025742,0.060997606309818,1.34858999997959,66.6666666666667,0,63
2,1,1,0.864990000001853,0.057216886664663,1.04416000001947,74.0740740740741,1,64
2,2,1,1.05017500001122,0,2.17052499999409,74.0740740740741,0,65
2,1,1,0.79316000000108,0.27566226980332,1.493455000018,82.3045267489712,1,66
2,1,1,0.685975000000326,0.553716251668408,1.43674000000465,82.3045267489712,1,67
2,2,2,1.47475500000292,0,0.873670000000857,74.0740740740741,1,68
2,1,1,0.780315000010887,0.183744323378443,1.40966999999364,74.0740740740741,1,69
2,2,1,1.53972499998054,0.022799940978039,0.949294999998529,66.6666666666667,0,70
2,2,2,1.06557499998598,0.193722908213686,1.23354500002461,74.0740740740741,1,71
2,1,1,0.682284999988042,0.003677953935632,0.88479000001098,74.0740740740741,1,72
2,2,2,0.784870000003139,0.002568423989332,0.863974999985658,66.6666666666667,1,73
2,1,1,0.764605000003939,0.56492013764234,1.21719499997562,66.6666666666667,1,74
2,2,2,0.846489999996265,0.161369792857114,1.49095499998657,60,1,75
2,1,1,0.774085000011837,0.268918257154328,1.15848499999265,60,1,76
2,2,2,0.547835000004852,0.093286462009656,0.867440000001807,54,1,77
2,1,1,0.668189999996684,0.185510704384957,1.08134499998414,54,1,78
2,1,1,0.792450000008103,0.089831719407987,1.53221499998472,48.6,1,79
2,2,2,2.06309500001953,0.284362407295444,1.43387499998789,48.6,1,80
2,2,1,1.97519999998622,0.131369311166617,2.68581500000437,43.74,0,81
2,1,1,0.774984999996377,0.181469318124087,1.2269999999844,48.6,1,82
2,2,2,0.632545000000391,0.27891156462585,1.32065000000875,48.6,1,83
2,1,1,1.29620499999146,0.213556106052509,1.21812500001397,43.74,1,84
2,2,2,1.13666000001831,0.590859768676546,0.888079999975162,43.74,1,85
2,1,1,1.37996500000008,0.021678729557113,1.137630000012,39.366,1,86
2,2,2,1.23050499998499,0.313736712776866,1.26798000000417,39.366,1,87
2,1,1,1.15731500001857,0.073229662234946,0.891964999987977,35.4294,1,88
2,1,1,1.02572499998496,0.203547675006095,1.23846000002231,35.4294,1,89
2,2,2,1.11663000000408,0.295324705175181,0.938865000003716,31.88646,1,90
2,1,1,1.28906500001904,0.000646415712442,1.49280499998713,31.88646,1,91
2,2,1,1.36329500001739,0,0.9761549999821,28.697814,0,92
2,2,2,0.89917499999865,0.152493787021665,1.11705500000971,31.88646,1,93
2,1,1,0.941295000026003,0.166573208586235,1.24232999997912,31.88646,1,94
2,1,2,1.29079500000807,0,0.858179999981076,28.697814,0,95
2,2,2,1.14820500000496,0,1.1666200000036,31.88646,1,96
3,1,2,1.65138500000013,0.30182440803821,1.63601500000004,48.6,0,1
3,2,2,1.34953500000006,0.650761256222578,1.23773000000007,54,1,2
3,2,2,0.849195000000007,1,1.33904500000019,54,1,3
3,1,1,1.37356499999989,0.644497213400287,1.40794500000015,48.6,1,4
3,1,1,0.738625000000175,0.972789115646258,0.968854999999865,48.6,1,5
3,2,2,0.845134999999806,1,1.31105000000002,43.74,1,6
3,2,2,0.819735000000044,0.999351938057978,1.27603999999995,43.74,1,7
3,1,1,0.90386999999985,1,0.824290000000037,39.366,1,8
3,2,1,2.04988499999989,0.90866399361558,1.56612500000006,39.366,0,9
3,1,1,1.07815500000014,1,1.44190499999991,43.74,1,10
3,2,2,0.593260000000126,0.967675354919354,1.06819500000004,43.74,1,11
3,1,1,1.36097500000006,0.720445419286879,1.07288999999993,39.366,1,12
3,2,1,3.26984999999989,0.688356320767669,1.47680500000002,39.366,0,13
3,1,1,2.48392499999999,0.368072047091847,1.12998499999981,43.74,1,14
3,2,1,1.37590999999997,0.754122326809613,1.19090499999997,43.74,0,15
3,1,1,1.31313,0.983399026677594,0.921589999999909,48.6,1,16
3,1,2,1.87713499999995,0.961721274263478,1.03464000000007,48.6,0,17
3,2,2,1.51527499999997,1,1.03306,54,1,18
3,1,1,1.01492499999993,1,1.2199800000001,54,1,19
3,2,2,0.666175000000047,1,2.39098500000004,48.6,1,20
3,2,2,0.676794999999867,0.977136047790066,1.09749000000011,48.6,1,21
3,1,2,2.39541000000009,0.4741312839931,0.821009999999893,43.74,0,22
3,2,1,1.83748500000004,0,0.790659999999916,48.6,0,23
3,1,1,1.33076499999996,1,1.16325000000006,54,1,24
3,2,2,1.07727500000008,0.536904570434601,1.041375,54,1,25
3,1,1,1.00430499999993,0.982474138933131,1.26169499999989,48.6,1,26
3,1,1,1.22821500000008,1,0.828299999999872,48.6,1,27
3,2,2,0.735674999999872,1,0.928034999999916,43.74,1,28
3,2,2,0.62990000000014,0.958637640825586,1.70983499999985,43.74,1,29
3,1,1,0.688375000000175,1,1.05638999999996,39.366,1,30
3,2,2,0.733240000000049,0.74645392352985,0.892054999999993,39.366,1,31
3,1,1,1.486375,0.424711615880711,0.699574999999837,35.4294,1,32
3,2,2,1.211685,0.487414139967372,1.83015500000009,35.4294,1,33
3,1,1,0.615864999999991,1,0.634749999999942,31.88646,1,34
3,2,2,1.15359000000008,0.967175190129935,0.922949999999895,31.88646,1,35
3,1,1,1.75928499999986,1,0.640895000000019,28.697814,1,36
3,1,2,1.17916500000004,0.301407941966141,0.912925000000047,28.697814,0,37
3,2,2,1.08175499999989,1,0.696079999999958,31.88646,1,38
3,1,1,1.899995,0.217687074829931,1.14265999999997,31.88646,1,39
3,2,2,0.758970000000088,1,1.12733000000002,28.697814,1,40
3,1,2,1.11632499999995,1,0.742589999999851,28.697814,0,41
3,2,2,0.606585000000021,1,1.01848500000004,31.88646,1,42
3,2,2,1.06592999999999,1,0.715874999999884,31.88646,1,43
3,1,2,1.22339499999996,0.764739051981383,2.65590499999985,28.697814,0,44
3,1,1,1.16077999999991,1,0.819574999999953,31.88646,1,45
3,2,2,0.967724999999977,0.851108639404081,0.878159999999974,31.88646,1,46
3,2,2,1.22646499999997,1,0.785065000000061,28.697814,1,47
3,1,1,0.637079999999958,0.997283782237578,0.919255000000063,28.697814,1,48
3,2,2,0.984234999999928,1,0.782195000000007,25.8280326,1,49
3,1,1,1.08148000000004,1,0.928334999999846,25.8280326,1,50
3,1,2,1.13142500000005,0.95212740547689,1.30993000000011,23.24522934,0,51
3,2,2,0.659419999999925,1,1.10321500000008,25.8280326,1,52
3,2,2,1.32349499999988,1,0.872620000000112,25.8280326,1,53
3,1,1,0.572235000000102,1,0.745189999999886,23.24522934,1,54
3,1,2,1.4129800000001,0.449604799178313,0.665009999999951,23.24522934,0,55
3,2,1,1.3523949999999,0.985841188897492,0.753595000000147,25.8280326,0,56
3,1,2,0.917565000000002,0.974716271480319,0.682575000000012,28.697814,0,57
3,2,1,1.52678500000003,1,1.11131,31.88646,0,58
3,2,2,0.663395000000019,1,1.065065,35.4294,1,59
3,1,1,1.41180500000017,0.579961984170856,1.14316999999987,35.4294,1,60
3,1,2,1.08645500000013,1,0.679844999999856,31.88646,0,61
3,2,2,0.705659999999858,1,0.909299999999988,35.4294,1,62
3,2,1,1.60250499999989,1,1.49929999999993,35.4294,0,63
3,1,1,0.734184999999998,1,0.737695000000065,39.366,1,64
3,1,2,1.52640500000009,1,0.799275000000081,39.366,0,65
3,2,2,0.617030000000144,1,0.878149999999965,43.74,1,66
3,2,2,0.565815000000119,1,0.88447499999986,43.74,1,67
3,1,1,1.24696500000003,1,0.862980000000098,39.366,1,68
3,1,1,1.46149000000011,1,0.81239499999996,39.366,1,69
3,2,2,0.556315000000061,0.981075086776682,0.876974999999919,35.4294,1,70
3,1,2,0.698144999999844,1,0.915909999999916,35.4294,0,71
3,2,2,0.726370000000112,1,0.757839999999967,39.366,1,72
3,1,1,0.70239000000013,1,1.47132500000001,39.366,1,73
3,2,2,0.759514999999956,1,0.898469999999856,35.4294,1,74
3,1,1,1.02922000000009,1,1.18330999999994,35.4294,1,75
3,2,2,0.547805000000168,1,0.92964499999996,31.88646,1,76
3,2,2,0.566654999999853,1,0.601885000000009,31.88646,1,77
3,1,1,1.85716499999986,0.511336885995717,0.816215000000084,28.697814,1,78
3,1,1,1.58461999999988,0.711581957448031,0.683145000000193,28.697814,1,79
3,2,2,0.670950000000128,1,0.762304999999993,25.8280326,1,80
3,1,1,1.19870499999996,0.346040370308325,0.835340000000084,25.8280326,1,81
3,2,2,0.710154999999912,1,0.640145000000135,23.24522934,1,82
3,1,1,1.58203499999992,0.791570331085321,0.752654999999912,23.24522934,1,83
3,2,2,0.648809999999939,0.943301189606479,0.769565000000061,20.920706406,1,84
3,2,2,0.808139999999781,1,0.766660000000033,20.920706406,1,85
3,1,1,0.772279999999912,1,0.945875000000116,18.8286357654,1,86
3,1,2,1.28425000000012,0.612735025096108,0.620404999999912,18.8286357654,0,87
3,2,1,1.20184500000009,0.862588716129238,0.584719999999739,20.920706406,0,88
3,1,1,1.178255,1,1.05717499999993,23.24522934,1,89
3,2,2,0.620255000000005,1,0.720265000000014,23.24522934,1,90
3,1,1,1.00311499999999,0.299790434965916,0.847609999999986,20.920706406,1,91
3,2,1,1.10568499999994,0.050632144943236,1.14265000000002,20.920706406,0,92
3,1,2,1.47217500000005,0.866080655776812,0.583405000000144,23.24522934,0,93
3,2,2,0.63376500000013,1,0.700839999999967,25.8280326,1,94
3,1,1,1.18603000000014,1,0.555844999999856,25.8280326,1,95
3,2,2,0.50834999999986,1,0.699819999999949,23.24522934,1,96
4,1,1,1.45540499999974,1,1.96296500000061,48.6,1,1
4,2,2,0.901969999999914,1,1.58845000000019,48.6,1,2
4,1,1,1.79965000000084,1,1.4740749999992,43.74,1,3
4,2,2,1.4821949999996,1,1.61707500000013,43.74,1,4
4,2,2,0.964984999999637,1,2.49450999999954,39.366,1,5
4,1,1,1.85370000000059,1,1.31607499999972,39.366,1,6
4,2,2,1.00046999999997,1,1.39336999999976,35.4294,1,7
4,1,2,1.00645000000077,1,1.37180999999959,35.4294,0,8
4,2,2,0.929204999999434,1,1.51132500000036,39.366,1,9
4,1,1,0.749300000000396,1,1.33248000000004,39.366,1,10
4,2,2,0.922800000000279,1,1.28036499999958,35.4294,1,11
4,1,1,2.30699499999994,1,1.56797499999992,35.4294,1,12
4,2,2,0.806714999999676,1,1.81450000000041,31.88646,1,13
4,1,2,1.04122000000003,1,1.32486000000063,31.88646,0,14
4,1,2,0.900569999999774,1,1.11937500000023,35.4294,0,15
4,2,2,1.07901000000042,1,3.14947500000015,39.366,1,16
4,2,2,0.897009999999718,1,1.93772000000079,39.366,1,17
4,1,2,0.97741500000027,1,1.61545000000024,35.4294,0,18
4,1,1,1.03367500000063,1,1.69438999999955,39.366,1,19
4,2,2,0.850795000000275,1,1.36227999999945,39.366,1,20
4,2,1,1.57025499999966,1,1.38473500000045,35.4294,0,21
4,1,2,0.772299999999581,1,1.3886050000001,39.366,0,22
4,1,2,1.12793500000041,1,1.31026000000024,43.74,0,23
4,2,2,0.891050000000163,1,1.59414000000013,48.6,1,24
4,1,2,1.34084499999974,1,1.25839000000001,48.6,0,25
4,2,2,0.927560000000056,1,1.46083999999973,54,1,26
4,1,1,0.948409999999916,1,2.56255499999947,54,1,27
4,2,2,0.815819999999832,1,1.61045999999985,48.6,1,28
4,1,1,1.06174000000011,1,1.7914099999998,48.6,1,29
4,2,2,0.887160000000265,1,1.302745,43.74,1,30
4,2,1,1.60961500000034,1,1.45607500000007,43.74,0,31
4,1,2,0.990109999999753,1,1.41524000000022,48.6,0,32
4,2,2,1.01371500000008,1,1.43873500000057,54,1,33
4,1,1,1.12001499999955,1,1.47099500000058,54,1,34
4,2,2,0.785459999999963,1,1.29728500000061,48.6,1,35
4,1,1,0.840129999999539,1,1.30121500000043,48.6,1,36
4,2,2,0.782035000000149,1,1.80180999999994,43.74,1,37
4,1,1,0.830184999999823,1,1.46085500000021,43.74,1,38
4,2,2,0.803469999999856,1,1.15026000000036,39.366,1,39
4,1,1,0.713544999999576,1,1.4810500000004,39.366,1,40
4,2,1,1.5310899999995,1,1.59004499999993,35.4294,0,41
4,1,1,0.786705000000424,1,1.20009000000032,39.366,1,42
4,2,2,0.803050000000396,1,1.41828999999957,39.366,1,43
4,1,1,0.836319999999367,1,1.65240500000073,35.4294,1,44
4,1,1,0.899714999999618,1,1.44996500000067,35.4294,1,45
4,2,1,1.21417999999993,1,1.41593999999983,31.88646,0,46
4,1,1,0.768739999999525,1,1.42837500000035,35.4294,1,47
4,2,2,1.62346499999973,1,1.26953500000038,35.4294,1,48
4,1,1,0.969384999999427,1,1.43505500000075,31.88646,1,49
4,2,1,1.51069000000006,1,1.51189000000071,31.88646,0,50
4,2,2,0.746924999999464,1,1.73460000000068,35.4294,1,51
4,1,1,1.43323500000034,1,1.32354500000027,35.4294,1,52
4,1,2,1.46601999999979,1,1.44160000000021,31.88646,0,53
4,2,2,1.90979999999946,1,1.23370000000065,35.4294,1,54
4,2,1,1.17042500000016,1,1.31963,35.4294,0,55
4,1,1,0.905850000000093,1,1.81453999999934,39.366,1,56
4,2,1,1.10396500000032,1,1.59032500000007,39.366,0,57
4,1,1,1.16987499999965,1,1.21976499999978,43.74,1,58
4,1,1,0.732944999999716,1,1.81900000000047,43.74,1,59
4,2,2,1.14951000000024,1,1.51051999999979,39.366,1,60
4,2,2,0.943615000000107,1,1.67873500000045,39.366,1,61
4,1,1,1.22197999999928,1,1.42281499999994,35.4294,1,62
4,1,1,0.804430000000051,1,1.35203499999992,35.4294,1,63
4,2,1,1.0545549999997,1,1.45632999999996,31.88646,0,64
4,1,1,0.8494650000002,1,1.30540999999992,35.4294,1,65
4,2,1,1.6269149999998,1,1.20547500000068,35.4294,0,66
4,2,2,0.815295000000275,1,1.22871000000031,39.366,1,67
4,1,1,0.69423499999987,1,1.21422499999974,39.366,1,68
4,2,2,0.71033499999973,1,1.49436500000046,35.4294,1,69
4,1,1,0.606115000000456,1,1.23598999999929,35.4294,1,70
4,2,2,0.927945000000298,1,1.46882999999984,31.88646,1,71
4,1,1,0.714899999999907,1,1.85497000000044,31.88646,1,72
4,1,1,1.47158500000031,1,1.2485299999998,28.697814,1,73
4,2,1,1.03928000000003,1,1.41512499999953,28.697814,0,74
4,2,2,0.90093499999959,1,1.18287500000047,31.88646,1,75
4,1,1,1.01454000000015,1,1.47586500000034,31.88646,1,76
4,2,2,1.1845149999999,1,1.28682500000019,28.697814,1,77
4,1,1,1.72671499999985,1,1.61473000000021,28.697814,1,78
4,1,1,1.0324650000002,1,1.17689499999955,25.8280326,1,79
4,2,2,1.19051500000025,1,1.44972999999928,25.8280326,1,80
4,1,1,1.51375,1,1.42670000000007,23.24522934,1,81
4,2,1,1.02286999999976,1,1.36897500000033,23.24522934,0,82
4,2,2,0.824665000000037,1,1.26577000000002,25.8280326,1,83
4,1,1,1.56602500000002,1,1.45090999999957,25.8280326,1,84
4,2,2,1.62104499999981,1,1.74792999999959,23.24522934,1,85
4,1,1,1.35762500000058,1,1.27809999999951,23.24522934,1,86
4,1,1,0.848925000000163,1,1.92088499999954,20.920706406,1,87
4,2,2,1.56048999999987,1,1.1899800000001,20.920706406,1,88
4,1,1,0.868704999999842,1,2.63801499999955,18.8286357654,1,89
4,2,2,0.990149999999558,1,1.15968000000075,18.8286357654,1,90
4,2,2,0.993704999999842,1,1.26645499999996,16.94577218886,1,91
4,1,2,0.936730000000331,1,1.34812499999953,16.94577218886,0,92
4,2,2,0.921094999999623,1,1.16811500000046,18.8286357654,1,93
4,1,2,0.832674999999697,1,2.58778500000061,18.8286357654,0,94
4,2,2,1.16025499999977,1,1.22939500000037,20.920706406,1,95
4,1,1,1.16455500000028,1,1.37413500000001,20.920706406,1,96
5,2,2,0.936,0,1.33,48.6,1,1
5,1,1,0.835,0.864313225759006,0.939,48.6,1,2
5,1,1,0.819,0.658738978805628,0.951,43.74,1,3
5,2,2,1.101,0,1.777,43.74,1,4
5,2,2,1.451,0.034013605442176,1.124,39.366,1,5
5,1,1,0.937,0.26057346947436,1.25,39.366,1,6
5,2,2,1.568,0,1.06,35.4294,1,7
5,1,1,0.85,0.690885641461857,1.102,35.4294,1,8
5,2,2,1.232,0,1.017,31.88646,1,9
5,1,1,0.8,0.597983857962556,1.186,31.88646,1,10
5,1,1,0.785,0.54404928225112,1.048,28.697814,1,11
5,2,1,0.797,0.684310104470225,0.993,28.697814,0,12
5,1,1,2.292,0.58693882623892,1.584,31.88646,1,13
5,2,1,0.823,0.438367601722281,1.103,31.88646,0,14
5,1,1,0.763,0.886716209277873,1.159,35.4294,1,15
5,2,1,1.785,0,1.519,35.4294,0,16
5,2,2,0.776,0.755205106433156,1.591,39.366,1,17
5,1,1,0.769,0.967321094803903,1.1,39.366,1,18
5,1,1,0.777,0.981898269389423,1.076,35.4294,1,19
5,2,1,1.005,0.175783358602186,1.13,35.4294,0,20
5,1,1,0.775,0.96923692001849,0.827,39.366,1,21
5,2,1,1.667,0.649798533896028,2.241,39.366,0,22
5,2,2,1.05,0,1.357,43.74,1,23
5,1,1,1.301,0.152493787021665,2.235,43.74,1,24
5,1,1,0.941,0.984220511957883,1.05,39.366,1,25
5,2,1,0.967,0,1.107,39.366,0,26
5,1,1,0.912,0.605813142432522,0.967,43.74,1,27
5,2,2,0.801,0,1.243,43.74,1,28
5,1,1,0.769,0.767640760767557,1.786,39.366,1,29
5,2,1,1.37,0,1.102,39.366,0,30
5,2,1,0.921,0.055474554246438,0.8,43.74,0,31
5,1,1,0.812,1,1.01,48.6,1,32
5,2,2,1.697,0,0.941,48.6,1,33
5,1,1,0.79,1,0.725,43.74,1,34
5,2,1,1.144,0.042196877669869,0.851,43.74,0,35
5,1,1,0.777,1,0.988,48.6,1,36
5,1,1,1.096,0.987991658087278,0.697,48.6,1,37
5,2,1,0.769,1,0.793,43.74,0,38
5,2,2,0.93,0,1.251,48.6,1,39
5,1,1,0.729,1,0.757,48.6,1,40
5,1,1,0.845,0.998744045868042,0.725,43.74,1,41
5,2,2,1.022,0.030578895020162,0.841,43.74,1,42
5,2,1,1.123,0,0.849,39.366,0,43
5,1,1,0.752,0.796337282062667,0.642,43.74,1,44
5,2,1,0.804,0.967571172499895,0.928,43.74,0,45
5,1,1,0.734,1,1.005,48.6,1,46
5,2,2,1.04,0,0.933,48.6,1,47
5,1,1,0.696,1,0.747,43.74,1,48
5,1,1,0.833,1,1.195,43.74,1,49
5,2,1,0.952,1,1.418,39.366,0,50
5,1,1,0.885,1,1.043,43.74,1,51
5,2,1,0.778,0.940805864040265,1.496,43.74,0,52
5,2,2,0.734,1,0.985,48.6,1,53
5,1,1,0.874,0.602747156801336,0.783,48.6,1,54
5,1,1,0.728,1,0.718,43.74,1,55
5,2,2,0.884,0,0.801,43.74,1,56
5,2,2,0.746,0.863669754458867,1.207,39.366,1,57
5,1,1,0.69,1,0.661,39.366,1,58
5,1,1,0.734,0.931735959441747,0.746,35.4294,1,59
5,2,2,0.984,0.010015000369008,1.005,35.4294,1,60
5,2,1,0.823,1,0.696,31.88646,0,61
5,1,1,0.859,0.547845209433921,0.853,35.4294,1,62
5,1,1,0.886,0.172278498555114,0.751,35.4294,1,63
5,2,2,1.152,0,1.001,31.88646,1,64
5,2,2,0.929,0,1.072,31.88646,1,65
5,1,1,1.584,0,1.279,28.697814,1,66
5,1,1,0.702,0.989198224355809,0.79,28.697814,1,67
5,2,1,0.843,1,0.749,25.8280326,0,68
5,2,1,0.901,0.094459367925338,0.901,28.697814,0,69
5,1,1,0.753,1,0.688,31.88646,1,70
5,1,1,0.684,0.607603557579407,1.068,31.88646,1,71
5,2,1,0.803,0.715068209934709,0.818,28.697814,0,72
5,1,1,0.721,0.479917018512153,1.169,31.88646,1,73
5,2,2,1.225,0.014195869124016,0.849,31.88646,1,74
5,1,1,0.704,0.76499395893623,0.734,28.697814,1,75
5,2,2,0.894,0.799853725241905,0.799,28.697814,1,76
5,1,1,0.684,0.993523111040092,0.795,25.8280326,1,77
5,2,2,1.102,0.040185361184676,0.76,25.8280326,1,78
5,2,1,1.069,0,1.15,23.24522934,0,79
5,1,1,0.702,1,0.941,25.8280326,1,80
5,1,1,0.651,0.966174183839627,0.662,25.8280326,1,81
5,2,1,0.717,0.986578953881911,0.626,23.24522934,0,82
5,2,1,1.238,0,0.885,25.8280326,0,83
5,1,1,0.673,0.979076360712288,0.726,28.697814,1,84
5,1,1,0.825,0.490124996704931,1.031,28.697814,1,85
5,2,2,0.711,0.994845844469076,0.953,25.8280326,1,86
5,1,1,0.718,0.796016952331217,0.781,25.8280326,1,87
5,2,1,0.687,0.630172665400954,0.79,23.24522934,0,88
5,1,1,0.683,0.970068858839068,0.693,25.8280326,1,89
5,2,2,0.86,0,0.799,25.8280326,1,90
5,1,1,0.673,0.728953433665349,0.782,23.24522934,1,91
5,2,2,0.99,0.017259895182854,0.874,23.24522934,1,92
5,1,1,0.733,0.846371719652508,0.643,20.920706406,1,93
5,2,2,0.74,0.079977406179036,0.735,20.920706406,1,94
5,2,1,0.834,0.895533164794132,0.66,18.8286357654,0,95
5,1,1,0.735,0.362791453990425,0.814,20.920706406,1,96
6,2,2,2.61972000000015,0.503651938531522,2.09319000000003,60,1,1
6,1,1,2.14519500000007,0.84306815016406,3.6519250000001,60,1,2
6,1,1,2.42822000000023,0.286145987086464,1.92505500000017,54,1,3
6,2,1,1.97962499999994,0.289316467327036,1.71835999999984,54,0,4
6,1,1,2.31375500000012,0.578680388965864,2.70318499999985,60,1,5
6,2,2,1.22361499999987,0.496924218751101,1.72418999999992,60,1,6
6,2,2,2.90014000000019,0.205744978920243,2.49290500000009,54,1,7
6,1,1,1.13753500000029,0.516550792710347,2.10831000000008,54,1,8
6,2,1,2.76269499999992,0.441266496236953,2.02776499999981,48.6,0,9
6,1,1,1.12818500000003,0.642407917048652,2.23732999999993,54,1,10
6,2,1,2.82922000000006,0.227563357552706,2.78943000000028,54,0,11
6,1,1,3.23442500000008,0.225307731366933,2.12894499999995,60,1,12
6,1,2,1.16417000000004,0.208258174165005,2.47689999999967,60,0,13
6,2,1,1.85690500000009,0.483178026537876,1.95274500000005,66.6666666666667,0,14
6,1,2,2.66877999999997,0.167394673496364,1.700875,74.0740740740741,0,15
6,2,2,1.02255500000005,0.580729851731958,2.23826000000007,82.3045267489712,1,16
6,1,1,1.41523499999993,0.66549391986465,2.0792099999999,82.3045267489712,1,17
6,2,2,1.03710500000033,0.374194412671016,2.45253000000003,74.0740740740741,1,18
6,2,2,1.85221999999974,0.299319727891156,1.88492500000028,74.0740740740741,1,19
6,1,1,2.29175000000035,0.557030130481609,2.05688999999984,66.6666666666667,1,20
6,2,1,2.56199000000017,0.397477644688723,1.89164500000014,66.6666666666667,0,21
6,1,2,2.04439999999973,0.308076555623851,2.94201000000024,74.0740740740741,0,22
6,2,2,1.07627499999991,0.831096776594888,1.69299499999988,82.3045267489712,1,23
6,1,1,1.0644499999999,0.707482993197278,1.34906,82.3045267489712,1,24
6,2,1,2.045435,0.487450850878829,2.67702000000008,74.0740740740741,0,25
6,1,1,1.75943499999994,0.559505278864778,1.94769,82.3045267489712,1,26
6,1,1,2.98093999999989,0.502684887482033,1.58046500000003,82.3045267489712,1,27
6,2,2,0.811379999999655,0.694181682463783,1.37301500000013,74.0740740740741,1,28
6,2,2,0.830635000000242,0.826906479225854,1.40238,74.0740740740741,1,29
6,1,1,0.886764999999723,0.739400970714202,1.89325499999995,66.6666666666667,1,30
6,2,2,0.79664999999979,0.738377545184808,2.92490500000032,66.6666666666667,1,31
6,1,1,0.784940000000002,0.830597745629029,1.34892499999976,60,1,32
6,2,2,1.92043999999989,0.632324790290462,3.62199499999994,60,1,33
6,1,1,0.929655000000377,0.781937699018809,2.01030499999976,54,1,34
6,1,1,0.823024999999674,0.790703250776417,2.05301499999996,54,1,35
6,2,2,0.814800000000105,0.50225462169528,1.46906500000024,48.6,1,36
6,1,1,0.867709999999963,0.890619266113357,1.2905799999999,48.6,1,37
6,2,2,0.840630000000121,0.723255090225944,1.5959800000001,43.74,1,38
6,1,1,0.972725000000093,0.793277365661147,1.61253000000032,43.74,1,39
6,2,2,0.883370000000054,0.741522762564299,1.56300000000006,39.366,1,40
6,2,1,1.40592499999999,0.47574178252023,1.84337999999983,39.366,0,41
6,1,1,0.773959999999963,0.939310183171248,1.43627500000002,43.74,1,42
6,2,1,0.979984999999928,0.644497213400287,1.59362999999983,43.74,0,43
6,1,1,3.20706500000006,0.431318308734944,1.1809800000001,48.6,1,44
6,2,2,0.710689999999886,0.67417769724247,1.35047000000032,48.6,1,45
6,1,1,0.9790349999998,0.664606078078048,2.01617500000022,43.74,1,46
6,1,1,0.886654999999795,0.624162857934324,1.30049499999994,43.74,1,47
6,2,2,0.773245000000345,0.727253167636434,1.93189999999956,39.366,1,48
6,1,2,7.56868000000034,0.544756305348578,10.4781949999997,39.366,0,49
6,2,1,2.25939000000013,0.541281528531952,1.10556000000006,43.74,0,50
6,1,1,0.820114999999991,0.734931149698227,1.5558949999999,48.6,1,51
6,2,2,0.712410000000149,0.853155082748742,1.34081999999983,48.6,1,52
6,1,1,0.927560000000056,0.789140473377042,1.37040999999992,43.74,1,53
6,2,2,0.846439999999828,0.696831244854937,1.3410950000002,43.74,1,54
6,2,1,1.11614999999991,0.575434184804778,1.52629500000004,39.366,0,55
6,1,1,1.61052500000014,0.542194096886007,1.69717500000016,43.74,1,56
6,1,1,1.86988500000013,0.608527960352874,1.66904999999993,43.74,1,57
6,2,2,0.793354999999749,0.881850353142478,1.69315500000003,39.366,1,58
6,1,1,2.0597200000002,0.541822456603327,2.23772499999998,39.366,1,59
6,2,2,2.14415000000014,0.502362215041054,1.50786499999999,35.4294,1,60
6,2,1,3.11834499999986,0.484544070757487,1.38900999999978,35.4294,0,61
6,1,1,1.99359000000008,0.432646628355356,1.39645000000019,39.366,1,62
6,1,1,1.88162999999989,0.402422433397326,1.49340500000014,39.366,1,63
6,2,2,0.775525000000023,0.681648368768744,1.1089149999998,35.4294,1,64
6,2,2,2.087505,0.410844237962575,2.12426000000001,35.4294,1,65
6,1,1,1.67626500000001,0.627263765882171,1.44383500000008,31.88646,1,66
6,1,1,0.970829999999725,0.610649782994381,1.72544500000007,31.88646,1,67
6,2,2,0.962285000000033,0.525923346026223,1.22086499999976,28.697814,1,68
6,1,1,0.912824999999953,0.7674120147974,1.53380000000005,28.697814,1,69
6,2,2,1.03710000000009,0.480214179049817,1.76310999999987,25.8280326,1,70
6,1,1,1.21523999999999,0.554612550638165,1.14314500000002,25.8280326,1,71
6,2,1,1.2423249999996,0.616766507477431,1.26679000000015,23.24522934,0,72
6,1,1,1.35888500000013,0.680806033614438,2.15724499999988,25.8280326,1,73
6,2,2,0.787414999999804,0.667352364941247,1.55808999999997,25.8280326,1,74
6,1,2,0.950145000000251,0.529649555879334,1.89761999999976,23.24522934,0,75
6,2,1,1.18876999999967,0.612826888544153,1.94863500000024,25.8280326,0,76
6,1,1,1.10625500000012,0.432204196065525,2.77379000000015,28.697814,1,77
6,2,1,1.89552000000002,0.298534100612471,1.76520499999973,28.697814,0,78
6,1,2,0.799239999999758,0.556269329288485,2.01408000000042,31.88646,0,79
6,2,2,1.46010999999999,0.2213267704578,1.86655000000016,35.4294,1,80
6,2,1,2.80637500000012,0.340327642369517,1.70800999999989,35.4294,0,81
6,1,2,0.879074999999837,0.204348303542172,1.63693499999994,39.366,0,82
6,2,2,1.61832499999995,0.619077987732961,1.5572150000002,43.74,1,83
6,1,1,2.00752000000014,0.578231292517006,1.93184499999997,43.74,1,84
6,1,1,0.899734999999986,0.668066017425066,1.4022100000002,39.366,1,85
6,2,2,0.891154999999795,0.772304811727438,1.65221999999997,39.366,1,86
6,2,1,1.45788,0.69099664436267,2.02052000000002,35.4294,0,87
6,1,1,1.01071000000008,0.606214814474327,2.33018500000029,39.366,1,88
6,2,2,0.797090000000084,0.649681760813963,2.13419500000007,39.366,1,89
6,1,1,1.86059500000009,0.506223697517092,1.56409499999974,35.4294,1,90
6,2,2,1.81266000000003,0.511619780724119,1.78882500000007,35.4294,1,91
6,1,1,1.11761000000022,0.61576064541228,1.74897999999986,31.88646,1,92
6,2,1,1.45991999999969,0.432968183777128,2.29763000000012,31.88646,0,93
6,1,2,1.41739500000002,0.313483260714242,1.81409999999998,35.4294,0,94
6,2,2,0.908075000000303,0.541653462499935,1.42812999999977,39.366,1,95
6,1,2,2.91559000000008,0.2495838122954,2.1344800000001,39.366,0,96
7,1,1,0.775154999999999,1,3.876155,60,1,1
7,2,2,0.772570000000007,0.987705165199577,2.33900500000003,54,1,2
7,2,2,0.897694999999978,0.986476515344061,1.71054500000001,54,1,3
7,1,2,3.066655,0.215046161577303,2.63602499999999,48.6,0,4
7,2,2,0.975319999999978,0.355416056523264,2.04246000000002,54,1,5
7,1,1,0.993455000000016,1,2.65565000000002,54,1,6
7,1,1,1.26979499999998,0.828384669255768,1.75966500000001,48.6,1,7
7,2,2,0.763175000000017,0.919761860667571,1.45478499999997,48.6,1,8
7,1,1,1.43096500000003,0.929904148997086,1.54388999999998,43.74,1,9
7,2,2,0.82424000000002,0.724082871063423,1.755905,43.74,1,10
7,1,1,0.775,0.959099686058045,2.34177499999999,39.366,1,11
7,2,2,0.842744999999995,0.771849595318182,2.04842499999999,39.366,1,12
7,1,1,0.804554999999993,1,2.07945499999999,35.4294,1,13
7,2,2,0.685304999999993,0.782312925170068,1.81938999999998,35.4294,1,14
7,1,1,0.874885000000009,0.526442115714222,1.70377499999999,31.88646,1,15
7,2,2,0.690639999999985,0.430067687963234,1.54677500000002,31.88646,1,16
7,2,2,0.790295000000042,0.954048673237897,2.15210499999998,28.697814,1,17
7,1,1,0.849825000000012,0.589818341106735,1.49052999999997,28.697814,1,18
7,2,2,0.848670000000042,0.374552295777045,1.43905499999999,25.8280326,1,19
7,1,2,1.04672500000003,0.18593322377128,1.53670499999996,25.8280326,0,20
7,1,1,2.04507000000001,0.100524405714262,1.39383000000002,28.697814,1,21
7,2,2,0.730064999999944,0.330848717239556,1.50444000000006,28.697814,1,22
7,1,1,1.43341999999998,0.306328544740657,1.45076000000001,25.8280326,1,23
7,2,2,0.938089999999967,0.65723656260868,1.57125000000006,25.8280326,1,24
7,2,2,0.92310500000004,0.690080428027971,1.19497999999998,23.24522934,1,25
7,1,2,0.750300000000047,0.567921419072163,1.54720999999996,23.24522934,0,26
7,1,1,0.776795000000042,0.707238059962629,1.28489999999997,25.8280326,1,27
7,2,2,0.633040000000037,0.868440050837993,1.31984499999997,25.8280326,1,28
7,2,2,0.770890000000014,0.915572807552474,1.21081999999995,23.24522934,1,29
7,1,1,0.965334999999963,0.408121271600451,1.432125,23.24522934,1,30
7,2,2,0.755880000000005,0.575820639994679,1.79431,20.920706406,1,31
7,1,1,0.70773000000004,0.761674565365695,1.261005,20.920706406,1,32
7,2,2,0.826744999999937,0.937384121974378,1.47926500000001,18.8286357654,1,33
7,1,1,0.866660000000033,0.904165392502364,1.51756,18.8286357654,1,34
7,1,1,1.20616999999998,0.548280571817075,1.39327499999997,16.94577218886,1,35
7,2,2,0.645424999999988,0.801717276610056,1.53934000000003,16.94577218886,1,36
7,2,2,0.844359999999986,0.554081549652555,1.41210000000003,15.251194969974,1,37
7,1,1,0.719690000000002,0.877097404843064,1.72045000000001,15.251194969974,1,38
7,2,2,1.44663,0.368388958586556,1.53454999999999,13.7260754729766,1,39
7,1,2,1.73789000000001,0.314293812691467,1.35217999999993,13.7260754729766,0,40
7,2,1,0.830210000000021,0.501788176352769,1.51746499999997,15.251194969974,0,41
7,1,1,0.715135000000009,0.61868310036226,1.27501999999996,16.94577218886,1,42
7,2,2,0.731539999999979,0.76657278732345,1.43548500000004,16.94577218886,1,43
7,1,1,0.720184999999939,0.899469803229715,1.34599000000005,15.251194969974,1,44
7,2,2,1.40526000000001,0.15429019956247,1.608625,15.251194969974,1,45
7,1,1,0.769100000000035,0.800148215029303,1.66302500000002,13.7260754729766,1,46
7,1,1,1.021565,0.515848622416881,1.38864000000001,13.7260754729766,1,47
7,2,2,1.065315,0.393825385668463,1.30552000000002,12.3534679256789,1,48
7,2,1,1.00473499999999,0.411846262092413,1.75015500000003,12.3534679256789,0,49
7,1,1,2.29136500000005,0.158312158111274,1.43741499999998,13.7260754729766,1,50
7,1,1,1.08840999999997,0.100999296992311,1.46415500000003,13.7260754729766,1,51
7,2,1,1.11592500000005,0.119643284103057,1.19780499999999,12.3534679256789,0,52
7,2,2,1.72182500000001,0.251700680272108,1.36438,13.7260754729766,1,53
7,1,1,0.756309999999998,0.286577254478547,1.65597000000003,13.7260754729766,1,54
7,1,2,1.152625,0.223227865226495,1.32331499999994,12.3534679256789,0,55
7,2,1,1.28001500000001,0.217943689963976,1.32523999999999,13.7260754729766,0,56
7,1,1,0.88917499999993,0.450346377050112,1.44248500000004,15.251194969974,1,57
7,2,2,1.59579500000004,0.428733375172789,1.33410000000003,15.251194969974,1,58
7,2,2,1.12457999999996,0.449604799178313,1.34921500000003,13.7260754729766,1,59
7,1,2,1.28770499999996,0.33855254457018,1.41467999999999,13.7260754729766,0,60
7,2,2,0.984674999999988,0.443638421150764,1.30290000000002,15.251194969974,1,61
7,1,1,1.54967499999999,0.198975361262615,1.78452000000002,15.251194969974,1,62
7,1,2,0.881434999999939,0.495330918795681,1.47591000000003,13.7260754729766,0,63
7,2,2,0.785714999999967,0.599169753579503,1.29272500000009,15.251194969974,1,64
7,2,1,1.59507000000007,0.130015933607232,1.78973499999999,15.251194969974,0,65
7,1,1,0.932155000000028,0.281863708266339,1.29997499999998,16.94577218886,1,66
7,1,2,0.978605000000098,0.161369792857114,1.43445999999985,16.94577218886,0,67
7,2,1,1.68384000000008,0.282190458552743,1.28447499999986,18.8286357654,0,68
7,2,2,1.73614000000001,0.118848762743827,1.45954500000004,20.920706406,1,69
7,1,2,1.33621999999997,0.089632754974626,1.23394999999995,20.920706406,0,70
7,2,2,1.32352500000002,0.213231355872174,1.32441499999992,23.24522934,1,71
7,1,1,1.24506000000006,0.303434543315829,1.32329500000004,23.24522934,1,72
7,1,2,1.36833499999985,0.214269516963447,1.23141500000015,20.920706406,0,73
7,2,1,0.733310000000056,0.254505629020686,1.17977000000002,23.24522934,0,74
7,2,2,0.915734999999986,0.764662565933112,1.49500499999989,25.8280326,1,75
7,1,1,1.38358499999985,0.717007879100333,1.57793500000006,25.8280326,1,76
7,1,1,1.53158499999996,0.47285488429849,1.49620500000007,23.24522934,1,77
7,2,2,0.762539999999921,0.990505589609785,1.57238500000013,23.24522934,1,78
7,2,1,2.46915499999991,0.103547894915303,1.14933500000008,20.920706406,0,79
7,1,2,1.41642000000004,0.141232830174436,1.313755,23.24522934,0,80
7,1,1,1.14368999999994,0.956492893769565,3.17910000000009,25.8280326,1,81
7,2,2,1.33427500000014,0.319727891156462,1.92921499999997,25.8280326,1,82
7,1,1,0.922285000000033,0.810786335176873,1.38227999999991,23.24522934,1,83
7,2,2,1.30021499999997,0.0696666578478,1.64622999999998,23.24522934,1,84
7,1,1,0.821320000000065,0.723201657841608,1.48003500000003,20.920706406,1,85
7,2,1,1.57227500000014,0.410969590123744,1.42294999999984,20.920706406,0,86
7,2,2,0.908464999999967,0.418109608927572,1.37530500000005,23.24522934,1,87
7,1,1,0.99957500000007,0.535541638309986,1.18304999999993,23.24522934,1,88
7,2,2,0.71909999999986,0.609758731207582,1.35745500000007,20.920706406,1,89
7,1,1,0.776199999999953,0.911125649241511,1.54642499999993,20.920706406,1,90
7,2,2,0.711719999999972,0.883632670282846,1.20297499999998,18.8286357654,1,91
7,1,1,0.878795000000042,0.589312873310133,1.33744500000007,18.8286357654,1,92
7,2,2,0.822765000000014,0.801717276610056,1.42698999999999,16.94577218886,1,93
7,1,1,2.02718499999994,0.636462775054132,1.36422999999998,16.94577218886,1,94
7,2,2,0.685234999999986,0.712475142046886,1.14733500000008,15.251194969974,1,95
7,1,1,0.867279999999912,0.474056274762156,1.42510999999999,15.251194969974,1,96
8,2,2,1.36299999999756,0.117874393152881,2.64600000000792,60,1,1
8,1,2,1.79200000000128,0,1.61500000000524,54,0,2
8,2,1,1.98199999998906,0,1.17200000000594,60,0,3
8,1,2,2.57499999999709,0.149738954661313,3.85700000000361,66.6666666666667,0,4
8,1,1,1.12100000001374,0.508216931374443,2.94499999999243,74.0740740740741,1,5
8,2,1,1.49700000000303,0.107460809428218,1.75899999999092,74.0740740740741,0,6
8,1,1,0.994000000006054,0.803308191445088,1.05599999999686,82.3045267489712,1,7
8,2,2,1.56100000000151,0.133386945636012,0.864000000001397,82.3045267489712,1,8
8,1,1,1.19100000000617,0.306380053907457,5.59399999999732,74.0740740740741,1,9
8,2,1,2.37099999999919,0.089632754974626,1.05399999998917,74.0740740740741,0,10
8,1,1,0.914999999993597,0.774476616655105,1.58199999999488,82.3045267489712,1,11
8,2,2,0.706999999994878,1,1.16300000000047,82.3045267489712,1,12
8,1,1,0.798999999999069,0.916031792405877,1.33000000000175,74.0740740740741,1,13
8,2,2,0.775999999998021,0.927161365625986,1.21099999999569,74.0740740740741,1,14
8,2,1,1.72000000000116,0.215627540850487,0.76600000000326,66.6666666666667,0,15
8,1,1,1.56100000000151,0.923630763863187,1.65499999999884,74.0740740740741,1,16
8,2,2,0.975999999995111,0.870405822615031,1.96099999999569,74.0740740740741,1,17
8,1,1,1.22800000000279,0.449292278021377,0.889999999999418,66.6666666666667,1,18
8,1,1,0.843999999997322,0.555441431321278,0.826000000000931,66.6666666666667,1,19
8,2,2,1.01799999999639,0.724323046529385,0.964000000007218,60,1,20
8,2,1,1.65499999999884,0.429946515238663,1.55900000000838,60,0,21
8,1,1,1.67899999998917,0.25339771099893,1.12200000000303,66.6666666666667,1,22
8,2,2,0.942999999999302,0.910247147074198,0.975999999995111,66.6666666666667,1,23
8,1,1,0.947999999989406,0.963542233410175,0.951000000000931,60,1,24
8,2,2,2.40600000000268,0.076734862470326,0.888000000006286,60,1,25
8,1,1,0.923999999999069,0.914982391543285,1.03199999999197,54,1,26
8,2,2,2.11499999999069,0.330897560448439,1.05900000000838,54,1,27
8,1,1,0.995999999999185,0.795943014563562,1.28699999999662,48.6,1,28
8,1,1,0.929999999993015,0.76295269474172,1.04099999999744,48.6,1,29
8,2,1,1.99100000000908,0,0.847999999998137,43.74,0,30
8,2,2,1.85599999999977,0,0.986000000004424,48.6,1,31
8,1,1,1.16800000000512,0.41297138002219,0.997999999992317,48.6,1,32
8,1,1,1.01600000000326,0.800785960954848,1.33699999999953,43.74,1,33
8,2,1,1.59900000000198,0.191100345813158,0.850000000005821,43.74,0,34
8,2,2,0.9490000000078,0.982782519285608,1.06699999999546,48.6,1,35
8,1,1,0.948999999993248,0.872208234997811,1.00100000000384,48.6,1,36
8,1,1,1.01699999999255,0.671312342877669,0.930000000007567,43.74,1,37
8,2,2,1.12900000000081,0.497611009302847,1.43399999999383,43.74,1,38
8,1,1,0.957999999998719,0.889476795446738,0.948999999993248,39.366,1,39
8,2,2,1.33699999999953,0.4145510319897,1.09500000000116,39.366,1,40
8,1,1,2.05299999999988,0.030578895020162,0.89100000000326,35.4294,1,41
8,2,2,2.41700000000128,0.05802480354059,1.50800000000163,35.4294,1,42
8,2,1,1.50800000000163,0.164773307608027,0.972999999998137,31.88646,0,43
8,1,1,1.16700000000128,0.806725724418925,1.19400000000314,35.4294,1,44
8,1,1,1.02700000000186,0.515462109518906,0.967999999993481,35.4294,1,45
8,2,2,0.981999999989057,0.667352364941247,2.17800000001444,31.88646,1,46
8,2,1,1.21600000000035,0.315355486232623,0.940000000002328,31.88646,0,47
8,1,1,1.19899999999325,0,1.45000000001164,35.4294,1,48
8,1,1,0.845000000001164,0.772355377351953,1.30699999998615,35.4294,1,49
8,2,1,1.59299999999348,0.08358254390603,0.752999999996973,31.88646,0,50
8,2,1,1.21600000000035,0.259654753537061,0.880999999993946,35.4294,0,51
8,1,1,1.14400000000023,0.328301893086334,1.60899999999674,39.366,1,52
8,2,1,2.40299999999115,0.000646415712442,1.48200000000361,39.366,0,53
8,1,2,2.32399999999325,0.083275784198566,1.14500000000407,43.74,0,54
8,2,1,1.91100000000733,0,1.11099999998987,48.6,0,55
8,1,1,0.979999999995925,0.900645681428316,1.29300000000512,54,1,56
8,2,1,1.82000000000698,0,0.880999999993946,54,0,57
8,1,2,1.59500000000116,0,1.38700000000244,60,0,58
8,2,1,0.968999999997322,0.817363264685381,1.18100000001141,66.6666666666667,0,59
8,1,1,0.929000000003725,0.927053238168027,1.02199999999721,74.0740740740741,1,60
8,1,2,1.6359999999986,0,0.774000000004889,74.0740740740741,0,61
8,2,2,1.42600000000675,0.104391589733146,0.709999999991851,82.3045267489712,1,62
8,2,1,0.94999999999709,0.701831560183328,1.09600000000501,82.3045267489712,0,63
8,1,1,1.23999999999069,0.871364465961245,0.934999999997672,91.4494741655236,1,64
8,2,1,1.34999999999127,0.055474554246438,1.63900000001013,91.4494741655236,0,65
8,1,1,0.986000000004424,0.989852095601817,1.11199999999371,101.610526850582,1,66
8,2,2,0.88300000000163,0.97628868745883,0.777999999991152,101.610526850582,1,67
8,1,1,0.822000000000116,0.942384770989375,1.50199999999313,91.4494741655236,1,68
8,1,1,0.819000000003143,0.928825150824339,0.943999999988591,91.4494741655236,1,69
8,2,2,0.834999999991851,0.958469576316875,0.809000000008382,82.3045267489712,1,70
8,2,2,0.861000000004424,0.987009094321178,2.49000000000524,82.3045267489712,1,71
8,1,1,0.868000000002212,0.95998123487076,0.843000000008033,74.0740740740741,1,72
8,1,1,1.6649999999936,0.314749117247405,1.12300000000687,74.0740740740741,1,73
8,2,1,1.58199999999488,0,1.02500000000873,66.6666666666667,0,74
8,1,2,2.60199999999895,0,0.955999999991036,74.0740740740741,0,75
8,2,2,0.889999999999418,0.928285244146203,1.02499999999418,82.3045267489712,1,76
8,2,1,1.26600000000326,0.288083291556785,1.43600000000151,82.3045267489712,0,77
8,1,1,1.52599999999802,0.155300775521239,2.00800000000163,91.4494741655236,1,78
8,1,1,0.914999999993597,0.901864533032238,0.945999999996275,91.4494741655236,1,79
8,2,2,1.0109999999986,0.928544433306393,1.04300000000512,82.3045267489712,1,80
8,2,2,0.755999999993946,0.89680252301141,1.15799999999581,82.3045267489712,1,81
8,1,2,1.39800000000105,0.079977406179036,0.830000000001746,74.0740740740741,0,82
8,1,1,0.827999999994063,1,0.978999999992084,82.3045267489712,1,83
8,2,2,0.798000000009779,0.939823220807225,0.985000000000582,82.3045267489712,1,84
8,1,1,0.775999999998021,0.980601483654265,1.08699999999953,74.0740740740741,1,85
8,2,2,0.714000000007218,1,0.943999999988591,74.0740740740741,1,86
8,1,1,0.828999999997905,0.946937926231335,1.06399999999849,66.6666666666667,1,87
8,2,2,1.82099999999627,0.313128191152895,1.2390000000014,66.6666666666667,1,88
8,1,1,0.794000000008964,1,1.16700000000128,60,1,89
8,2,2,0.875,0.979921617190475,0.794999999998254,60,1,90
8,2,2,1.28500000000349,0.013753257594848,0.978000000002794,54,1,91
8,1,1,0.86600000000908,0.973804913366128,0.665999999997439,54,1,92
8,1,1,0.724000000001979,0.980601483654265,1.44000000000233,48.6,1,93
8,2,1,1.33400000000256,0.435414164281725,1.02199999999721,48.6,0,94
8,2,2,0.780999999988126,0.880291105627663,0.732000000003609,54,1,95
8,1,1,0.804999999993015,1,0.819000000003143,54,1,96
9,1,1,1.041,0.511619780724119,1.071,48.6,1,1
9,2,2,0.839,0.784436338723027,1.481,48.6,1,2
9,1,1,1.756,0.099953310171085,1.462,43.74,1,3
9,2,2,1.554,0.717895433354374,1.148,43.74,1,4
9,1,2,1.267,0.768021876397379,1.157,39.366,0,5
9,2,2,1.233,1,0.968,43.74,1,6
9,1,1,3.498,0.210949758474716,1.547,43.74,1,7
9,2,2,1.225,0.742281179963219,0.877,39.366,1,8
9,1,2,0.971,0.598920248899808,1.298,39.366,0,9
9,2,2,1.367,0.643350259018137,1.434,43.74,1,10
9,2,2,1.17,0.899469803229715,1.766,43.74,1,11
9,1,2,1.029,0.728555231465929,2.839,39.366,0,12
9,1,1,2.038,0.390061271338336,1.376,43.74,1,13
9,2,2,0.927,0.646786124337419,1.18,43.74,1,14
9,1,2,1.268,0.829575121265517,0.901,39.366,0,15
9,2,1,2.212,0.417820801696096,1.178,43.74,0,16
9,1,1,2.117,0.000161877834208,1.896,48.6,1,17
9,2,2,0.869,0.511336885995717,1.485,48.6,1,18
9,1,1,3.585,0.001289932655898,1.683,43.74,1,19
9,2,2,1.012,0.380731466799832,1.231,43.74,1,20
9,1,2,1.76,0.452137948453602,1.507,39.366,0,21
9,2,2,1.068,0.293472590770736,2.345,43.74,1,22
9,2,1,2.352,0.054890365357124,1.021,43.74,0,23
9,1,1,1.368,0,2.301,48.6,1,24
9,2,2,2.353,0,3.835,48.6,1,25
9,1,2,2.208,0,1.912,43.74,0,26
9,2,1,3.604,0.027210884353741,1.315,48.6,0,27
9,1,1,1.857,0,1.578,54,1,28
9,1,2,1.656,0.001450363507458,1.449,54,0,29
9,2,2,1.669,0,1.721,60,1,30
9,2,2,1.167,0.065821246941196,1.761,60,1,31
9,1,1,2.495,0,1.107,54,1,32
9,2,2,1.708,0,1.586,54,1,33
9,1,1,2.155,0.010619240444605,1.894,48.6,1,34
9,1,1,2.002,0,1.606,48.6,1,35
9,2,2,2.361,0,1.132,43.74,1,36
9,2,1,1.921,0,1.981,43.74,0,37
9,1,1,1.476,0.208587519811958,2.213,48.6,1,38
9,1,2,2.825,0,1.226,48.6,0,39
9,2,1,1.819,0,1.309,54,0,40
9,2,2,2.886,0,1.119,60,1,41
9,1,1,1.896,0,1.95,60,1,42
9,1,2,2.276,0,1.092,54,0,43
9,2,2,1.324,0.092894196614468,1.705,60,1,44
9,2,2,2.363,0.227063295899932,4.722,60,1,45
9,1,2,1.324,0.150213050728408,1.018,54,0,46
9,2,2,2.475,0.273000046682392,2.368,60,1,47
9,1,1,2.013,0.631010314045748,1.967,60,1,48
9,1,1,1.485,0.515286346799881,1.804,54,1,49
9,2,1,1.253,0.773113526746254,1.151,54,0,50
9,2,1,1.204,0.764356557255606,3.223,60,0,51
9,1,1,1.029,0.658738978805628,1.448,66.6666666666667,1,52
9,1,1,1.103,0.706856912374551,1.324,66.6666666666667,1,53
9,2,1,1.418,0.328498291192381,1.136,60,0,54
9,2,1,1.562,0.518127948600067,1.264,66.6666666666667,0,55
9,1,1,1.094,0.715715253219037,0.9,74.0740740740741,1,56
9,1,1,1.085,0.951450993197625,2.335,74.0740740740741,1,57
9,2,1,1.216,0.912113089746314,1.404,66.6666666666667,0,58
9,2,1,1.523,0.549952492869334,0.851,74.0740740740741,0,59
9,1,1,1.128,0.632921543214212,1.218,82.3045267489712,1,60
9,1,2,2.563,0.363294564292197,1.365,82.3045267489712,0,61
9,2,2,1.153,0.045296825659038,3.052,91.4494741655236,1,62
9,1,1,1.07,0.461820200235724,1.325,91.4494741655236,1,63
9,2,1,1.64,0.233758109814051,0.741,82.3045267489712,0,64
9,1,1,0.919,0.519107393599677,1.594,91.4494741655236,1,65
9,2,2,1.906,0.341332235354401,1.259,91.4494741655236,1,66
9,1,1,1.008,0.545597052793183,1.498,82.3045267489712,1,67
9,2,2,1.552,0,2.065,82.3045267489712,1,68
9,1,1,0.918,0.505403272419126,1.271,74.0740740740741,1,69
9,2,1,1.242,0.527133183795653,1.638,74.0740740740741,0,70
9,1,1,1.204,0.75182353466933,1.148,82.3045267489712,1,71
9,2,1,1.045,0.838834672766109,1.446,82.3045267489712,0,72
9,1,1,0.852,0.832497449613816,1.624,91.4494741655236,1,73
9,2,2,1.897,0.14543700816894,0.93,91.4494741655236,1,74
9,1,2,2.409,0,1.592,82.3045267489712,0,75
9,2,2,1.615,0,1.388,91.4494741655236,1,76
9,1,1,1.913,0,1.342,91.4494741655236,1,77
9,2,1,1.203,0.262690028865003,1.955,82.3045267489712,0,78
9,2,2,2.104,0,1.135,91.4494741655236,1,79
9,1,2,3.461,0,1.6,91.4494741655236,0,80
9,1,2,1.674,0,1.417,101.610526850582,0,81
9,2,1,2.29,0.106720222147539,1.802,112.900585389535,0,82
9,1,1,1.346,0.767894855574397,0.823,125.445094877261,1,83
9,2,2,1.689,0,1.164,125.445094877261,1,84
9,2,2,1.114,0.583506566984215,2.031,112.900585389535,1,85
9,1,1,1.714,0.15653987870293,1.365,112.900585389535,1,86
9,1,1,1.123,0.67085749955405,1.279,101.610526850582,1,87
9,2,2,1.486,0.006493186395239,2.354,101.610526850582,1,88
9,2,1,2.84,0.07075263221915,1.051,91.4494741655236,0,89
9,1,1,1.371,0.71875521888646,1.232,101.610526850582,1,90
9,2,2,1.329,0.718298564705589,1.365,101.610526850582,1,91
9,1,1,1.228,0.434372882601263,1.224,91.4494741655236,1,92
9,2,2,1.728,0.197890606431787,1.218,91.4494741655236,1,93
9,1,1,1.427,0.800000981633123,1.208,82.3045267489712,1,94
9,1,1,1.082,0.845224922927877,1.965,82.3045267489712,1,95
9,2,2,1.569,0.047740486069685,2.232,74.0740740740741,1,96
10,1,1,1.9003900000006,0.83394349131588,2.94771499999939,66.6666666666667,1,1
10,2,2,9.04477500000037,0,1.55634999999986,66.6666666666667,1,2
10,1,2,4.04622499999998,0,1.33465499999968,60,0,3
10,2,2,4.22303499999992,0,1.18440000000014,66.6666666666667,1,4
10,1,1,2.34315500000038,0.502218753258759,2.03287499999988,66.6666666666667,1,5
10,2,1,4.68742999999993,0.714015722513765,1.94995999999996,60,0,6
10,1,1,1.75785999999975,0.963291244853215,1.41341999999981,66.6666666666667,1,7
10,2,2,1.99921499999985,0,1.20347500000021,66.6666666666667,1,8
10,1,1,1.54551500000071,0.938112148440183,1.39117499999981,60,1,9
10,2,1,1.37648499999975,0.400722414992462,1.47399000000034,60,0,10
10,2,2,1.51980499999993,0.030311864780378,1.39764500000002,66.6666666666667,1,11
10,1,2,1.54108499999985,0,1.59513499999954,66.6666666666667,0,12
10,2,2,1.64056499999971,0.597983857962556,1.51528000000061,74.0740740740741,1,13
10,1,1,1.65888499999978,0.816543614166788,1.36187999999954,74.0740740740741,1,14
10,1,1,1.13486999999988,0.909785639939303,1.19815000000014,66.6666666666667,1,15
10,2,1,1.32693999999994,0.971315602323755,1.07906999999983,66.6666666666667,0,16
10,1,1,1.07180499999959,0.857674901270761,1.36285500000033,74.0740740740741,1,17
10,2,1,2.2946600000005,0.553084830795054,1.29187499999988,74.0740740740741,0,18
10,1,1,1.13569999999984,1,1.56221499999997,82.3045267489712,1,19
10,2,2,2.29667500000051,0.917952997777209,1.66369500000018,82.3045267489712,1,20
10,1,1,1.38755000000028,0.963500405938135,1.49431000000006,74.0740740740741,1,21
10,2,2,1.5359100000005,0.247988637339407,1.16436999999953,74.0740740740741,1,22
10,2,1,1.32084000000032,1,1.45492000000016,66.6666666666667,0,23
10,1,1,1.19138500000001,0.930701909466675,1.29424500000011,74.0740740740741,1,24
10,1,1,1.20336000000045,0.54026613391201,0.949814999999944,74.0740740740741,1,25
10,2,2,1.01049499999953,0.568864851681663,1.14623000000033,66.6666666666667,1,26
10,1,1,1.05582499999949,1,1.27630500000028,66.6666666666667,1,27
10,2,1,1.80976999999979,0.527133183795653,0.99960999999987,60,0,28
10,1,1,1.25624500000046,0.987705165199577,1.19652499999932,66.6666666666667,1,29
10,2,1,1.01821999999997,1,0.927359999999637,66.6666666666667,0,30
10,1,1,1.02151999999932,0.805360189313412,1.09909500000044,74.0740740740741,1,31
10,2,1,1.63079000000015,0.353368604757466,0.929939999999944,74.0740740740741,0,32
10,1,1,1.02403500000038,0.794857924179764,1.17113499999966,82.3045267489712,1,33
10,2,2,1.24771499999962,0.956113974495545,1.20113000000035,82.3045267489712,1,34
10,1,1,0.898740000000573,0.870953729810157,1.25480999999936,74.0740740740741,1,35
10,2,2,1.07347500000009,0.927247859725915,1.25006000000029,74.0740740740741,1,36
10,1,1,0.924524999999441,0.994561078015067,1.12204500000016,66.6666666666667,1,37
10,2,2,0.951969999999972,0.574660649990781,0.882190000000293,66.6666666666667,1,38
10,1,1,0.92899000000034,0.964169455843594,1.09102999999956,60,1,39
10,2,2,1.08331499999983,0.175783358602186,1.02331000000052,60,1,40
10,1,1,1.10895500000054,0.903656984244774,1.17630000000016,54,1,41
10,2,2,1.49266500000062,0.006338178227627,1.45846499999973,54,1,42
10,1,1,1.07178500000003,1,1.41545000000042,48.6,1,43
10,2,2,1.25241499999992,0.023913614586819,0.972254999999655,48.6,1,44
10,2,1,0.977359999999753,0.053481220267507,1.05546000000054,43.74,0,45
10,1,1,1.0533450000002,0.957944209345619,1.03021499999985,48.6,1,46
10,2,2,1.02675999999978,0.073336715402322,2.14314500000002,48.6,1,47
10,1,1,2.43895499999961,0.878049764735822,1.16698999999976,43.74,1,48
10,2,1,1.19350000000035,0.027210884353741,1.07153000000014,43.74,0,49
10,1,1,1.05190500000026,0.168734217431259,1.15950499999966,48.6,1,50
10,2,2,1.63043999999983,0,1.11481500000088,48.6,1,51
10,1,1,1.10368999999994,0.628944468227637,1.31977499999991,43.74,1,52
10,1,1,0.894950000000768,0.593881005764476,1.03001499999932,43.74,1,53
10,2,2,0.997585000000079,0.002727445979814,1.14857999999996,39.366,1,54
10,2,1,0.954770000000251,0.728449013477441,1.19119500000041,39.366,0,55
10,1,1,1.3450700000003,0.77601397117763,1.1593249999996,43.74,1,56
10,2,1,1.21842999999993,0.416002024450091,0.981649999999674,43.74,0,57
10,1,2,1.42158500000008,0.791694134029004,1.24002999999991,48.6,0,58
10,2,1,1.12773999999999,0.930507914194069,1.16156500000029,54,0,59
10,1,1,1.27278499999922,0.919456967212454,1.16215500000003,60,1,60
10,2,2,1.23183499999961,0,0.984620000000112,60,1,61
10,1,1,1.24621000000031,0.981651377878676,1.17961499999999,54,1,62
10,2,2,1.3216549999998,0,1.24714500000025,54,1,63
10,1,2,1.4223950000006,0,1.02741499999946,48.6,0,64
10,2,1,0.78535000000021,0.855382781670154,1.10191500000015,54,0,65
10,1,2,0.627400000000373,0.401403059563798,0.660399999999674,60,0,66
10,2,1,0.840109999999986,0.922371653391204,1.06044500000018,66.6666666666667,0,67
10,1,1,0.811575000000652,0.964566512976908,0.939064999999478,74.0740740740741,1,68
10,2,2,0.853604999999283,0,0.84554000000027,74.0740740740741,1,69
10,1,1,0.884200000000419,0.846932931230846,0.910229999999516,66.6666666666667,1,70
10,2,2,0.862970000000088,0.958973692937343,1.22059499999974,66.6666666666667,1,71
10,1,1,1.03775000000035,0.979942225252883,1.19800000000035,60,1,72
10,1,1,1.32819999999995,0.591395685201459,0.813760000000009,60,1,73
10,2,2,0.935169999999809,0.983193561717472,0.97539000000048,54,1,74
10,2,2,1.12386500000046,0.96149082423132,1.2893349999995,54,1,75
10,1,1,0.758900000000722,0.992952843474086,1.19940999999922,48.6,1,76
10,1,1,0.904375000000116,0.193860371993594,0.83039999999979,48.6,1,77
10,2,1,1.2829700000002,0.847750794856034,0.98799499999953,43.74,0,78
10,1,2,1.05766500000027,0.923348678734551,0.959209999999963,48.6,0,79
10,2,1,1.02400499999931,0.871866251032401,1.16027000000037,54,0,80
10,1,1,1.19045999999985,0.906813963373516,1.43957499999937,60,1,81
10,2,2,0.958424999999814,0,0.9495900000002,60,1,82
10,1,2,1.08441000000038,0.069775504871942,0.912669999999693,54,0,83
10,2,1,1.04476499999966,0.067147605992287,1.00671000000054,60,0,84
10,1,1,0.924704999999492,0.621775970140055,1.19516000000027,66.6666666666667,1,85
10,2,2,0.892214999999851,0.014195869124016,0.931400000000373,66.6666666666667,1,86
10,1,2,1.07223999999953,0,1.11153999999992,60,0,87
10,2,1,1.14458499999996,0,1.46025999999978,66.6666666666667,0,88
10,2,1,1.47864499999909,0,0.977420000000158,74.0740740740741,0,89
10,1,1,1.10265500000049,0,1.00757999999961,82.3045267489712,1,90
10,2,2,0.802899999999674,0,1.05327000000025,82.3045267489712,1,91
10,1,1,0.654859999999637,0.937255595776914,1.14170500000007,74.0740740740741,1,92
10,2,2,0.771159999999218,0.873279039446957,1.06381000000052,74.0740740740741,1,93
10,1,1,1.20639999999991,0,1.28074000000022,66.6666666666667,1,94
10,2,2,1.03805499999993,0.009256324999985,1.45534500000044,66.6666666666667,1,95
10,1,1,0.971479999999981,0,1.26174999999977,60,1,96
11,1,1,0.973379999864846,0.747753896547109,2.14931999985129,60,1,1
11,2,2,1.14643000019714,0.651198471423724,1.64541499968618,54,1,2
11,1,1,0.933279999997467,0.300103961798631,1.40047000022605,54,1,3
11,2,2,0.720620000269264,0.830787882822793,1.40896999975666,48.6,1,4
11,2,2,0.879710000008345,0.823225059922543,1.42134000035003,48.6,1,5
11,1,1,0.790950000286102,0.767640760767557,1.08771000010893,43.74,1,6
11,2,2,0.671010000165552,0.905115233287168,1.01110999984667,43.74,1,7
11,1,1,1.0528799998574,0.426339990360787,1.07547500031069,39.366,1,8
11,2,2,1.48360500019044,0.194889567001534,1.19949499983341,39.366,1,9
11,1,1,0.664710000157356,0.786131575022224,1.00490000005811,35.4294,1,10
11,2,2,2.04550000000745,0.108107030553696,1.32048999983817,35.4294,1,11
11,1,1,0.745450000278652,0.89198409412812,0.913024999666959,31.88646,1,12
11,1,1,0.959105000365525,0.486899962505203,1.38110499968752,31.88646,1,13
11,2,2,0.831604999955744,0.558351296873751,0.844440000131726,28.697814,1,14
11,2,1,1.20377499982715,0.095238095238095,1.05314500024542,28.697814,0,15
11,1,1,0.790479999966919,0.319927927937277,1.28927999967709,31.88646,1,16
11,2,1,1.11113000009209,0.262233331454677,1.00726500013843,31.88646,0,17
11,1,1,0.891665000002831,0.457403494379749,0.744229999836534,35.4294,1,18
11,1,1,0.787759999744594,0.311093894440894,0.787539999932051,35.4294,1,19
11,2,2,0.616015000268817,0.914544833808484,1.32383999973536,31.88646,1,20
11,1,2,2.32183999987319,0.524572657763865,1.38298500003293,31.88646,0,21
11,2,2,1.04802000010386,0.283169205764657,0.890980000142008,35.4294,1,22
11,1,2,1.20329500036314,0.078623409470744,0.916089999955148,35.4294,0,23
11,2,1,1.09169999975711,0.088535392540067,0.85819000005722,39.366,0,24
11,1,1,0.809555000159889,0.509388663266092,0.908624999690801,43.74,1,25
11,2,2,0.740789999719709,0.757289646145141,0.767510000150651,43.74,1,26
11,2,2,0.752975000068545,0.925949713268352,0.975635000038892,39.366,1,27
11,1,1,1.80417000036687,0.121312759713572,0.850249999668449,39.366,1,28
11,1,1,0.795035000424832,0.291292922057383,0.892499999608845,35.4294,1,29
11,2,2,0.749964999966323,0.627023366029665,1.25685500027612,35.4294,1,30
11,1,2,1.23318499978632,0.492751489893772,0.866200000047684,31.88646,0,31
11,2,2,1.15694000013173,0.597640217934411,0.76644999999553,35.4294,1,32
11,1,2,1.93155500013381,0,1.33435499994084,35.4294,0,33
11,2,2,0.854375000111759,0.420825373765077,0.742265000008047,39.366,1,34
11,2,2,0.957049999851733,0.160836929055098,0.66050500003621,39.366,1,35
11,1,2,0.877679999917746,0.116004048849529,0.710004999767989,35.4294,0,36
11,1,1,0.865470000077039,0.207334358536972,1.0416599996388,39.366,1,37
11,2,1,0.906169999856502,0.186214601971369,0.769020000007004,39.366,0,38
11,2,2,1.13726500002667,0.156230584176606,0.727885000407696,43.74,1,39
11,1,1,1.22430500015616,0.633130298318323,1.40987499989569,43.74,1,40
11,1,1,0.784429999999702,0.233512277377498,0.720980000216514,39.366,1,41
11,2,2,0.759405000135303,0.500530681151054,0.83555500023067,39.366,1,42
11,2,2,0.743654999881983,0.180397397837189,0.877379999961704,35.4294,1,43
11,1,1,0.963559999596328,0.146798215728486,0.924000000115484,35.4294,1,44
11,1,1,1.12298499979079,0.169327725322007,1.02469000034034,31.88646,1,45
11,2,2,0.870755000039935,0.106627494161799,1.0000050002709,31.88646,1,46
11,1,1,0.882555000018328,0.36127911057548,0.737024999689311,28.697814,1,47
11,2,2,0.798434999771416,0.250820035271572,0.821595000103116,28.697814,1,48
11,2,1,1.51057499973103,0.072263786406012,1.05255500040948,25.8280326,0,49
11,1,2,1.23132500005886,0.049793228006888,0.933324999641627,28.697814,0,50
11,1,1,0.981714999768883,0.154134421128477,0.844204999972135,31.88646,1,51
11,2,2,0.902900000102818,0.098423780285281,0.843900000210851,31.88646,1,52
11,2,1,0.98460999969393,0.097559143497582,0.915504999924451,28.697814,0,53
11,1,1,0.892984999809414,0,0.7699000001885,31.88646,1,54
11,2,2,0.805875000078231,0.042821007672873,0.695574999786913,31.88646,1,55
11,1,1,0.843594999983907,0.055241085422599,0.600180000066757,28.697814,1,56
11,1,2,1.12667000014335,0.111313492411828,0.837014999706298,28.697814,0,57
11,2,1,1.26576499966905,0,0.950255000032485,31.88646,0,58
11,1,2,1.52037000004202,0,0.857964999973774,35.4294,0,59
11,2,1,1.33297500014305,0,0.976205000188202,39.366,0,60
11,1,1,0.735775000415742,0.397477644688723,1.30291999969631,43.74,1,61
11,2,1,1.24246000032872,0.076734862470326,0.692425000015646,43.74,0,62
11,1,1,0.735270000062883,0.742438012788976,0.993745000101626,48.6,1,63
11,2,2,1.18944500014186,0,0.885460000019521,48.6,1,64
11,2,2,1.16740499995649,0,0.936424999963492,43.74,1,65
11,1,1,0.902549999766052,0.922132688643808,1.50539000006393,43.74,1,66
11,2,2,0.966715000104159,0,0.790665000211447,39.366,1,67
11,1,1,1.03865000000224,0.144874639218457,1.02371500013396,39.366,1,68
11,1,1,0.841144999954849,0.941851613544351,1.1821600003168,35.4294,1,69
11,2,1,1.23098499979824,0.034144378656567,0.83581000007689,35.4294,0,70
11,2,1,1.03460499970242,0.143180898525559,0.935405000112951,39.366,0,71
11,1,1,0.776235000230372,0.968404358372406,1.0350699997507,43.74,1,72
11,2,2,0.908284999895841,0,0.883005000185221,43.74,1,73
11,1,1,0.966115000192076,0.628284629166981,0.87921499973163,39.366,1,74
11,1,1,0.674604999832809,0.831453070796127,0.749370000325143,39.366,1,75
11,2,1,1.38484499976039,0,0.766035000327975,35.4294,0,76
11,1,1,0.809719999786466,0.694126394057546,0.713695000391454,39.366,1,77
11,2,1,0.909669999964535,0.090922996971967,0.71858000010252,39.366,0,78
11,1,2,0.902865000069141,0.153510488582203,0.780059999786317,43.74,0,79
11,2,2,1.28686500014737,0,0.774714999832213,48.6,1,80
11,1,1,1.13648000033572,0.821499055601053,1.80885499995202,48.6,1,81
11,2,2,1.75435499986634,0,0.90917000034824,43.74,1,82
11,2,2,0.903410000260919,0,0.757445000112057,43.74,1,83
11,1,1,0.725889999885112,0.91270511066606,1.08142499998212,39.366,1,84
11,1,1,0.814144999720156,0.727917729186375,0.685585000086576,39.366,1,85
11,2,2,1.13304999982938,0.149343287005639,0.828799999784678,35.4294,1,86
11,1,2,1.21103500016034,0.060087535920765,0.907979999668896,35.4294,0,87
11,2,2,0.933334999717772,0.592906754187278,0.866274999920279,39.366,1,88
11,1,1,0.787804999854416,0.659085290510291,1.18168500019237,39.366,1,89
11,2,2,0.941234999801964,0,0.854009999893606,35.4294,1,90
11,2,2,0.951624999754131,0,0.701915000099689,35.4294,1,91
11,1,2,1.21861000033095,0,0.739974999800324,31.88646,0,92
11,2,2,1.6326700001955,0.907342875994725,1.01575500005856,35.4294,1,93
11,1,2,1.19805000023916,0,0.652040000073612,35.4294,0,94
11,1,2,0.969715000130236,0,0.788219999987632,39.366,0,95
11,2,2,1.00058999983594,0,0.72179999994114,43.74,1,96
12,1,1,3.45168499997817,1,2.8175400000182,74.0740740740741,1,1
12,2,2,1.18404000002192,1,1.51821499998914,66.6666666666667,1,2
12,1,1,0.839704999991227,1,1.3337800000445,66.6666666666667,1,3
12,2,2,0.781550000014249,1,2.78523499995936,60,1,4
12,2,2,1.26764500001445,1,4.65094500000123,60,1,5
12,1,1,0.844205000030342,1,2.2341599999927,54,1,6
12,1,1,1.63857000001008,1,2.48372000001837,54,1,7
12,2,2,0.914010000007693,1,1.69422999996459,48.6,1,8
12,1,2,1.13273499999195,1,3.17404499999247,48.6,0,9
12,2,1,1.01553499995498,1,2.84647500002757,54,0,10
12,1,2,0.903300000005402,1,2.38571000000229,60,0,11
12,2,2,0.88249500002712,1,3.21701999998186,66.6666666666667,1,12
12,2,1,0.925380000029691,1,2.43030999996699,66.6666666666667,0,13
12,1,1,1.04627500002971,1,3.6051050000242,74.0740740740741,1,14
12,1,2,1.6416999999783,1,2.34701500000665,74.0740740740741,0,15
12,2,1,1.53834500000812,1,2.8822349999682,82.3045267489712,0,16
12,2,2,1.09371500002453,1,3.65539500000887,91.4494741655236,1,17
12,1,2,1.05434500001138,1,3.08165499998722,91.4494741655236,0,18
12,1,2,1.16121500002919,1,2.27948000002652,101.610526850582,0,19
12,2,1,1.05968000000576,1,2.80884000001242,112.900585389535,0,20
12,1,1,1.05118999996921,1,10.3298500000383,125.445094877261,1,21
12,2,2,1.00190999999177,1,1.48824500001501,125.445094877261,1,22
12,2,2,0.965564999962226,1,2.24120500002755,112.900585389535,1,23
12,1,2,1.05510999995749,1,2.96577500004787,112.900585389535,0,24
12,1,2,1.3906399999978,1,3.3703600000008,125.445094877261,0,25
12,2,2,0.900649999966845,1,2.96552500000689,139.383438752513,1,26
12,1,2,1.38409500004491,1,1.50891999999294,139.383438752513,0,27
12,2,1,1.19489000004251,1,3.59032999997726,154.870487502792,0,28
12,1,2,1.02053000003798,1,5.28914999996778,172.078319447546,0,29
12,2,2,0.909074999974109,1,5.29638000001432,191.198132719496,1,30
12,1,2,0.951795000000857,1,2.34983999998076,191.198132719496,0,31
12,2,1,1.1011549999821,1,2.88229999999749,212.442369688329,0,32
12,1,2,1.06648500001756,1,2.619085000013,236.047077431477,0,33
12,2,1,1.29744500003289,1,2.57575499999803,262.274530479418,0,34
12,1,2,1.58672000002116,1,3.69688000000315,291.416144977132,0,35
12,2,1,1.30974499997683,1,5.03532999998424,323.795716641257,0,36
12,2,2,1.90890999999829,1,2.52584999997634,359.773018490286,1,37
12,1,1,1.4258550000377,1,1.81612500001211,359.773018490286,1,38
12,2,1,1.80438500002492,1,3.38910999998916,323.795716641257,0,39
12,1,1,1.97126999998,1,2.71623000002,359.773018490286,1,40
12,1,1,1.57292000000598,1,1.89543499995489,359.773018490286,1,41
12,2,2,1.82995500002289,1,2.79024999996182,323.795716641257,1,42
12,2,1,1.72289500001352,1,2.1496899999911,323.795716641257,0,43
12,1,2,1.28277499997057,1,1.25279000005685,359.773018490286,0,44
12,1,2,1.41932499996619,1,1.59817000001203,399.74779832254,0,45
12,2,1,1.24229000002379,1,2.79714500001865,444.164220358378,0,46
12,2,2,1.66093499999261,1,3.39022000000114,493.515800398197,1,47
12,1,1,1.57271999999648,1,2.48224499996286,493.515800398197,1,48
12,2,2,2.82605500001227,1,2.5905849999981,444.164220358378,1,49
12,1,1,2.42173000000184,1,2.66176500002621,444.164220358378,1,50
12,1,2,1.99722499999916,1,4.53518499998609,399.74779832254,0,51
12,2,1,2.41912000003504,1,1.63243999995757,444.164220358378,0,52
12,1,1,3.46695999999065,1,1.86453500000061,493.515800398197,1,53
12,2,2,1.33633999997983,1,2.26598500000546,493.515800398197,1,54
12,1,1,1.25312000000849,1,3.3006999999634,444.164220358378,1,55
12,2,2,1.34251000004588,1,4.45785999996588,444.164220358378,1,56
12,1,1,1.75522999995155,1,4.67870000004768,399.74779832254,1,57
12,2,2,1.4556599999778,1,2.1133849999751,399.74779832254,1,58
12,2,1,1.20328499999596,1,3.15599499997916,359.773018490286,0,59
12,1,1,1.599664999987,1,3.89480499998899,399.74779832254,1,60
12,1,1,1.14061999996193,1,2.50773499999195,399.74779832254,1,61
12,2,1,1.2861350000021,1,3.01559999998426,359.773018490286,0,62
12,2,2,1.06580500002019,1,3.53528499999084,399.74779832254,1,63
12,1,2,1.01594499999192,1,2.05192999995779,399.74779832254,0,64
12,1,1,1.37692499998957,1,1.74606999999378,444.164220358378,1,65
12,2,2,1.23979500000132,1,2.51773500000127,444.164220358378,1,66
12,1,1,1.08181000000332,1,3.01906000002054,399.74779832254,1,67
12,2,1,1.97564999997849,1,4.03324499999871,399.74779832254,0,68
12,2,1,1.39920000004349,1,2.38386000000173,444.164220358378,0,69
12,1,1,1.49267499998678,1,4.04298999998719,493.515800398197,1,70
12,1,1,1.34912999998778,1,2.77754000003915,493.515800398197,1,71
12,2,2,1.6374899999937,1,2.39658000000054,444.164220358378,1,72
12,2,2,1.27129499998409,1,2.19601499999408,444.164220358378,1,73
12,1,1,0.986879999982193,1,1.81226500001503,399.74779832254,1,74
12,1,2,1.44392500002868,1,3.40005999995628,399.74779832254,0,75
12,2,1,1.20899999997346,1,1.5753450000193,444.164220358378,0,76
12,1,2,1.07828000001609,1,2.42387499997858,493.515800398197,0,77
12,2,1,1.68424500001129,1,1.73622000002069,548.35088933133,0,78
12,1,1,1.41677499999059,1,1.31959999998799,609.2787659237,1,79
12,2,2,1.59350499999709,1,2.72448500001337,609.2787659237,1,80
12,2,2,1.35504499997478,1,2.21021000004839,548.35088933133,1,81
12,1,1,1.48169499996584,1,2.08529499999713,548.35088933133,1,82
12,1,1,1.30926999996882,1,2.13481500005582,493.515800398197,1,83
12,2,2,1.1986700000125,1,1.77066499995999,493.515800398197,1,84
12,2,2,1.22238000005018,1,1.54881499998737,444.164220358378,1,85
12,1,1,1.16724000003887,1,1.67455999995582,444.164220358378,1,86
12,2,2,1.06430999998702,1,1.40350500005297,399.74779832254,1,87
12,1,1,1.16631999996025,1,1.81960000004619,399.74779832254,1,88
12,1,1,1.11632500000997,1,6.34889999998268,359.773018490286,1,89
12,2,2,1.07866500003729,1,2.89019999996526,359.773018490286,1,90
12,1,1,1.06435000000056,1,4.10609999997541,323.795716641257,1,91
12,2,2,1.23905500001274,1,1.61177499999758,323.795716641257,1,92
12,1,1,1.66622000001371,1,1.38701999996556,291.416144977132,1,93
12,2,2,1.31378000002587,1,1.92444999999134,291.416144977132,1,94
12,1,1,1.21014999999898,1,1.41629500000272,262.274530479419,1,95
12,2,2,1.16365000000224,1,1.8513549999916,262.274530479419,1,96
13,2,2,1.431,0.130893004614484,1.932,48.6,1,1
13,1,1,0.815,0.764947067528246,1.668,48.6,1,2
13,1,1,0.766,0.530968085207069,1.418,43.74,1,3
13,2,2,1.397,0.224562846921868,1.358,43.74,1,4
13,1,1,0.821,0.595366932214411,0.968,39.366,1,5
13,2,2,1.288,0,1.545,39.366,1,6
13,1,1,0.816,0.278920341971276,1.337,35.4294,1,7
13,2,2,1.254,0.231413708443471,1.165,35.4294,1,8
13,1,1,0.904,0,1.967,31.88646,1,9
13,2,2,1.633,0.075462501501241,1.286,31.88646,1,10
13,1,2,1.382,0.184901328715532,1.07,28.697814,0,11
13,2,2,1.836,0,1.432,31.88646,1,12
13,2,2,1.638,0.197412217612748,1.236,31.88646,1,13
13,1,1,0.813,0.541307241620511,1.194,28.697814,1,14
13,2,2,1.432,0.097266406859751,1.906,28.697814,1,15
13,1,1,0.799,0.648956217867709,1.183,25.8280326,1,16
13,1,2,1.074,0,1.562,25.8280326,0,17
13,2,1,0.998,0.091334366611356,1.387,28.697814,0,18
13,1,1,0.745,0.798683695271098,0.844,31.88646,1,19
13,2,2,1.422,0.323243935312193,1.025,31.88646,1,20
13,2,2,1.047,0,1.551,28.697814,1,21
13,1,2,1.101,0.200053980328062,1.154,28.697814,0,22
13,2,2,1.335,0.077509012253387,1.549,31.88646,1,23
13,1,1,0.778,0.265689164469395,1.122,31.88646,1,24
13,2,2,1.381,0.166345794799977,2.057,28.697814,1,25
13,1,1,0.691,0.209282074809535,1.768,28.697814,1,26
13,1,2,1.019,0,1.034,25.8280326,0,27
13,2,2,2.292,0,1.189,28.697814,1,28
13,1,2,1.005,0,2.013,28.697814,0,29
13,2,2,1.107,0,1.707,31.88646,1,30
13,1,1,0.975,0.41507216591627,1.258,31.88646,1,31
13,2,2,0.939,0.007197996796348,1.377,28.697814,1,32
13,1,1,1.476,0.044132304129977,1.417,28.697814,1,33
13,2,2,3.735,0,1.036,25.8280326,1,34
13,2,2,1.18,0.219579156447018,1.193,25.8280326,1,35
13,1,1,0.874,0.254840877533196,1.354,23.24522934,1,36
13,1,2,1.019,0,2.368,23.24522934,0,37
13,2,2,1.458,0,1.566,25.8280326,1,38
13,1,1,0.792,0.29364013595595,1.529,25.8280326,1,39
13,2,2,0.954,0,1.25,23.24522934,1,40
13,2,2,1.196,0,2.446,23.24522934,1,41
13,1,1,1.007,0.09585535383994,1.639,20.920706406,1,42
13,1,2,0.866,0,1.533,20.920706406,0,43
13,2,2,2.095,0.116161317413612,1.724,23.24522934,1,44
13,1,1,0.937,0.026168216721694,1.693,23.24522934,1,45
13,2,2,1.488,0,1.297,20.920706406,1,46
13,2,1,2.488,0.026905811622652,1,20.920706406,0,47
13,1,1,1.061,0.116161317413612,1.232,23.24522934,1,48
13,2,1,2.068,0,1.527,23.24522934,0,49
13,1,1,0.818,0.667562531456692,0.979,25.8280326,1,50
13,1,1,3.748,0,1.054,25.8280326,1,51
13,2,2,1.157,0.078138135094705,1.054,23.24522934,1,52
13,1,1,2.287,0,1.502,23.24522934,1,53
13,2,2,1.434,0,1.811,20.920706406,1,54
13,2,2,1.903,0.015510444272638,1.294,20.920706406,1,55
13,1,1,2.593,0.010613234849846,1.009,18.8286357654,1,56
13,1,2,2.097,0,1.435,18.8286357654,0,57
13,2,1,1.123,0.184901328715532,1.865,20.920706406,0,58
13,2,2,1.689,0,1.477,23.24522934,1,59
13,1,1,0.831,0.14986229505063,2.135,23.24522934,1,60
13,1,1,0.984,0.25883532744916,1.441,20.920706406,1,61
13,2,2,1.071,0.061876506141748,1.586,20.920706406,1,62
13,1,2,3.084,0,1.038,18.8286357654,0,63
13,2,2,2.689,0.122672156221381,2.001,20.920706406,1,64
13,2,1,2.256,0.088631367830369,1.984,20.920706406,0,65
13,1,1,1.377,0,1.047,23.24522934,1,66
13,1,1,1.459,0.127182601859437,1.182,23.24522934,1,67
13,2,2,0.716,0.185042469209487,1.488,20.920706406,1,68
13,2,2,2.672,0,1.244,20.920706406,1,69
13,1,2,1.844,0,1.326,18.8286357654,0,70
13,2,2,2.223,0,1.296,20.920706406,1,71
13,1,1,2.684,0,0.889,20.920706406,1,72
13,2,2,1.847,0,1.412,18.8286357654,1,73
13,1,1,0.966,0.423738886183078,2.869,18.8286357654,1,74
13,1,2,1.574,0,1.15,16.94577218886,0,75
13,2,2,1.441,0,1.233,18.8286357654,1,76
13,1,1,2.667,0,1.033,18.8286357654,1,77
13,2,2,2.116,0,1.592,16.94577218886,1,78
13,2,1,2.241,0.082328341924324,1.155,16.94577218886,0,79
13,1,2,1.642,0,1.396,18.8286357654,0,80
13,1,1,1.169,0.19615868838724,1.795,20.920706406,1,81
13,2,1,1.983,0,1.246,20.920706406,0,82
13,1,1,1.037,0.603837495238558,1.214,23.24522934,1,83
13,2,2,1.289,0.001956175526053,2.153,23.24522934,1,84
13,2,2,1,0.136978733655644,1.32,20.920706406,1,85
13,1,1,0.807,0.271626804298418,1.209,20.920706406,1,86
13,1,2,1.392,0,1.389,18.8286357654,0,87
13,2,2,2.894,0,0.958,20.920706406,1,88
13,1,1,1.005,0.008793201731954,2.271,20.920706406,1,89
13,2,2,0.937,0.032984988714524,2.199,18.8286357654,1,90
13,2,2,2.3,0.030573572450712,1.925,18.8286357654,1,91
13,1,1,1.281,0.29557599967998,1.764,16.94577218886,1,92
13,2,2,1.97,0.054088409200753,1.314,16.94577218886,1,93
13,1,1,1.306,0.243508682871325,1.66,15.251194969974,1,94
13,2,2,1.073,0,1.518,15.251194969974,1,95
13,1,2,2.141,0.088471386484573,1.432,13.7260754729766,0,96
14,1,2,1.69599999999627,0.021678729557113,1.57000000000698,60,0,1
14,2,2,1.26699999999255,0.367528312432726,2.32800000003772,66.6666666666667,1,2
14,1,2,0.98499999998603,0.778955492589849,2.37099999998463,66.6666666666667,0,3
14,2,1,2.04300000000512,0,2.1370000000461,74.0740740740741,0,4
14,2,2,1.18300000001909,0.251583374539434,1.56199999997625,82.3045267489712,1,5
14,1,1,1.12099999998463,1,1.74500000005355,82.3045267489712,1,6
14,1,1,1.25,0.637886625055976,1.77799999999115,74.0740740740741,1,7
14,2,2,1.15200000000186,0.285282149049239,1.29099999996834,74.0740740740741,1,8
14,1,1,2.73200000001816,0.281863708266339,1.5449999999837,66.6666666666667,1,9
14,2,1,1.15700000000652,0.145918167031171,1.53000000002794,66.6666666666667,0,10
14,2,2,0.963999999978114,0.330848717239556,1.45000000001164,74.0740740740741,1,11
14,1,2,2.1020000000135,0.355369616968722,2.15399999998044,74.0740740740741,0,12
14,1,2,1.24099999997998,0,1.625,82.3045267489712,0,13
14,2,1,1.42999999999302,0.193172490754516,1.36199999996461,91.4494741655236,0,14
14,2,2,1.18300000001909,0.182893058335044,2.04999999998836,101.610526850582,1,15
14,1,2,1.8300000000163,0,1.46299999998882,101.610526850582,0,16
14,1,1,2.65799999999581,0.091713464619954,2.07399999996414,112.900585389535,1,17
14,2,2,1.38800000003539,1,1.57099999999627,112.900585389535,1,18
14,2,2,1.00699999998324,1,1.96100000001024,101.610526850582,1,19
14,1,1,1.05499999999302,1,1.71399999997811,101.610526850582,1,20
14,1,1,2.26399999996647,1,1.72299999999814,91.4494741655236,1,21
14,2,2,0.922000000020489,1,1.58500000002095,91.4494741655236,1,22
14,1,1,1.03299999999581,1,1.20199999999022,82.3045267489712,1,23
14,2,2,0.972000000008848,0.985984680962804,2.76199999998789,82.3045267489712,1,24
14,1,1,1.07900000002701,1,1.14600000000792,74.0740740740741,1,25
14,2,2,0.832000000053085,1,1.53800000000047,74.0740740740741,1,26
14,2,2,0.885000000009313,1,1.36999999999534,66.6666666666667,1,27
14,1,1,0.868000000016764,1,1.5460000000312,66.6666666666667,1,28
14,2,2,1.75999999995111,0.25942474672034,1.35899999999674,60,1,29
14,1,1,1.80799999996088,0.581720476296876,1.47400000004563,60,1,30
14,2,2,1.65299999999115,0.270376667986052,1.26500000001397,54,1,31
14,1,1,2.31300000002375,0,1.43399999995017,54,1,32
14,2,2,1.88299999997253,0.22284843689022,1.67999999999302,48.6,1,33
14,1,2,1.15799999999581,0.001770691329723,1.45000000001164,48.6,0,34
14,1,2,1.59799999999814,0,2.08899999997811,54,0,35
14,2,1,1.55499999999302,0.141395679126206,1.25099999998929,60,0,36
14,2,1,1.8979999999865,0.018411831171832,1.00799999997253,66.6666666666667,0,37
14,1,1,1.41099999996368,0.542092760443095,1.80200000002515,74.0740740740741,1,38
14,2,2,1.16300000000047,0.164547578984898,1.43299999996088,74.0740740740741,1,39
14,1,2,1.07799999997951,0.05802480354059,1.23300000000745,66.6666666666667,0,40
14,1,1,1.34500000003027,0.286792725840493,1.67399999999907,74.0740740740741,1,41
14,2,1,2.09399999998277,0.14543700816894,1.1940000000177,74.0740740740741,0,42
14,1,1,2.44200000003912,0,1.67399999999907,82.3045267489712,1,43
14,2,1,1.7149999999674,0.183956793182702,1.25800000003073,82.3045267489712,0,44
14,1,1,1.02600000001257,0.881805190953073,1.76000000000931,91.4494741655236,1,45
14,2,2,1.2050000000163,0.699280163478907,1.34499999997206,91.4494741655236,1,46
14,1,1,1.13699999998789,0.900645681428316,1.47800000000279,82.3045267489712,1,47
14,2,1,1.54300000000512,0.160836929055098,1.54599999997299,82.3045267489712,0,48
14,2,2,1.09000000002561,1,1.8179999999702,91.4494741655236,1,49
14,1,2,2.41300000000047,0.123232751232761,0.952999999979511,91.4494741655236,0,50
14,1,1,1.57199999998556,0.226750413801527,1.32200000004377,101.610526850582,1,51
14,2,2,1.0339999999851,1,1.9539999999688,101.610526850582,1,52
14,1,1,1.30800000001909,0.625489048803395,1.79399999999441,91.4494741655236,1,53
14,2,2,1.76600000000326,0.22284843689022,1.49099999997998,91.4494741655236,1,54
14,1,1,1.5229999999865,0.093775879332327,1.52199999999721,82.3045267489712,1,55
14,2,2,1.1359999999986,0.420168209430164,1.5460000000312,82.3045267489712,1,56
14,1,1,0.939999999944121,0.967675354919354,1.20200000004843,74.0740740740741,1,57
14,2,2,0.856999999959953,0.894931347944581,2.20200000004843,74.0740740740741,1,58
14,2,1,1.2960000000312,0.193722908213686,1.67999999999302,66.6666666666667,0,59
14,1,1,1.02199999999721,1,1.46599999995669,74.0740740740741,1,60
14,2,1,1.36600000003818,0.056289539704822,1.41699999995762,74.0740740740741,0,61
14,1,2,1.22899999999208,0.123840758964798,1.25799999997253,82.3045267489712,0,62
14,1,2,1.27399999997579,0.506971876685129,1.65700000000652,91.4494741655236,0,63
14,2,2,1.25900000002002,0.034536119869459,1.13000000000466,101.610526850582,1,64
14,1,1,2.41699999995762,1,1.31500000000233,101.610526850582,1,65
14,2,2,1.10799999994924,0.367392288233991,0.937000000034459,91.4494741655236,1,66
14,2,2,1.30799999996088,0.081632653061224,1.23300000000745,91.4494741655236,1,67
14,1,1,1.08100000000559,1,1.39199999999255,82.3045267489712,1,68
14,1,2,1.17200000002049,0.122797608024035,1.32999999995809,82.3045267489712,0,69
14,2,2,1.08299999998417,0.418810379658993,1.48100000002887,91.4494741655236,1,70
14,2,2,1.17200000002049,1,1.25,91.4494741655236,1,71
14,1,1,1.20300000003772,0.664491446728672,1.93799999996554,82.3045267489712,1,72
14,1,1,1.24800000002142,0.952887870182724,1.86699999996927,82.3045267489712,1,73
14,2,1,1.16100000002189,0.4058066680661,2.06599999999162,74.0740740740741,0,74
14,2,2,0.851000000024214,1,1.20199999999022,82.3045267489712,1,75
14,1,1,0.962999999988824,1,1.56199999997625,82.3045267489712,1,76
14,1,1,0.970000000030268,1,1.28999999997905,74.0740740740741,1,77
14,2,2,0.729999999981374,1,2.1940000000177,74.0740740740741,1,78
14,2,2,1.16600000002654,0.399742492588007,1.85799999994924,66.6666666666667,1,79
14,1,1,3.09299999999348,0,1.1370000000461,66.6666666666667,1,80
14,1,1,1.06599999999162,0.966737360994777,1.76000000000931,60,1,81
14,2,2,2.12599999998929,0.188457024813222,1.62599999998929,60,1,82
14,2,2,1.17399999999907,0.257290916186469,1.20199999999022,54,1,83
14,1,2,1.09600000001956,0.180540525823257,1.56099999998696,54,0,84
14,2,2,1.07799999997951,0.207796570581221,1.37800000002608,60,1,85
14,1,1,1.45100000000093,1,1.67499999998836,60,1,86
14,2,1,2.04899999999907,0.265816008051036,1.39100000000326,54,0,87
14,1,1,0.900000000023283,0.940912619402797,2.56099999998696,60,1,88
14,2,2,0.770000000018626,0.932510844401082,1.63500000000931,60,1,89
14,1,1,1.05099999997765,0.660584249637697,1.69500000000698,54,1,90
14,1,1,0.987000000022817,0.432606421294057,2.52899999998044,54,1,91
14,2,2,0.911000000021886,0.870839606899606,1.23999999999069,48.6,1,92
14,1,1,0.798999999999069,1,0.968999999982771,48.6,1,93
14,2,2,0.935999999986961,0.498657850999771,1.58600000001024,43.74,1,94
14,2,1,1.85399999999208,0.035706187053152,1.23100000002887,43.74,0,95
14,1,1,1.03599999996368,0.16694687174791,2.06200000003446,48.6,1,96
15,2,1,6.25156999999998,0.012417853204262,3.44939500000002,48.6,0,1
15,1,1,1.06659000000003,1,2.26747999999998,54,1,2
15,1,1,0.918404999999999,1,1.38751999999999,54,1,3
15,2,2,2.74703000000012,1,1.42606499999997,48.6,1,4
15,1,1,0.787339999999967,1,3.40033000000007,48.6,1,5
15,2,2,1.49411999999997,0.225370574223792,4.62701500000001,43.74,1,6
15,2,2,2.419495,0.301407941966141,1.83563000000003,43.74,1,7
15,1,1,0.798935000000027,1,1.37037,39.366,1,8
15,1,2,4.2015849999999,0.205744978920243,3.89098000000001,39.366,0,9
15,2,1,1.81394,0.568442088356841,1.89092999999991,43.74,0,10
15,2,2,3.79596000000005,0.31094095456212,1.50516000000003,48.6,1,11
15,1,1,1.58962999999995,1,1.46318499999994,48.6,1,12
15,1,1,1.13610000000003,0.695424707557115,1.58526999999993,43.74,1,13
15,2,2,1.47475499999995,0.627383937671736,1.52795000000004,43.74,1,14
15,1,1,1.39673000000007,0.411846262092413,2.98486000000002,39.366,1,15
15,2,1,1.74969,0.293048145404103,1.35627499999997,39.366,0,16
15,1,1,1.348255,0.977941478952409,2.0900799999999,43.74,1,17
15,2,2,1.56277500000002,0.391492160181101,1.73807999999996,43.74,1,18
15,1,1,1.026505,1,1.582995,39.366,1,19
15,2,1,1.33492000000004,0.709114081913667,1.30641999999998,39.366,0,20
15,1,1,1.01938999999996,1,1.46658499999996,43.74,1,21
15,2,2,1.30413499999995,0.614692362575699,1.40425499999989,43.74,1,22
15,1,1,1.00164000000007,0.971502493540282,1.770125,39.366,1,23
15,2,2,1.19060000000003,0.808600135173869,1.66396999999991,39.366,1,24
15,1,1,1.96318999999994,0.373657123067434,1.42941000000009,35.4294,1,25
15,2,2,3.1331650000001,0.180325810074005,1.10515499999991,35.4294,1,26
15,1,2,1.98690000000002,0.074936198552137,1.77712500000006,31.88646,0,27
15,2,2,1.58572000000003,0.000161877834208,1.73260499999992,35.4294,1,28
15,1,1,0.980975000000035,0.869126218864713,2.21154000000004,35.4294,1,29
15,2,2,1.34973000000004,0.152258666169848,1.37834999999992,31.88646,1,30
15,2,1,6.29364500000002,0.110310123345964,1.81574999999994,31.88646,0,31
15,1,2,1.61638500000001,0,4.20345000000001,35.4294,0,32
15,1,1,1.09687999999995,0.875667195329869,2.47910999999999,39.366,1,33
15,2,2,1.10611000000004,0.801937716908541,1.24441000000003,39.366,1,34
15,1,1,1.11562500000006,0.924151340483866,1.88936499999999,35.4294,1,35
15,2,2,1.06667999999993,0.692327528423864,1.78909500000009,35.4294,1,36
15,2,2,1.092125,0.829003886285272,1.62617999999999,31.88646,1,37
15,1,1,1.02484000000003,1,2.22674999999994,31.88646,1,38
15,1,1,0.977729999999981,1,2.10973499999999,28.697814,1,39
15,2,2,1.00862000000011,0.470822204698988,1.44304999999993,28.697814,1,40
15,1,1,1.34897499999998,0.915332307462519,1.96437000000005,25.8280326,1,41
15,2,2,1.27730999999994,0.109210983859168,2.84434500000009,25.8280326,1,42
15,2,2,1.22371000000002,0.710525170397732,2.39756999999995,23.24522934,1,43
15,1,1,1.07419500000001,0.69099664436267,2.11731499999994,23.24522934,1,44
15,2,2,1.20977499999991,0.016535707671564,1.64540000000002,20.920706406,1,45
15,1,1,1.69344500000001,0.60166020158284,1.40343000000005,20.920706406,1,46
15,1,2,1.31117999999993,0,1.71076000000007,18.8286357654,0,47
15,2,2,1.4845849999999,0,1.28362000000005,20.920706406,1,48
15,1,1,0.92077500000014,0.61643136817891,2.34835499999986,20.920706406,1,49
15,2,2,1.68795999999996,0.453031714238409,1.46460499999998,18.8286357654,1,50
15,2,2,1.29337500000012,0.364253661552051,1.20971499999997,18.8286357654,1,51
15,1,1,1.08412,0.449292278021377,2.06356000000006,16.94577218886,1,52
15,1,2,1.26691499999992,0.444308724545308,1.31233500000008,16.94577218886,0,53
15,2,2,1.42335499999998,0.327908851069277,1.32929500000004,18.8286357654,1,54
15,2,2,1.20645500000007,0.231292517006802,1.106755,18.8286357654,1,55
15,1,2,1.37127000000002,0.412013090187899,2.47043499999994,16.94577218886,0,56
15,2,2,1.28535000000009,0.286577254478547,1.17644999999995,18.8286357654,1,57
15,1,2,1.30431999999995,0,1.976755,18.8286357654,0,58
15,2,2,1.20454999999993,0,1.35734499999997,20.920706406,1,59
15,1,2,1.0902649999999,0.039932365204685,1.25137500000012,20.920706406,0,60
15,2,2,1.00714500000002,0.000646415712442,1.26340999999992,23.24522934,1,61
15,1,2,0.965744999999879,0,1.16639500000014,23.24522934,0,62
15,2,2,0.970900000000023,0.030578895020162,1.17902500000002,25.8280326,1,63
15,1,2,0.870979999999981,0.000646415712442,1.15972500000009,25.8280326,0,64
15,2,2,0.957869999999995,0.038279278308766,1.22159499999997,28.697814,1,65
15,1,2,0.947524999999907,0.052061888189039,1.04905500000017,28.697814,0,66
15,1,1,0.933489999999991,0.149264089164406,1.69846999999997,31.88646,1,67
15,2,1,1.03759999999998,0.225872931506602,1.117625,31.88646,0,68
15,2,2,0.975880000000005,0.593378327225016,2.892625,35.4294,1,69
15,1,1,0.913145000000251,1,1.20296999999974,35.4294,1,70
15,2,1,1.27677999999991,0.077471220961927,2.58420999999996,31.88646,0,71
15,1,1,1.20306499999994,0.736695497124765,1.9973450000002,35.4294,1,72
15,2,2,1.79949000000011,0.371007278041394,1.39753999999992,35.4294,1,73
15,1,1,1.41824500000011,0.962726312269893,2.25785499999998,31.88646,1,74
15,2,2,1.73455500000005,0.689885949514414,1.95944000000006,31.88646,1,75
15,1,1,1.18125999999978,1,1.36515000000014,28.697814,1,76
15,2,1,1.37665500000003,0.146798215728486,2.5331449999999,28.697814,0,77
15,1,1,0.897205000000075,1,2.14223999999987,31.88646,1,78
15,1,1,0.962304999999935,0.853805342618349,1.66881999999995,31.88646,1,79
15,2,2,1.03198499999987,0.583506566984215,1.38794999999995,28.697814,1,80
15,2,2,1.09866000000015,0.440790954525215,1.1101649999998,28.697814,1,81
15,1,2,1.14016999999993,0.371862107157195,1.00783999999997,25.8280326,0,82
15,2,2,0.974865000000107,0.732661254051492,1.63571000000008,28.697814,1,83
15,1,2,1.18369000000018,0.108935449296894,1.45204000000004,28.697814,0,84
15,1,1,0.922525000000023,0.42045581316082,1.19696499999985,31.88646,1,85
15,2,2,1.02447499999986,0.242083111586261,1.48239500000002,31.88646,1,86
15,1,2,0.930520000000135,0.232465693173706,1.08985499999998,28.697814,0,87
15,2,2,1.02991000000003,0.119731415858758,3.00423999999987,31.88646,1,88
15,1,2,1.19823999999999,0,1.60318000000005,31.88646,0,89
15,2,2,1.21466500000004,0.237730632127873,1.23557999999996,35.4294,1,90
15,2,2,1.47172999999998,0.207334358536972,1.28451500000001,35.4294,1,91
15,1,1,0.989469999999972,0,1.54505999999994,31.88646,1,92
15,1,2,1.19852499999979,0,1.27046500000008,31.88646,0,93
15,2,2,1.03838000000012,0.022660204906073,1.38439999999991,35.4294,1,94
15,2,2,1.15935499999998,0.064039541846878,1.78440000000002,35.4294,1,95
15,1,1,1.03716500000027,0.220181335078267,1.44603499999992,31.88646,1,96
16,1,1,1.10800000000745,0.904364267675755,2.5424350000103,48.6,1,1
16,2,2,0.918290000001434,0.850083836094304,1.01229000001331,48.6,1,2
16,1,1,1.91206499998225,0.701119043225623,1.38712500000838,43.74,1,3
16,2,2,0.934994999988703,0.852527644133696,1.6733500000264,43.74,1,4
16,2,2,0.837479999987409,0.876757060732248,1.66368999998667,39.366,1,5
16,1,2,1.31781999999657,0.611631791296858,1.32148000001325,39.366,0,6
16,2,2,1.07221499999287,0.766801744328675,1.18087500002002,43.74,1,7
16,1,2,0.992250000010245,0.795425287051247,2.92266000001109,43.74,0,8
16,1,1,0.902705000014976,0.924649988195592,1.40356499998597,48.6,1,9
16,2,2,0.931125000002794,0.940805864040265,1.44221999999718,48.6,1,10
16,2,2,1.02691000001505,0.913165341923049,1.53985500000999,43.74,1,11
16,1,2,3.14955000000191,0.861206975862592,1.17689500001143,43.74,0,12
16,2,2,1.03136500000255,0.940400097713165,1.88640499999747,48.6,1,13
16,1,1,1.33092000000761,0.864152396481458,1.58324499998707,48.6,1,14
16,2,2,0.998380000004545,0.891626280662962,1.9419249999919,43.74,1,15
16,1,2,1.05693500000052,0.846932931230846,1.19474500001525,43.74,0,16
16,2,2,1.18189500001608,0.904430551007888,1.4932400000107,48.6,1,17
16,1,1,1.8623099999968,0.328301893086334,1.28667000000132,48.6,1,18
16,2,2,0.969565000006696,0.944067829572697,1.5253500000108,43.74,1,19
16,1,1,1.01350000000093,0.943578094220911,0.944580000010319,43.74,1,20
16,2,2,1.0899100000097,0.931219058893637,1.03435999999056,39.366,1,21
16,1,1,0.913594999990892,1,0.943475000007311,39.366,1,22
16,1,1,0.947500000009313,1,0.742575000011129,35.4294,1,23
16,2,2,0.965854999987641,1,0.852515000005951,35.4294,1,24
16,2,1,1.90067000000272,0.366302786426237,1.03565000000526,31.88646,0,25
16,1,1,1.01047000000835,0.951176081250319,1.27775499998825,35.4294,1,26
16,1,1,0.89936999999918,0.976598771740093,1.07733999998891,35.4294,1,27
16,2,2,1.19861500000115,0.957523735169774,1.40925500000594,31.88646,1,28
16,1,1,0.882065000012517,0.976598771740093,1.44333999999799,31.88646,1,29
16,2,1,1.32806999998866,0.71625408369512,1.0963000000047,28.697814,0,30
16,2,1,1.31200999999419,0.45334227522736,1.84678000002168,31.88646,0,31
16,1,2,1.98548500001198,0.256422601110998,1.17449999999371,35.4294,0,32
16,1,1,0.912749999988591,0.909082001636881,2.02142500001355,39.366,1,33
16,2,2,1.07510000001639,0.861667767129951,1.01315999997314,39.366,1,34
16,1,1,1.06812499999069,0.928825150824339,1.21804500001599,35.4294,1,35
16,2,1,2.21761500000139,0.272331823664411,1.01678999999422,35.4294,0,36
16,2,2,1.0451849999954,0.895198865174699,1.53142499999376,39.366,1,37
16,1,1,0.878945000004023,0.96550634406408,0.851504999998724,39.366,1,38
16,2,2,1.3807449999731,0.87038298671889,1.16849999999977,35.4294,1,39
16,1,1,1.02329000001191,0.929839439713218,2.09692000001087,35.4294,1,40
16,1,1,1.49952499999199,0.849151278030894,4.15851999999722,31.88646,1,41
16,2,1,1.06607500000973,1,0.826524999982212,31.88646,0,42
16,2,2,1.48724499999662,1,0.779615000006743,35.4294,1,43
16,1,1,1.08259000000544,1,1.54307499999413,35.4294,1,44
16,2,2,0.974014999985229,1,0.772630000021309,31.88646,1,45
16,1,1,0.843430000008084,1,0.822989999986021,31.88646,1,46
16,2,1,1.11715499998536,1,0.688569999998435,28.697814,0,47
16,1,1,0.966400000004796,1,0.774280000012368,31.88646,1,48
16,2,1,1.14331499999389,1,0.71140000000014,31.88646,0,49
16,1,1,0.786000000021886,1,0.857039999973495,35.4294,1,50
16,2,2,0.849325000017416,1,0.739059999992605,35.4294,1,51
16,1,1,0.780924999999115,1,0.766564999998081,31.88646,1,52
16,2,1,0.910904999997001,1,0.649825000000419,31.88646,0,53
16,1,1,0.725449999998091,1,0.858164999983273,35.4294,1,54
16,2,1,1.91727000000537,1,0.531984999979613,35.4294,0,55
16,1,1,0.805690000008326,1,0.899294999981066,39.366,1,56
16,1,1,0.73855999999796,1,0.835374999995111,39.366,1,57
16,2,2,0.809475000016391,1,0.67364500000258,35.4294,1,58
16,2,2,0.860309999989113,1,0.951185000012629,35.4294,1,59
16,1,1,0.756220000010217,1,0.683374999993248,31.88646,1,60
16,1,1,0.792050000018207,1,0.838454999990063,31.88646,1,61
16,2,1,0.889439999999013,1,0.581119999988005,28.697814,0,62
16,1,1,0.765645000006771,1,1.61473500001011,31.88646,1,63
16,2,2,0.761725000018487,1,1.02289999998175,31.88646,1,64
16,1,1,0.98243000000366,1,1.17578499999945,28.697814,1,65
16,2,2,0.867539999977453,0.949991054586296,2.54385000001639,28.697814,1,66
16,2,2,0.83268500000122,0.932962602880103,0.874535000009928,25.8280326,1,67
16,1,1,1.08040000000619,0.936462679361416,1.19356499999412,25.8280326,1,68
16,1,1,0.863839999976335,0.939459844269497,1.70734500000253,23.24522934,1,69
16,2,2,0.804699999978766,0.978024054552743,1.20875000001979,23.24522934,1,70
16,1,1,0.87721999999485,1,0.781319999980042,20.920706406,1,71
16,2,2,1.35795499998494,0.769417938189943,0.75089000002481,20.920706406,1,72
16,1,1,0.86214499999187,0.836002182662532,1.49538500001654,18.8286357654,1,73
16,2,1,1.71040999999968,0.328498291192381,1.18480499999714,18.8286357654,0,74
16,1,1,0.921189999993658,0.429623262584197,1.04429499999969,20.920706406,1,75
16,2,2,0.851930000004359,0.9751302795757,1.72856499999762,20.920706406,1,76
16,2,1,1.46164500000305,0.754509183799235,1.21786999999313,18.8286357654,0,77
16,1,1,0.839470000006258,0.83394349131588,0.940965000016149,20.920706406,1,78
16,1,1,1.10790500001167,0.773921528376171,0.81561999997939,20.920706406,1,79
16,2,2,0.793890000000829,0.870474327215747,1.47505999999703,18.8286357654,1,80
16,1,1,0.906084999995073,0.919848957016517,1.87339500000235,18.8286357654,1,81
16,2,2,0.836489999986952,0.8947752643763,1.0052850000211,16.94577218886,1,82
16,1,1,0.812349999992875,0.912814707735652,1.14936999999918,16.94577218886,1,83
16,2,2,0.919115000026068,0.940464176184728,1.27221999998437,15.251194969974,1,84
16,2,2,0.82311500000651,0.91952230889048,0.696464999986347,15.251194969974,1,85
16,1,1,0.77202999999281,0.860284758337377,0.994830000010552,13.7260754729766,1,86
16,1,1,0.756194999994477,0.89173811066421,0.867564999993192,13.7260754729766,1,87
16,2,2,0.747764999978244,0.934681852471897,0.789215000026161,12.3534679256789,1,88
16,2,2,1.59884000002057,0.647928095358503,0.859384999988833,12.3534679256789,1,89
16,1,1,0.727165000018431,0.834511839289205,0.750674999988405,11.1181211331111,1,90
16,2,1,1.14390000002459,0.517847840486437,0.72941999998875,11.1181211331111,0,91
16,1,1,0.784625000000233,0.68542827631877,0.786120000004303,12.3534679256789,1,92
16,2,1,0.813164999999572,0.788817669232092,0.874310000013793,12.3534679256789,0,93
16,1,1,0.729779999994207,0.702899210118269,0.648370000009891,13.7260754729766,1,94
16,2,2,1.39921500001219,0.360406305800862,0.937115000007907,13.7260754729766,1,95
16,1,1,0.875425000005635,0.724082871063423,1.17517000000225,12.3534679256789,1,96
17,2,2,1.04244500002824,0.944940289238602,2.17340999998851,48.6,1,1
17,1,1,1.07433000003221,0.954934278124012,2.36589499999536,48.6,1,2
17,2,2,1.15778000000864,0.930357004738341,1.25377000001026,43.74,1,3
17,1,1,1.52662000001874,0.589881500064135,2.13838499999838,43.74,1,4
17,2,2,1.60054499999387,0.887682132977329,1.60858000000007,39.366,1,5
17,1,1,1.05838500004029,0.997486708451714,3.00238999997964,39.366,1,6
17,1,1,1.17233999999007,0.936055279614657,2.64674500003457,35.4294,1,7
17,2,2,0.831145000003744,1,1.87463000003481,35.4294,1,8
17,2,1,1.01505500002531,0.541281528531952,1.97049999999581,31.88646,0,9
17,1,1,2.23499999998603,0.38412327637726,4.28376999998,35.4294,1,10
17,1,1,1.29845000000205,0.967987843552217,1.86740499996813,35.4294,1,11
17,2,1,1.47457999998005,0.872231029832317,1.30981000000611,31.88646,0,12
17,1,1,1.23743500001729,0.88741266397355,1.75241499999538,35.4294,1,13
17,2,2,1.10291499999585,0.839470857479439,2.19444499997189,35.4294,1,14
17,1,1,1.3333500000299,0.913669174698692,1.60801500000525,31.88646,1,15
17,2,1,2.53943000000436,0,2.17954500002088,31.88646,0,16
