"Subj_idx","Stimulus","Response","Confidence","RT_dec","RT_conf","Noise","Difficulty","Error_trial"
1,0,1,4,6.296,1.886,0,0.07,0
1,1,0,2,0.954,1.139,1,0.07,0
1,0,0,3,0.806,1.121,1,0.07,0
1,0,0,5,0.759,1.244,1,0.07,0
1,1,1,3,0.675,1.057,1,0.07,0
1,1,0,2,1.583,1.104,1,0.07,0
1,1,1,4,0.54,1.094,1,0.07,0
1,0,1,4,0.591,1.425,1,0.07,0
1,1,1,6,1.45,1.608,0,0.08,0
1,0,1,5,1.008,1.276,0,0.08,0
1,1,1,4,1.132,0.867,0,0.09,0
1,1,1,3,0.637,1.33,1,0.08,0
1,0,1,4,0.923,1.284,0,0.09,0
1,1,1,4,1.23,1.434,0,0.1,0
1,0,0,5,1.691,0.732,1,0.08,0
1,1,0,4,0.647,1.753,0,0.1,0
1,1,1,3,0.553,1.7,1,0.09,0
1,0,1,4,0.758,1.227,0,0.11,0
1,1,1,2,0.926,1.172,0,0.12,0
1,1,1,4,1.017,0.781,0,0.12,0
1,0,0,4,0.788,1.503,1,0.09,0
1,1,0,4,0.773,1.424,1,0.1,0
1,1,1,4,0.705,1.187,0,0.11,0
1,1,1,2,1.195,1.402,1,0.1,0
1,1,0,3,0.578,1.069,1,0.11,0
1,0,1,3,0.856,0.947,0,0.11,0
1,0,1,3,1.123,1.324,0,0.12,0
1,1,1,3,1.396,1.324,1,0.12,0
1,0,0,3,16.164,2.425,1,0.12,0
1,0,1,4,0.581,1.397,1,0.11,0
1,0,0,4,0.64,1.089,0,0.13,0
1,1,1,4,0.644,1.172,0,0.13,0
1,0,0,4,0.884,0.74,1,0.11,0
1,1,0,3,0.903,1.739,0,0.12,0
1,0,1,4,0.956,1.184,1,0.12,0
1,0,1,4,0.742,0.768,0,0.13,0
1,0,0,4,0.732,1.307,1,0.13,0
1,0,0,6,0.519,1.828,0,0.14,0
1,0,0,3,0.646,0.758,0,0.14,0
1,1,1,4,0.73,0.678,0,0.13,0
1,0,0,6,0.657,0.859,0,0.13,0
1,1,1,6,0.74,1.187,0,0.12,0
1,0,0,4,0.725,1.383,1,0.13,0
1,0,1,6,0.789,0.841,1,0.12,0
1,0,1,4,1.121,1.257,0,0.12,0
1,1,1,2,0.652,1.187,1,0.13,0
1,1,1,6,0.654,0.624,1,0.14,0
1,1,0,4,2.038,1.138,1,0.14,0
1,1,1,4,0.828,1.214,1,0.13,0
1,1,1,5,0.88,0.765,0,0.13,0
1,0,0,4,0.592,1.433,0,0.13,0
1,1,1,5,0.587,1.636,1,0.13,0
1,1,1,5,1.144,1.938,1,0.12,0
1,1,1,5,0.639,1.82,1,0.12,0
1,0,0,6,0.592,1.141,1,0.13,0
1,1,1,1,1.152,0.699,1,0.13,0
1,1,1,6,0.684,0.781,0,0.12,0
1,0,0,6,0.594,3.719,0,0.12,0
1,0,0,6,0.629,0.791,1,0.12,0
1,1,1,6,0.583,0.791,1,0.12,0
1,1,1,5,0.64,1.394,0,0.11,0
1,1,1,4,0.817,1.357,0,0.11,0
1,1,0,5,0.649,0.814,0,0.1,0
1,0,0,4,0.728,1.492,1,0.11,0
1,0,0,4,0.609,0.892,0,0.11,0
1,0,1,4,2.204,0.908,0,0.11,0
1,0,1,4,0.632,0.755,0,0.12,0
1,1,1,4,1.069,0.999,0,0.13,0
1,0,0,5,0.69,0.937,0,0.13,0
1,0,0,4,0.597,1.042,1,0.11,0
1,0,0,4,0.584,1.442,1,0.1,0
1,0,0,6,0.584,0.675,1,0.11,0
1,0,0,5,0.63,1.097,0,0.12,0
1,1,1,6,0.936,1.789,0,0.12,0
1,1,1,5,0.572,0.944,1,0.11,0
1,0,0,4,0.524,0.97,1,0.12,0
1,0,0,4,0.875,0.973,1,0.13,0
1,1,1,4,0.621,0.837,0,0.11,0
1,1,1,6,0.717,0.689,0,0.11,0
1,0,0,6,0.892,1.342,0,0.1,0
1,0,0,4,1.206,1.007,1,0.13,0
1,1,1,4,0.705,0.942,0,0.1,0
1,1,0,3,0.785,0.899,0,0.09,0
1,1,1,4,0.81,1.323,1,0.12,0
1,1,1,5,0.737,1.377,1,0.12,0
1,1,1,4,0.949,0.847,0,0.1,0
1,0,0,3,0.655,1.288,0,0.1,0
1,0,1,5,1.123,0.938,0,0.09,0
1,0,0,3,0.588,1.316,1,0.11,0
1,0,0,5,0.566,0.986,1,0.11,0
1,1,1,5,0.723,1.645,0,0.1,0
1,1,1,4,1.128,1.214,1,0.1,0
1,1,1,6,0.597,2.757,1,0.1,0
1,0,1,3,1.877,0.866,0,0.1,0
1,0,0,2,1.325,0.862,0,0.11,0
1,1,0,3,1.058,0.872,1,0.09,0
1,1,1,4,0.789,0.682,1,0.1,0
1,0,0,5,0.613,0.707,0,0.11,0
1,0,0,5,0.594,1.326,1,0.1,0
1,0,0,5,0.644,0.673,0,0.1,0
1,1,1,6,0.862,1.537,0,0.1,0
1,0,0,4,0.754,1.161,1,0.09,0
1,1,1,5,0.605,0.73,1,0.1,0
1,1,1,4,0.596,1.258,1,0.1,0
1,0,0,5,0.743,1.342,0,0.09,0
1,1,1,6,0.707,0.769,0,0.09,0
1,1,1,5,0.683,0.792,0,0.08,0
1,0,0,5,0.661,1.608,0,0.08,0
1,1,1,5,7.149,2.882,1,0.11,0
1,1,0,2,3.671,1.093,1,0.11,0
1,1,0,4,0.794,1.421,0,0.07,0
1,0,0,5,0.888,1.568,1,0.1,0
1,0,0,5,0.705,0.794,0,0.08,0
1,1,1,3,0.667,0.711,0,0.08,0
1,0,0,2,4.997,3.058,1,0.1,0
1,0,0,4,0.549,1.397,1,0.09,0
1,1,1,4,0.665,1.292,0,0.07,0
1,0,1,5,1.327,1.525,1,0.09,0
1,0,1,5,0.62,1.11,1,0.08,0
1,0,0,4,0.592,1.335,0,0.07,0
1,1,0,1,1.759,0.727,0,0.06,0
1,0,0,5,0.622,1.509,0,0.07,0
1,0,1,5,0.677,0.719,1,0.08,0
1,0,0,4,0.646,1.035,0,0.07,0
1,0,1,2,0.739,1.866,1,0.07,0
1,1,1,4,0.661,0.807,0,0.06,0
1,0,0,5,0.642,0.859,0,0.06,0
1,0,1,5,0.695,1.554,1,0.08,0
1,1,1,5,0.563,1.587,1,0.08,0
1,1,1,1,1.24,0.772,1,0.07,0
1,1,1,4,0.994,0.984,0,0.05,0
1,0,0,2,0.605,0.69,1,0.07,0
1,1,1,4,1.456,1.315,1,0.06,0
1,1,1,3,0.833,1.135,0,0.05,0
1,1,1,4,0.944,0.986,0,0.04,0
1,0,0,4,0.739,0.957,1,0.07,0
1,1,1,4,0.629,1.339,0,0.04,0
1,0,1,4,0.831,1.229,0,0.03,0
1,0,0,3,0.795,1.28,1,0.07,0
1,1,0,4,0.568,0.825,0,0.04,0
1,0,0,2,0.655,2.558,0,0.05,0
1,1,1,6,0.568,1.309,1,0.06,0
1,0,1,4,0.606,0.991,0,0.05,0
1,1,1,5,0.678,1.085,0,0.06,0
1,1,1,5,2.47,1.208,1,0.06,0
1,0,0,4,0.6,1.054,1,0.05,0
1,1,1,5,0.997,0.151,1,0.05,0
1,0,0,6,0.628,0.726,0,0.06,0
1,0,1,5,0.651,1.023,0,0.05,0
1,1,0,2,0.575,1.119,1,0.04,0
1,0,0,4,0.593,1.288,0,0.06,0
1,0,0,2,2.705,0.937,1,0.04,0
1,0,0,4,0.807,1.407,1,0.03,0
1,0,1,4,0.747,0.868,1,0.04,0
1,0,0,4,0.648,0.69,0,0.06,0
1,1,0,1,0.779,2.207,1,0.05,0
1,1,1,5,0.82,1.923,0,0.05,0
1,1,0,6,0.311,1.987,0,0.05,0
1,1,1,6,1.436,1.052,1,0.05,0
1,1,1,5,0.544,1.309,1,0.06,0
1,1,0,6,0.628,1.304,1,0.06,0
1,0,1,1,0.851,0.531,1,0.05,0
1,1,1,5,0.845,0.69,0,0.06,0
1,1,1,5,0.784,1.155,0,0.06,0
1,0,1,2,0.792,0.858,1,0.06,0
1,0,0,6,0.582,2.447,0,0.05,0
1,0,1,2,1.19,0.924,0,0.05,0
1,1,1,4,0.724,1.216,0,0.06,0
1,0,1,5,0.604,0.997,1,0.06,0
1,1,0,1,0.548,1.417,1,0.05,0
1,0,0,4,0.628,0.881,1,0.05,0
1,0,0,3,0.614,1.685,1,0.06,0
1,0,0,4,0.712,1.058,0,0.06,0
1,0,1,3,1.248,0.966,1,0.06,0
1,0,0,4,1.222,1.411,1,0.05,0
1,1,0,1,0.88,1.38,0,0.05,0
1,1,0,3,2.176,1.639,1,0.05,0
1,1,1,3,1.027,1.208,1,0.06,0
1,1,1,4,0.956,0.675,0,0.06,0
1,1,0,5,0.538,1.483,1,0.06,0
1,0,0,4,0.605,0.922,0,0.06,0
1,0,0,2,0.618,1.672,1,0.05,0
1,0,0,6,0.566,0.837,1,0.06,0
1,1,1,5,1.555,1.025,1,0.06,0
1,0,1,4,0.912,0.892,0,0.05,0
1,1,0,5,0.707,0.751,0,0.06,0
1,1,0,4,0.646,0.716,0,0.07,0
1,1,1,4,0.975,0.808,1,0.05,0
1,0,0,4,0.669,0.575,0,0.08,0
1,1,1,6,0.716,0.839,1,0.06,0
1,0,1,5,1.25,0.954,0,0.08,0
1,1,0,4,0.833,1.289,1,0.07,0
1,1,1,4,0.592,0.763,0,0.09,0
1,0,0,4,0.593,0.89,1,0.08,0
1,0,0,4,0.671,1.541,0,0.09,0
1,0,0,5,0.598,0.721,0,0.08,0
1,1,1,4,0.863,1.215,0,0.08,0
1,1,1,5,0.706,1.385,1,0.08,0
1,0,0,4,0.651,0.991,0,0.07,0
1,1,1,5,0.706,0.706,0,0.07,0
2,1,1,6,0.726,1.489,0,0.07,0
2,0,0,4,0.954,1.228,1,0.07,0
2,0,1,5,0.826,0.036,1,0.07,0
2,0,0,5,0.723,1.287,0,0.07,0
2,1,1,2,0.995,1.845,0,0.06,0
2,1,0,3,1.304,1.353,1,0.07,0
2,0,1,4,1.16,1.443,1,0.06,0
2,0,1,4,1.215,1.441,0,0.06,0
2,1,0,6,0.94,0.035,0,0.07,0
2,0,1,5,0.945,1.87,1,0.06,0
2,0,1,5,0.959,1.429,0,0.08,0
2,0,0,6,1.013,2.345,0,0.09,0
2,1,0,4,1.321,1.459,1,0.07,0
2,0,0,5,0.742,1.751,0,0.09,0
2,1,1,5,0.675,1.791,1,0.08,0
2,0,1,4,1.945,1.569,0,0.08,0
2,1,1,4,1.291,1.543,0,0.09,0
2,0,1,3,0.98,1.304,0,0.09,0
2,0,1,1,1.723,2.526,1,0.09,0
2,1,1,6,0.864,1.86,0,0.1,0
2,0,0,2,1.884,1.239,1,0.09,0
2,1,1,6,0.912,1.824,1,0.08,0
2,1,0,4,1.121,1.39,0,0.1,0
2,1,0,5,1.156,1.021,1,0.09,0
2,0,0,3,1.443,1.791,1,0.09,0
2,1,1,4,0.817,1.321,1,0.1,0
2,1,1,6,0.663,1.409,0,0.11,0
2,1,1,5,1.022,1.991,0,0.11,0
2,0,1,4,0.737,1.793,1,0.1,0
2,1,1,4,0.965,2.042,1,0.11,0
2,0,1,5,0.871,1.609,1,0.11,0
2,1,0,5,1.14,1.51,1,0.11,0
2,1,1,5,0.859,2.243,1,0.11,0
2,0,0,6,0.635,1.978,0,0.1,0
2,0,0,6,1.602,1.355,1,0.1,0
2,0,0,5,0.938,1.506,0,0.1,0
2,0,1,5,0.933,1.143,0,0.09,0
2,1,0,3,1.326,1.61,0,0.1,0
2,1,0,5,1.072,0.926,1,0.1,0
2,1,1,4,1.22,1.47,0,0.11,0
2,1,1,5,0.759,1.691,0,0.11,0
2,0,0,5,0.645,0.176,0,0.1,0
2,1,1,5,0.622,1.389,0,0.1,0
2,0,0,5,0.688,1.341,1,0.09,0
2,1,1,5,1.589,1.655,1,0.1,0
2,0,1,5,1.012,1.093,0,0.09,0
2,1,0,5,0.937,1.247,1,0.11,0
2,0,1,6,1.084,0.113,0,0.1,0
2,0,1,2,1.045,1.609,0,0.11,0
2,1,0,4,1.222,1.325,1,0.11,0
2,0,1,5,0.94,2.62,1,0.1,0
2,0,1,3,0.94,1.933,1,0.1,0
2,0,1,2,0.905,2.44,1,0.09,0
2,1,1,6,0.955,1.924,0,0.12,0
2,1,1,5,0.79,1.529,0,0.12,0
2,0,0,6,0.602,0.889,0,0.11,0
2,1,1,4,1.155,1.309,1,0.1,0
2,0,1,2,1.002,2.04,1,0.11,0
2,1,1,5,0.606,1.476,1,0.12,0
2,0,0,4,0.76,1.127,0,0.11,0
2,0,0,5,0.968,1.309,1,0.12,0
2,1,1,5,1.084,1.262,0,0.1,0
2,1,1,6,0.706,1.853,1,0.11,0
2,1,1,6,0.753,0.911,1,0.11,0
2,1,1,6,0.811,1.788,0,0.1,0
2,0,1,4,0.871,1.373,1,0.1,0
2,0,0,5,0.619,1.775,0,0.09,0
2,1,1,5,0.799,1.723,0,0.09,0
2,0,1,4,0.848,2.139,0,0.08,0
2,0,1,6,0.793,1.427,0,0.09,0
2,1,1,4,0.915,1.775,1,0.1,0
2,1,1,6,1.018,2.306,0,0.1,0
2,0,0,5,0.905,0.943,1,0.09,0
2,1,1,3,1.721,2.776,0,0.1,0
2,1,1,4,0.752,1.208,1,0.09,0
2,1,1,6,0.967,1.539,1,0.08,0
2,0,1,5,0.826,2.722,1,0.09,0
2,0,1,3,0.85,1.91,0,0.09,0
2,1,1,3,0.906,1.837,0,0.1,0
2,0,0,6,1.473,1.448,1,0.1,0
2,0,1,4,1.329,2.019,1,0.1,0
2,0,0,5,1.214,1.213,1,0.09,0
2,1,0,5,1.509,2.222,1,0.1,0
2,1,1,5,1.036,1.779,0,0.1,0
2,1,1,3,0.86,1.506,1,0.1,0
2,1,1,6,0.739,1.501,0,0.09,0
2,0,0,2,0.952,1.27,1,0.09,0
2,0,0,4,1.157,1.355,0,0.09,0
2,0,1,3,1.341,1.644,1,0.09,0
2,0,1,4,1.734,2.007,0,0.08,0
2,0,0,4,1.927,1.833,0,0.09,0
2,1,1,5,0.717,1.326,1,0.08,0
2,0,0,6,0.914,0.862,1,0.09,0
2,1,0,3,1.312,1.591,0,0.09,0
2,0,1,4,0.754,1.345,0,0.1,0
2,0,0,6,1.098,1.843,1,0.09,0
2,0,1,5,1.007,1.473,0,0.11,0
2,1,0,3,1.252,1.94,0,0.12,0
2,1,1,5,2.422,1.971,1,0.1,0
2,0,0,5,0.633,1.906,0,0.13,0
2,1,1,3,1.168,1.752,1,0.11,0
2,1,0,5,1.114,1.528,1,0.12,0
2,0,0,4,1.154,1.585,1,0.13,0
2,1,1,5,0.757,1.413,0,0.13,0
2,1,1,6,0.92,1.786,1,0.13,0
2,1,1,5,0.633,1.375,0,0.12,0
2,0,0,3,1.155,1.453,1,0.12,0
2,1,1,6,0.691,1.47,1,0.12,0
2,0,1,5,1.175,2.005,0,0.12,0
2,0,1,5,1.387,1.395,1,0.12,0
2,0,0,5,1.5,1.661,0,0.13,0
2,1,1,5,1.154,1.541,1,0.13,0
2,0,0,6,0.681,1.745,1,0.13,0
2,1,0,5,1.48,1.472,0,0.13,0
2,1,1,6,0.754,1.927,0,0.14,0
2,0,0,5,1.947,1.191,0,0.14,0
2,1,1,6,0.722,1.718,0,0.13,0
2,0,1,3,0.803,1.253,0,0.13,0
2,1,1,5,0.947,1.239,0,0.14,0
2,1,0,1,0.91,1.954,1,0.13,0
2,1,1,5,1.059,1.354,0,0.14,0
2,0,1,3,1.249,0.936,0,0.13,0
2,1,0,4,0.89,2.107,1,0.14,0
2,0,1,4,1.765,1.314,0,0.14,0
2,0,0,5,0.604,1.441,0,0.15,0
2,0,1,5,1.305,1.558,1,0.14,0
2,1,0,6,2.073,1.375,0,0.15,0
2,0,0,5,1.029,1.661,0,0.16,0
2,0,1,6,0.836,1.473,0,0.16,0
2,1,1,6,0.84,1.401,1,0.13,0
2,0,0,5,0.589,0.781,1,0.13,0
2,1,0,1,1.572,1.902,0,0.17,0
2,1,1,6,0.741,1.024,0,0.18,0
2,1,1,5,0.612,2.013,1,0.14,0
2,0,0,3,1.639,2.009,0,0.18,0
2,1,1,6,0.847,2.009,1,0.14,0
2,0,0,4,0.737,1.22,0,0.17,0
2,0,1,4,2.154,1.503,1,0.13,0
2,0,0,5,0.894,1.305,0,0.17,0
2,0,1,2,0.89,1.747,1,0.14,0
2,1,1,6,0.582,1.458,0,0.16,0
2,0,0,6,0.62,1.023,1,0.15,0
2,1,0,5,0.975,2.421,1,0.15,0
2,1,1,6,1.456,1.451,0,0.16,0
2,1,1,6,0.773,1.789,1,0.16,0
2,1,1,5,0.752,1.675,0,0.15,0
2,1,1,3,1.143,1.071,1,0.16,0
2,1,0,5,1.34,1.509,0,0.15,0
2,0,0,6,0.858,1.205,1,0.17,0
2,0,0,5,1.373,1.192,0,0.16,0
2,1,1,6,0.698,0.942,1,0.18,0
2,1,1,5,1.023,1.244,0,0.16,0
2,0,0,5,0.636,1.382,1,0.18,0
2,0,1,2,0.631,1.481,0,0.15,0
2,0,0,6,0.666,0.971,1,0.17,0
2,0,1,4,1.895,1.066,1,0.17,0
2,1,1,6,0.955,1.46,0,0.16,0
2,0,0,5,1.068,1.607,1,0.16,0
2,1,0,5,1.229,2.021,1,0.16,0
2,1,1,6,0.817,0.14,1,0.15,0
2,1,0,2,1.39,1.889,1,0.15,0
2,1,1,6,0.822,1.088,0,0.16,0
2,0,0,6,0.598,1.578,0,0.15,0
2,1,1,5,0.723,0.777,1,0.16,0
2,0,0,5,0.657,1.855,1,0.16,0
2,0,0,6,1.455,1.166,1,0.15,0
2,1,1,5,0.554,1.51,1,0.16,0
2,1,0,5,0.921,1.162,0,0.15,0
2,0,1,3,2.405,1.226,1,0.16,0
2,0,0,6,0.653,1.126,0,0.16,0
2,1,1,6,0.67,1.319,0,0.16,0
2,1,1,5,0.977,1.624,0,0.15,0
2,1,1,4,0.688,1.242,0,0.15,0
2,0,0,6,0.633,1.044,0,0.14,0
2,0,1,5,0.744,1.308,1,0.15,0
2,1,1,6,0.79,2.634,0,0.14,0
2,0,1,5,1.03,1.927,0,0.13,0
2,1,1,6,0.719,2.374,1,0.15,0
2,1,1,5,0.891,2.305,0,0.14,0
2,1,1,6,0.835,0.841,1,0.16,0
2,1,1,3,0.79,1.538,1,0.16,0
2,0,0,5,2.304,1.608,0,0.14,0
2,0,0,6,0.78,1.705,1,0.15,0
2,1,1,5,1.479,2.483,1,0.15,0
2,1,1,6,0.686,1.259,1,0.14,0
2,0,1,3,1.101,1.457,0,0.13,0
2,0,0,5,1.238,1.404,0,0.14,0
2,1,1,3,1.791,1.602,1,0.14,0
2,0,0,4,0.586,1.158,0,0.14,0
2,0,0,4,1.793,1.737,1,0.13,0
2,0,0,2,1.185,1.74,1,0.14,0
2,1,1,6,0.77,2.038,0,0.13,0
2,0,1,4,1.021,1.155,1,0.14,0
2,1,1,6,0.786,1.419,0,0.13,0
2,0,0,5,0.591,1.578,0,0.12,0
2,0,0,4,1.605,1.237,1,0.13,0
2,1,1,5,1.103,1.569,0,0.12,0
2,1,1,6,0.871,1.69,1,0.14,0
2,0,0,6,0.999,1.537,0,0.11,0
2,0,0,6,1.26,1.193,1,0.14,0
3,0,1,5,1.399,1.233,0,0.07,0
3,1,1,6,0.85,1.998,1,0.07,0
3,0,1,5,1.415,1.747,1,0.07,0
3,0,0,6,0.961,1.661,1,0.07,0
3,1,1,2,0.912,2.081,1,0.07,0
3,1,0,4,0.844,2.391,1,0.07,0
3,1,0,4,0.883,0.937,1,0.07,0
3,0,0,3,3.306,1.15,1,0.07,0
3,1,1,5,1.062,1.583,0,0.08,0
3,0,1,6,0.793,1.745,0,0.08,0
3,1,0,5,0.739,1.416,0,0.09,0
3,1,0,5,3.563,2.793,1,0.08,0
3,0,0,6,1.104,1.827,0,0.1,0
3,1,1,5,0.733,1.679,0,0.1,0
3,0,NA,NA,1.267,0.001,1,0.08,1
3,1,NA,NA,1.106,0.001,0,0.09,1
3,1,NA,NA,0.613,0,1,0.08,1
3,0,NA,NA,0.858,0,0,0.09,1
3,1,NA,NA,0.818,0,0,0.09,1
3,1,NA,NA,0.943,0,0,0.09,1
3,0,NA,NA,0.7,0.001,1,0.08,1
3,1,NA,NA,1.048,0,1,0.08,1
3,1,NA,NA,0.892,0,0,0.09,1
3,1,NA,NA,0.57,0.001,1,0.08,1
3,1,NA,NA,0.777,0,1,0.08,1
3,0,NA,NA,0.811,0,0,0.09,1
3,0,NA,NA,0.692,0.001,0,0.09,1
3,1,NA,NA,1.891,0.001,1,0.08,1
3,0,0,6,1.203,1.96,1,0.08,0
3,0,0,6,0.69,1.999,1,0.09,0
3,0,0,5,0.82,1.051,0,0.09,0
3,1,1,4,1.525,1.085,0,0.09,0
3,0,0,6,0.831,2.731,1,0.1,0
3,1,1,5,1.297,1.391,0,0.08,0
3,0,0,3,0.65,0.972,1,0.1,0
3,0,1,6,0.803,0.68,0,0.08,0
3,0,0,4,3.264,0.941,1,0.09,0
3,0,1,5,1.215,1.548,0,0.09,0
3,0,1,6,0.761,1.446,0,0.1,0
3,1,1,6,0.747,1.571,0,0.11,0
3,0,1,5,2.124,1.633,0,0.11,0
3,1,1,5,0.672,1.614,0,0.12,0
3,0,1,6,0.725,1.132,1,0.09,0
3,0,0,4,0.865,1.147,1,0.09,0
3,0,0,6,0.699,1.258,0,0.12,0
3,1,1,3,0.823,3.544,1,0.08,0
3,1,0,4,0.931,1.764,1,0.08,0
3,1,1,4,0.816,1.398,1,0.09,0
3,1,1,5,0.96,1.864,1,0.1,0
3,1,1,2,2.016,2.815,0,0.11,0
3,0,0,6,1.715,1.886,0,0.11,0
3,1,1,2,1.491,4.579,1,0.11,0
3,1,1,6,0.992,1.482,1,0.11,0
3,1,0,6,1.999,1.096,1,0.12,0
3,0,1,6,0.753,1.366,1,0.12,0
3,1,0,6,0.833,0.731,1,0.11,0
3,1,0,1,0.974,2.279,0,0.1,0
3,0,1,1,1.042,1.729,0,0.11,0
3,0,1,2,0.664,1.387,1,0.11,0
3,1,1,5,0.757,1.12,1,0.1,0
3,1,1,6,0.998,1.292,0,0.12,0
3,1,1,6,0.893,0.668,0,0.12,0
3,1,1,3,1.076,1.467,0,0.11,0
3,0,0,1,0.744,1.342,1,0.11,0
3,0,1,2,0.558,2.311,0,0.11,0
3,0,0,1,1.742,1.267,0,0.12,0
3,0,1,5,0.695,2.047,0,0.12,0
3,1,1,4,0.878,0.933,0,0.13,0
3,0,1,5,0.913,1.506,0,0.13,0
3,0,1,5,0.66,0.94,1,0.12,0
3,0,0,6,1.008,2.125,1,0.12,0
3,0,1,5,0.961,2.381,1,0.11,0
3,0,0,5,2.08,1.1,0,0.14,0
3,1,1,2,1.563,1.328,0,0.14,0
3,1,0,3,0.926,2.275,1,0.11,0
3,0,1,1,3.711,1.631,1,0.12,0
3,0,1,1,1.149,1.676,1,0.12,0
3,1,1,6,0.8,1.496,0,0.13,0
3,1,1,5,0.768,2.034,0,0.13,0
3,0,0,2,1.172,1.814,0,0.12,0
3,0,NA,NA,1.516,0,1,0.13,1
3,1,NA,NA,1.441,0.001,0,0.12,1
3,1,NA,NA,1.862,0.001,0,0.12,1
3,1,NA,NA,0.662,0,1,0.13,1
3,1,NA,NA,0.564,0.001,1,0.13,1
3,1,NA,NA,0.866,0,0,0.12,1
3,0,NA,NA,0.474,0,0,0.12,1
3,0,NA,NA,0.459,0,0,0.12,1
3,0,NA,NA,0.475,0,1,0.13,1
3,0,NA,NA,0.958,0,1,0.13,1
3,1,1,6,1.295,2.094,0,0.12,0
3,1,1,1,2.28,1.644,1,0.13,0
3,1,0,1,0.964,1.661,1,0.13,0
3,0,1,3,0.588,1.481,0,0.11,0
3,0,0,2,0.748,1.413,0,0.12,0
3,1,1,1,5.469,0.85,1,0.13,0
3,1,1,2,1.73,1.084,1,0.14,0
3,0,0,3,1.521,1.622,0,0.12,0
3,0,1,4,1.656,1.85,1,0.14,0
3,0,1,6,1.456,1.746,0,0.11,0
3,1,0,1,0.603,1.09,0,0.12,0
3,0,1,3,0.889,1.693,1,0.13,0
3,1,1,1,0.975,1.015,1,0.13,0
3,1,0,4,0.961,3.415,1,0.12,0
3,0,0,3,0.945,1.175,0,0.13,0
3,1,1,6,0.703,1.198,0,0.13,0
3,1,1,2,0.792,1.928,0,0.12,0
3,0,0,2,0.926,1.383,0,0.12,0
3,1,1,2,0.767,1.256,1,0.12,0
3,1,0,1,2.678,1.246,1,0.11,0
3,1,0,2,0.607,1.695,0,0.11,0
3,0,0,1,1.111,0.667,1,0.12,0
3,0,1,4,2.537,0.373,0,0.12,0
3,1,1,6,0.777,0.909,0,0.13,0
3,0,1,6,0.645,1.229,1,0.12,0
3,0,0,2,0.801,0.701,1,0.11,0
3,1,1,5,1.004,1.067,0,0.13,0
3,0,0,3,3.542,1.612,1,0.12,0
3,0,1,2,0.74,1.758,1,0.13,0
3,0,1,6,0.643,1.232,0,0.12,0
3,1,NA,NA,1.323,0.001,0,0.13,1
3,0,1,5,1.625,0.867,0,0.13,0
3,0,0,2,1.12,1.03,1,0.13,0
3,0,1,4,1.849,1.482,0,0.14,0
3,0,1,3,0.661,1.011,1,0.12,0
3,1,1,6,0.644,0.651,0,0.15,0
3,0,1,6,0.672,1.061,0,0.15,0
3,0,1,3,1.476,1.649,1,0.12,0
3,1,1,3,1.49,0.793,1,0.11,0
3,1,1,6,0.943,1.367,1,0.12,0
3,1,0,3,0.592,0.744,0,0.16,0
3,0,0,6,0.863,0.616,1,0.13,0
3,1,1,1,0.939,1.137,1,0.13,0
3,1,1,5,0.981,1.282,0,0.17,0
3,1,1,3,0.667,0.951,0,0.17,0
3,0,1,3,2.208,0.283,1,0.12,0
3,1,1,6,0.607,1.084,0,0.16,0
3,0,1,6,0.904,1.782,0,0.16,0
3,0,0,1,1.617,1.408,1,0.13,0
3,1,1,6,0.593,0.746,0,0.17,0
3,0,1,6,0.65,0.67,0,0.17,0
3,1,0,2,0.585,0.73,1,0.13,0
3,0,0,4,1.758,1.66,0,0.18,0
3,1,1,4,0.628,0.707,0,0.18,0
3,1,1,2,0.977,1.912,1,0.14,0
3,0,0,5,1.022,1.228,1,0.15,0
3,1,0,4,1.817,0.71,1,0.15,0
3,0,0,2,0.863,1.189,0,0.17,0
3,0,1,6,0.763,1.165,0,0.17,0
3,1,1,6,0.541,0.634,1,0.16,0
3,0,0,3,0.853,1.851,0,0.18,0
3,0,1,1,0.651,2.366,1,0.17,0
3,0,1,1,1.386,0.712,1,0.17,0
3,0,1,3,2.431,0.732,1,0.16,0
3,0,1,4,0.615,1.299,0,0.18,0
3,1,1,2,1.785,1.432,1,0.16,0
3,1,1,3,0.598,0.729,0,0.19,0
3,1,1,6,0.608,1.148,0,0.19,0
3,1,1,1,0.75,2.185,1,0.17,0
3,1,1,6,0.592,1.198,1,0.17,0
3,1,NA,NA,0.694,0,1,0.18,1
3,0,NA,NA,0.001,0.586,1,0.18,1
3,1,NA,NA,1.578,0.001,0,0.18,1
3,1,NA,NA,0.513,0,0,0.18,1
3,0,NA,NA,1.352,0,1,0.18,1
3,0,0,6,1.159,2.412,0,0.18,0
3,0,0,6,0.956,1.932,0,0.18,0
3,1,0,5,0.786,1.951,0,0.17,0
3,0,1,3,1.073,1.147,1,0.18,0
3,1,1,5,0.692,1.234,1,0.17,0
3,0,1,4,0.992,0.718,1,0.17,0
3,0,0,2,0.772,1.798,1,0.18,0
3,0,0,1,0.799,1.846,0,0.18,0
3,0,1,1,2.118,0.699,1,0.18,0
3,0,0,6,0.531,1.266,1,0.19,0
3,1,1,6,0.773,1.133,0,0.18,0
3,1,1,5,1.223,1.031,1,0.19,0
3,1,1,2,0.838,1.174,1,0.18,0
3,1,1,3,0.616,1.049,0,0.17,0
3,1,1,6,0.592,0.811,1,0.18,0
3,0,0,6,0.628,0.751,0,0.17,0
3,0,1,6,0.724,0.827,1,0.18,0
3,0,0,5,0.706,1.032,1,0.17,0
3,1,1,4,1.426,1.132,1,0.18,0
3,0,0,6,0.655,1.172,0,0.16,0
3,1,1,2,0.71,4.042,0,0.16,0
3,1,1,6,0.527,1.555,0,0.15,0
3,1,1,6,0.609,0.798,1,0.18,0
3,0,1,6,0.699,1.782,0,0.15,0
3,1,1,5,0.553,0.893,1,0.17,0
3,0,1,2,0.744,2.477,0,0.16,0
3,1,1,5,2.291,2.088,1,0.17,0
3,1,1,4,0.699,1.052,0,0.17,0
3,0,1,5,1.275,1.628,1,0.16,0
3,0,0,4,0.75,1.807,0,0.17,0
3,0,1,4,1.984,1.863,0,0.16,0
3,1,1,2,0.641,0.983,0,0.17,0
3,1,1,2,0.678,1.366,1,0.16,0
3,0,0,1,1.559,1.732,0,0.17,0
3,1,1,3,0.741,1.803,0,0.16,0
4,0,0,4,1.53,2.872,0,0.07,0
4,0,0,3,1.584,1.809,1,0.07,0
4,0,1,4,1.694,2.857,1,0.07,0
4,1,0,1,4.423,2.221,1,0.07,0
4,0,0,1,2.738,1.679,0,0.07,0
4,1,0,2,2.326,1.212,1,0.07,0
4,0,0,2,3.476,1.762,1,0.07,0
4,1,0,3,0.658,1.558,0,0.06,0
4,0,1,3,1.938,0.847,1,0.06,0
4,1,0,4,0.951,1.107,1,0.06,0
4,1,0,3,3.422,1.501,1,0.06,0
4,1,1,2,4.407,0.987,1,0.06,0
4,0,1,2,3.304,1.076,0,0.07,0
4,1,1,4,1.311,1.49,0,0.08,0
4,1,0,3,0.659,1.375,0,0.08,0
4,0,0,4,1.459,3.627,0,0.09,0
4,1,0,2,1.19,1.575,0,0.09,0
4,1,0,3,1.272,1.205,1,0.07,0
4,1,0,4,0.758,1.197,0,0.1,0
4,1,1,3,1.739,1.508,1,0.08,0
4,1,1,3,3.195,1.853,0,0.11,0
4,0,1,5,1.468,1.349,1,0.08,0
4,0,0,5,0.909,1.582,0,0.11,0
4,0,0,2,2.272,4.022,0,0.1,0
4,0,0,2,4.738,2.327,0,0.1,0
4,0,1,3,2.699,1.243,0,0.09,0
4,0,1,2,4.57,1.66,1,0.09,0
4,1,0,5,0.803,2.159,0,0.1,0
4,0,0,6,0.816,1.073,0,0.11,0
4,1,0,3,0.795,1.344,0,0.11,0
4,1,0,4,0.992,1.044,1,0.09,0
4,1,1,5,0.882,3.275,0,0.12,0
4,0,1,3,1.484,1.707,1,0.1,0
4,1,1,4,1.26,2.751,1,0.11,0
4,1,1,4,1.421,6.84,1,0.11,0
4,1,1,3,1.757,2.568,0,0.12,0
4,0,0,5,0.693,1.909,1,0.1,0
4,0,0,5,0.719,1.124,0,0.11,0
4,0,0,4,0.893,1.31,1,0.1,0
4,0,0,4,1.473,3.335,1,0.09,0
4,0,0,3,2.52,6.163,0,0.11,0
4,1,1,4,0.662,2.528,1,0.1,0
4,0,0,3,0.778,2.578,1,0.11,0
4,0,0,4,0.704,4.01,1,0.11,0
4,0,0,5,0.617,0.967,0,0.1,0
4,1,1,2,1.501,1.201,0,0.1,0
4,0,0,3,1.308,1.179,1,0.12,0
4,1,0,2,2.969,3.447,0,0.09,0
4,1,1,3,1.484,1.294,0,0.1,0
4,1,1,3,0.769,1.731,1,0.12,0
4,1,1,4,0.768,0.978,1,0.11,0
4,0,0,5,0.828,2.093,0,0.1,0
4,1,0,4,1.035,1.658,0,0.09,0
4,1,0,5,0.79,0.794,1,0.11,0
4,1,1,3,1.868,1.895,0,0.1,0
4,1,1,4,0.919,1.563,1,0.1,0
4,1,1,3,0.876,2.041,0,0.1,0
4,0,1,4,0.692,1.159,1,0.1,0
4,0,0,5,0.935,2.003,1,0.09,0
4,1,0,3,1.142,1.818,1,0.1,0
4,1,0,2,2.231,1.537,1,0.1,0
4,1,1,4,1.009,1.571,0,0.09,0
4,0,0,5,0.826,0.879,1,0.09,0
4,1,0,2,6.079,1.821,0,0.09,0
4,1,1,5,0.643,1.97,0,0.1,0
4,0,1,4,2.152,1.445,0,0.1,0
4,0,1,5,0.707,1.183,0,0.11,0
4,0,0,2,3.423,1.288,0,0.12,0
4,0,0,6,1.351,4.988,1,0.1,0
4,0,0,6,0.635,2.874,1,0.1,0
4,1,0,3,0.937,2.67,0,0.12,0
4,0,0,5,0.719,1.802,0,0.13,0
4,0,0,4,1.263,1.672,0,0.13,0
4,1,1,1,3.784,0.767,1,0.09,0
4,1,0,5,0.854,1.152,1,0.09,0
4,1,0,3,1.053,1.299,1,0.1,0
4,0,0,3,0.878,3.66,1,0.1,0
4,0,0,1,2.615,1.077,0,0.12,0
4,0,0,6,1.435,2.781,1,0.11,0
4,0,1,4,1.773,3.099,0,0.12,0
4,0,0,4,1.01,1.885,0,0.13,0
4,1,1,3,0.895,5.778,0,0.13,0
4,1,1,2,2.669,1.458,1,0.12,0
4,0,1,3,2.373,2.837,0,0.12,0
4,1,0,4,0.689,1.593,1,0.12,0
4,1,0,3,0.652,4.8,1,0.13,0
4,1,0,3,0.669,3.54,1,0.13,0
4,1,1,4,0.735,3.206,0,0.13,0
4,1,1,2,3.194,1.478,0,0.13,0
4,0,0,6,0.654,1.258,1,0.12,0
4,0,0,5,0.68,1.64,1,0.12,0
4,0,0,3,2.184,0.964,0,0.12,0
4,1,1,4,1.308,0.845,0,0.12,0
4,1,1,3,1.182,2.153,0,0.11,0
4,0,0,2,2.472,1.834,0,0.11,0
4,1,0,2,1.823,2.76,1,0.13,0
4,0,0,6,0.672,1.709,0,0.1,0
4,1,1,5,0.773,1.762,0,0.1,0
4,1,1,1,2.044,3.808,0,0.09,0
4,0,0,2,1.569,2.901,0,0.09,0
4,0,0,2,3.2,1.826,0,0.08,0
4,0,0,4,0.769,0.67,0,0.08,0
4,0,1,3,2.484,1.622,1,0.13,0
4,1,0,4,0.769,1.683,1,0.12,0
4,0,0,5,0.72,1.326,1,0.13,0
4,1,1,3,2.37,0.76,0,0.07,0
4,1,0,6,0.701,1.221,1,0.13,0
4,0,0,5,0.738,1.204,0,0.07,0
4,0,1,3,4.183,2.691,1,0.12,0
4,1,0,2,3.306,1.511,1,0.12,0
4,1,1,6,0.839,0.742,1,0.11,0
4,0,0,4,0.788,1.834,0,0.06,0
4,0,0,3,1.477,2.025,1,0.11,0
4,1,1,1,1.736,1.367,1,0.1,0
4,1,1,2,0.917,1.281,0,0.06,0
4,0,1,3,2.841,1.165,1,0.1,0
4,0,0,4,1.453,1.154,1,0.09,0
4,0,1,5,1.167,3.594,1,0.09,0
4,0,0,5,1.123,2.445,1,0.08,0
4,1,1,1,1.99,0.895,0,0.05,0
4,1,0,4,1.153,1.759,0,0.05,0
4,1,1,1,2.604,1.411,0,0.06,0
4,0,0,4,0.817,1.309,1,0.08,0
4,1,0,3,0.95,1.557,1,0.07,0
4,1,1,3,4.153,3.292,1,0.07,0
4,0,0,3,0.687,1.762,0,0.06,0
4,1,0,5,0.769,1.228,0,0.05,0
4,0,0,4,0.773,1.924,0,0.06,0
4,0,0,3,1.649,1.71,0,0.06,0
4,1,1,3,1.996,1.467,1,0.06,0
4,1,1,1,2.956,1.574,1,0.06,0
4,1,0,5,0.787,2.732,0,0.05,0
4,0,0,2,1.318,1.535,0,0.06,0
4,0,0,5,0.792,1.085,0,0.06,0
4,0,0,5,0.94,2.637,0,0.05,0
4,1,1,3,1.394,2.99,0,0.05,0
4,0,0,6,1.954,0.995,1,0.05,0
4,0,1,4,1.34,1.639,1,0.05,0
4,1,0,3,1.393,1.316,1,0.06,0
4,1,0,2,1.733,0.823,0,0.04,0
4,1,0,1,3.104,0.821,1,0.06,0
4,0,0,2,2.324,0.868,1,0.05,0
4,0,NA,NA,6.106,0.001,0,0.05,1
4,1,0,2,2.417,2.114,1,0.06,0
4,0,0,3,3.634,3.486,0,0.05,0
4,0,0,4,0.719,1.783,1,0.06,0
4,0,0,6,0.755,2.303,1,0.05,0
4,1,1,3,1.515,1.255,0,0.05,0
4,0,1,4,0.695,1.431,0,0.04,0
4,0,0,5,0.726,1.442,1,0.06,0
4,1,1,4,1.88,1.574,1,0.06,0
4,1,0,4,1.241,1.341,1,0.05,0
4,0,0,4,1.855,1.793,1,0.05,0
4,1,1,1,1.903,0.93,0,0.05,0
4,1,1,3,0.862,1.106,0,0.05,0
4,0,1,1,1.95,1.411,1,0.04,0
4,1,1,6,0.604,1.049,1,0.05,0
4,0,1,2,4.127,2.857,1,0.05,0
4,1,0,1,4.579,3.469,0,0.04,0
4,0,1,4,0.896,1.145,0,0.05,0
4,0,1,3,1.338,3.957,0,0.06,0
4,0,0,3,0.724,9.958,1,0.04,0
4,1,0,1,1.787,4.308,1,0.05,0
4,0,1,2,2.31,0.618,0,0.07,0
4,1,0,2,0.673,2.389,0,0.08,0
4,1,1,4,1.15,1.044,0,0.09,0
4,1,1,3,1.377,1.91,1,0.05,0
4,1,1,2,1.674,1.079,1,0.04,0
4,0,0,5,0.716,3.143,0,0.09,0
4,0,0,6,1.407,1.911,0,0.08,0
4,1,1,3,0.719,1.145,1,0.05,0
4,1,1,2,2.163,2.554,0,0.08,0
4,0,0,4,0.62,1.658,0,0.07,0
4,0,0,3,0.924,0.712,1,0.06,0
4,1,0,5,0.989,1.279,0,0.07,0
4,0,0,4,0.738,1.876,1,0.07,0
4,1,0,2,1.249,0.977,1,0.08,0
4,0,1,2,1.306,2.34,1,0.09,0
4,1,0,5,0.741,2.189,1,0.09,0
4,1,1,2,0.699,2.094,0,0.08,0
4,1,1,1,2.124,1.04,0,0.08,0
4,0,0,1,1.514,1.885,1,0.08,0
4,0,1,3,4.153,2.628,1,0.08,0
4,0,1,3,0.685,1.386,0,0.07,0
4,1,1,1,3.126,0.644,1,0.07,0
4,0,1,4,0.751,0.997,1,0.07,0
4,0,1,5,0.645,1.068,1,0.08,0
4,1,0,4,1.029,1.451,1,0.08,0
4,1,1,2,5.239,0.752,0,0.08,0
4,1,1,3,2.566,2.067,0,0.08,0
4,0,0,1,2.13,1.66,0,0.07,0
4,1,1,5,0.745,0.911,0,0.07,0
4,0,0,5,0.904,1.162,1,0.07,0
4,1,1,4,0.899,1.083,1,0.08,0
4,0,0,2,1.205,2.458,1,0.08,0
4,0,1,4,1.215,1.836,0,0.06,0
4,0,1,3,2.433,0.972,0,0.07,0
4,0,0,4,0.736,3.027,0,0.08,0
4,1,1,1,1.304,2.77,1,0.07,0
4,1,1,3,1.836,2.923,0,0.08,0
5,0,1,2,4.456,1.851,1,0.07,0
5,0,1,2,7.086,1.716,1,0.07,0
5,0,1,2,0.856,0.003,1,0.07,0
5,1,1,1,4.39,5.821,1,0.07,0
5,1,0,2,4.899,1.025,0,0.07,0
5,1,1,5,0.664,0.786,0,0.08,0
5,0,1,1,5.252,0.632,1,0.07,0
5,1,1,3,2.191,2.123,0,0.08,0
5,0,0,4,1.109,2.125,0,0.07,0
5,1,0,2,2.888,1.426,1,0.08,0
5,1,1,3,1.079,1.302,1,0.08,0
5,0,NA,NA,8.303,0,0,0.07,1
5,0,NA,NA,3.639,0.001,0,0.07,1
5,1,0,2,16.92,1.649,0,0.07,0
5,0,0,4,0.922,1.258,0,0.08,0
5,1,0,2,7.378,1.638,1,0.07,0
5,0,0,4,3.741,1.497,1,0.08,0
5,1,1,5,0.729,1.026,1,0.08,0
5,0,0,6,1.324,0.849,1,0.08,0
5,0,0,2,1.673,1.308,1,0.08,0
5,1,0,1,2.915,0.023,1,0.08,0
5,1,0,2,3.76,1.121,0,0.08,0
5,0,0,5,2.179,2.14,0,0.09,0
5,1,1,3,1.771,1.077,0,0.09,0
5,1,1,4,0.944,2.659,1,0.08,0
5,1,1,5,0.717,2.325,1,0.09,0
5,0,0,2,2.826,1.453,1,0.09,0
5,1,0,2,3.795,1.593,0,0.08,0
5,0,0,4,0.674,1.482,0,0.09,0
5,0,0,5,1.959,0.054,0,0.09,0
5,1,0,1,2.331,2.241,0,0.08,0
5,1,0,2,2.791,1.656,0,0.09,0
5,0,1,1,2.518,1.887,1,0.08,0
5,0,0,3,4.243,1.518,0,0.1,0
5,0,0,4,1.261,1.94,0,0.1,0
5,0,0,5,1.242,1.095,0,0.09,0
5,1,1,3,0.741,1.504,1,0.09,0
5,1,0,1,1.539,1.562,1,0.09,0
5,1,1,4,0.721,2.253,0,0.09,0
5,0,1,2,1.312,1.595,1,0.08,0
5,0,0,1,8.491,2.716,1,0.09,0
5,1,1,2,3.674,1.233,1,0.1,0
5,0,0,5,0.737,1.319,0,0.08,0
5,1,1,3,0.707,0.004,0,0.08,0
5,1,1,1,0.763,0.028,1,0.1,0
5,1,1,2,6.58,13.171,0,0.07,0
5,0,0,1,0.684,0.152,1,0.09,0
5,1,1,2,1.527,3.934,1,0.09,0
5,1,0,2,4.709,0.959,1,0.08,0
5,0,1,3,3.036,2.372,1,0.08,0
5,0,0,2,2.117,0.922,1,0.07,0
5,1,1,3,2.5,1.548,1,0.07,0
5,1,1,6,2.255,1.42,1,0.07,0
5,1,1,3,0.843,1.179,0,0.07,0
5,0,0,4,0.673,1.358,0,0.06,0
5,0,1,2,1.361,0.658,1,0.07,0
5,1,1,4,0.637,2.158,0,0.06,0
5,0,0,5,0.663,1.044,1,0.06,0
5,0,0,3,6.238,1.282,1,0.06,0
5,1,1,2,1.747,1.901,1,0.06,0
5,1,1,3,1.47,1.97,0,0.05,0
5,0,0,2,1.945,2.463,0,0.05,0
5,0,0,2,4.64,0.723,0,0.04,0
5,0,0,3,0.67,1.192,0,0.04,0
5,1,1,2,1.212,2.361,1,0.05,0
5,1,1,2,1.193,1.181,0,0.03,0
5,0,0,3,3.017,6.488,0,0.03,0
5,0,0,2,1.031,3.242,1,0.05,0
5,1,0,3,0.7,1.651,1,0.04,0
5,0,0,2,2.35,2.005,0,0.02,0
5,0,1,3,0.839,1.405,1,0.04,0
5,0,1,1,1.702,1.584,1,0.03,0
5,0,0,2,2.785,1.24,0,0.02,0
5,1,0,1,3.568,3.264,1,0.02,0
5,1,1,3,0.791,2.904,0,0.01,0
5,1,1,4,0.627,1.376,0,0.01,0
5,0,0,5,0.932,0.668,0,0.01,0
5,1,0,4,0.834,1.325,0,0.01,0
5,1,1,1,2.234,1.468,0,0.02,0
5,0,1,3,0.69,1.222,1,0.02,0
5,0,1,4,0.675,1.004,1,0.01,0
5,0,1,5,1.977,1.374,1,0.01,0
5,0,0,2,5.814,2.017,1,0.01,0
5,0,0,1,4.515,1.326,1,0.01,0
5,1,1,3,1.543,2.354,1,0.02,0
5,0,0,3,0.661,1.592,0,0.02,0
5,0,0,2,5.636,1.013,1,0.02,0
5,1,0,3,2.188,2.656,1,0.02,0
5,1,0,1,1.775,3.015,0,0.01,0
5,1,0,1,2.721,3.63,1,0.01,0
5,0,1,4,0.633,1.256,0,0.02,0
5,1,1,3,1.928,3.019,0,0.03,0
5,1,1,5,1.814,0.991,0,0.03,0
5,1,1,5,0.72,1.819,0,0.02,0
5,1,1,4,1.389,1.237,1,0.02,0
5,1,0,2,4.331,1.44,0,0.02,0
5,0,1,2,1.033,1.107,0,0.03,0
5,0,0,2,9.093,1.092,1,0.03,0
5,0,0,1,7.597,1.471,1,0.03,0
5,1,1,2,3.746,0.516,1,0.02,0
5,0,0,3,2.892,1.768,1,0.02,0
5,1,0,4,2.029,1.924,1,0.03,0
5,0,0,3,0.646,1.204,0,0.04,0
5,0,0,2,1.469,3.116,1,0.04,0
5,1,0,2,4.54,0.564,1,0.04,0
5,1,1,4,0.659,1.381,0,0.04,0
5,0,0,3,1.231,1.11,0,0.03,0
5,1,0,1,1.025,0.701,0,0.03,0
5,0,1,1,1.287,4.367,0,0.04,0
5,1,0,1,7.585,2.292,0,0.05,0
5,1,1,3,0.765,1.481,0,0.06,0
5,1,1,4,1.207,2.086,1,0.03,0
5,0,0,2,3.565,0.992,0,0.06,0
5,0,0,5,0.768,1.476,0,0.05,0
5,1,1,4,0.654,1.666,1,0.03,0
5,1,1,1,0.858,0.508,0,0.05,0
5,0,0,5,3.104,1.757,0,0.04,0
5,0,1,4,6.544,2.731,0,0.04,0
5,1,0,2,3.162,1.484,0,0.05,0
5,0,0,2,0.786,1.405,1,0.03,0
5,1,1,2,2.47,1.607,1,0.04,0
5,0,0,5,0.97,0.856,1,0.05,0
5,0,1,1,4.569,2.316,1,0.06,0
5,0,0,4,1.016,1.641,0,0.06,0
5,1,1,3,1.756,1.772,1,0.06,0
5,0,0,5,0.763,1.482,0,0.06,0
5,0,1,5,0.781,4.722,1,0.05,0
5,0,NA,NA,4.616,0,0,0.05,1
5,0,1,1,9.864,1.966,0,0.05,0
5,1,0,2,1.922,4.823,0,0.06,0
5,0,0,1,4.449,2.203,0,0.07,0
5,0,0,2,6.799,0.67,1,0.05,0
5,0,0,5,0.668,0.943,1,0.04,0
5,1,1,1,1.374,4.215,0,0.07,0
5,1,0,2,3.322,2.229,1,0.04,0
5,0,0,5,1.278,1.632,0,0.06,0
5,1,1,5,0.996,2.051,1,0.05,0
5,1,0,3,3.018,0.872,1,0.06,0
5,1,0,1,1.321,1,1,0.06,0
5,1,0,2,2.84,1.29,0,0.06,0
5,1,0,2,3.096,2.903,1,0.05,0
5,1,1,3,0.839,1.262,1,0.06,0
5,0,1,2,1.018,2.019,1,0.07,0
5,0,0,5,0.657,0.675,0,0.07,0
5,1,1,6,0.928,1.139,0,0.07,0
5,0,1,1,1.678,2.406,1,0.07,0
5,0,0,5,1.185,1.318,0,0.06,0
5,1,1,6,2.088,0.889,0,0.06,0
5,0,0,4,1.015,1.187,1,0.06,0
5,1,0,1,3.46,1.783,0,0.05,0
5,1,0,2,1.158,1.849,0,0.06,0
5,1,1,3,1.348,0,1,0.06,0
5,0,0,4,1.045,2.601,0,0.07,0
5,0,1,2,1.918,2.317,1,0.07,0
5,1,0,1,1.764,3.2,0,0.07,0
5,1,1,5,0.901,0.987,1,0.07,0
5,1,1,2,3.273,0.983,0,0.08,0
5,0,0,4,0.917,1.398,0,0.08,0
5,1,1,5,0.837,1.157,0,0.07,0
5,0,0,1,5.318,1.802,0,0.07,0
5,1,1,4,1.32,1.801,0,0.06,0
5,0,0,4,0.605,0.886,1,0.06,0
5,0,1,5,2.302,3.716,1,0.06,0
5,0,0,4,2.419,3.091,1,0.05,0
5,1,1,4,2.369,1.89,0,0.06,0
5,1,0,2,2.127,2.107,1,0.06,0
5,0,0,5,1.478,1.429,1,0.07,0
5,0,0,4,0.94,1.69,0,0.05,0
5,0,1,2,1.318,2.501,1,0.07,0
5,0,1,1,6.876,0.952,0,0.05,0
5,1,1,3,0.601,1.904,0,0.06,0
5,1,1,2,1.034,1.271,0,0.06,0
5,1,1,6,0.678,1.549,1,0.08,0
5,1,0,5,1.14,1.521,1,0.08,0
5,1,1,3,3.401,1.323,1,0.07,0
5,0,0,3,2.315,1.208,0,0.05,0
5,1,1,5,2.866,1.4,0,0.05,0
5,1,1,3,2.029,2.969,1,0.07,0
5,0,1,1,5.674,1.171,0,0.04,0
5,1,1,2,2.117,1.403,0,0.05,0
5,1,1,2,1.563,1.903,1,0.06,0
5,0,0,5,0.685,1.526,0,0.05,0
5,0,0,2,1.088,1.684,0,0.04,0
5,0,0,4,2.608,5.586,0,0.04,0
5,1,1,5,1.232,1.133,0,0.03,0
5,1,0,1,2.842,0.772,1,0.06,0
5,0,1,1,1.827,1.737,1,0.05,0
5,1,1,1,5.387,1.267,0,0.03,0
5,0,0,4,2.447,0.924,1,0.05,0
5,1,0,1,5.449,1.972,0,0.02,0
5,0,0,4,1.742,1.924,0,0.03,0
5,1,0,1,3.253,2.816,1,0.06,0
5,0,0,2,0.747,0.914,0,0.03,0
5,0,0,5,1.598,1.002,1,0.06,0
5,1,1,2,0.985,1.665,1,0.05,0
5,1,1,1,8.008,0.563,1,0.05,0
5,0,1,2,3.457,2.573,1,0.04,0
5,0,0,3,1.404,1.401,1,0.05,0
6,0,0,2,0.876,1.189,0,0.07,0
6,1,1,3,0.872,1.043,1,0.07,0
6,0,1,NA,0.745,2.93,1,0.07,1
6,0,0,3,3.125,1.281,1,0.07,0
6,1,1,4,0.575,0.808,1,0.07,0
6,1,1,4,0.906,2.034,1,0.07,0
6,1,1,2,2.317,1.505,1,0.07,0
6,0,0,3,1.179,0.901,1,0.07,0
6,1,1,5,0.575,0.765,0,0.07,0
6,0,0,3,0.681,1.655,0,0.06,0
6,1,1,5,0.603,0.873,0,0.06,0
6,1,1,3,1.989,2.965,1,0.07,0
6,0,0,6,0.507,1.919,0,0.05,0
6,1,1,3,1.572,1.63,0,0.05,0
6,0,1,2,1.379,0.742,1,0.06,0
6,1,1,4,2.028,0.858,0,0.04,0
6,1,0,3,1.878,1.461,1,0.06,0
6,0,0,4,0.572,1.174,0,0.04,0
6,1,0,1,4.951,0.839,0,0.03,0
6,1,0,2,2.822,4.002,0,0.04,0
6,0,0,3,0.67,0.681,1,0.05,0
6,1,0,2,3.032,1.531,1,0.05,0
6,1,1,2,1.503,0.944,0,0.05,0
6,1,1,3,0.797,1.535,1,0.04,0
6,1,1,5,0.599,1.042,1,0.04,0
6,0,0,5,0.618,0.942,0,0.05,0
6,0,0,6,0.51,1.103,0,0.04,0
6,1,0,2,2.53,1.038,1,0.03,0
6,0,1,4,0.991,1.622,1,0.04,0
6,0,0,3,1.73,1.002,1,0.05,0
6,0,0,4,0.573,0.941,0,0.04,0
6,1,1,4,0.672,0.915,0,0.03,0
6,0,0,3,4.221,0.944,1,0.05,0
6,1,0,1,3.788,0.891,0,0.03,0
6,0,1,3,0.96,1.986,1,0.04,0
6,0,0,4,1.024,1.366,0,0.04,0
6,0,0,5,0.653,0.818,1,0.04,0
6,0,0,4,2.31,0.521,0,0.04,0
6,0,1,1,6.265,0.883,0,0.03,0
6,1,1,5,0.61,0.491,0,0.04,0
6,0,1,4,1.161,1.322,0,0.04,0
6,1,1,5,0.537,0.975,0,0.05,0
6,0,0,2,1.691,0.781,1,0.03,0
6,0,1,3,2.052,0.562,1,0.03,0
6,0,0,4,0.558,0.925,0,0.05,0
6,1,1,5,0.548,0.761,1,0.04,0
6,1,1,3,0.871,0.979,1,0.04,0
6,1,0,2,0.892,2.083,1,0.03,0
6,1,0,2,3.945,1.172,1,0.04,0
6,1,0,2,2.649,0.816,0,0.04,0
6,0,0,2,0.942,1.049,0,0.05,0
6,1,1,3,1.197,1.119,1,0.04,0
6,1,0,1,3.642,0.612,1,0.05,0
6,1,1,4,0.591,0.965,1,0.05,0
6,0,0,3,0.754,0.998,1,0.04,0
6,1,1,4,0.492,1.093,1,0.05,0
6,1,0,3,0.602,0.942,0,0.05,0
6,0,0,3,0.606,1.015,0,0.06,0
6,0,1,2,0.929,1.698,1,0.05,0
6,1,1,5,0.87,1.093,1,0.06,0
6,1,0,4,1.706,3.583,0,0.06,0
6,1,0,5,3.009,1.016,0,0.07,0
6,1,0,4,0.565,2.459,0,0.08,0
6,0,0,3,1.391,0.675,1,0.06,0
6,0,0,6,0.978,0.667,0,0.09,0
6,0,0,6,0.549,0.965,0,0.09,0
6,0,0,6,0.609,0.893,0,0.08,0
6,1,1,5,0.833,1.198,0,0.08,0
6,0,0,4,0.53,0.859,0,0.07,0
6,0,NA,NA,3.159,0.002,1,0.07,1
6,0,0,2,3.698,1.565,1,0.07,0
6,0,0,2,3.366,1.322,1,0.08,0
6,0,0,6,0.524,1.41,0,0.07,0
6,1,1,3,2.327,0.96,0,0.06,0
6,1,0,1,5.943,1.087,1,0.09,0
6,0,0,3,0.987,0.993,1,0.09,0
6,0,1,2,3.58,1.74,1,0.08,0
6,1,1,4,0.941,0.796,0,0.06,0
6,1,1,3,1.835,0.851,0,0.05,0
6,0,0,5,0.559,0.842,0,0.05,0
6,0,0,4,0.569,0.963,1,0.08,0
6,1,1,5,0.672,1.355,0,0.04,0
6,1,1,4,0.53,0.475,0,0.04,0
6,1,1,4,0.568,0.532,1,0.07,0
6,1,0,2,1.709,2.324,1,0.07,0
6,1,1,3,0.696,0.817,0,0.03,0
6,0,0,4,0.804,1.288,0,0.03,0
6,0,0,4,0.622,0.611,0,0.02,0
6,0,1,2,0.761,0.659,1,0.06,0
6,0,0,2,3.417,0.661,1,0.06,0
6,1,1,4,0.529,2.028,0,0.02,0
6,1,0,2,2.481,0.604,1,0.05,0
6,1,1,4,0.714,0.639,1,0.05,0
6,0,1,4,1.006,1.017,0,0.01,0
6,0,0,3,2.137,1.423,0,0.02,0
6,1,0,2,2.778,0.766,1,0.04,0
6,1,1,4,0.562,0.907,1,0.04,0
6,0,1,3,1.572,0.762,0,0.02,0
6,0,0,3,1.076,1.249,1,0.03,0
6,0,0,3,4.238,1.229,0,0.03,0
6,1,1,1,3.815,0.78,0,0.03,0
6,0,0,2,1.611,0.617,1,0.03,0
6,1,0,3,2.675,0.631,1,0.02,0
6,1,0,3,0.555,1.623,1,0.02,0
6,0,0,4,0.856,0.713,0,0.02,0
6,1,1,4,0.858,3.094,0,0.02,0
6,1,1,5,0.786,0.846,0,0.01,0
6,0,0,5,0.503,1.043,0,0.01,0
6,1,1,3,0.862,1.194,1,0.01,0
6,1,1,6,0.545,1.01,1,0.02,0
6,1,1,NA,0.869,1.682,0,0.01,1
6,0,0,3,1.274,0.735,1,0.02,0
6,0,0,2,0.641,0.71,0,0.01,0
6,1,1,1,3.129,1.431,0,0.01,0
6,0,1,2,3.013,1.325,1,0.03,0
6,0,0,2,0.917,1.99,1,0.03,0
6,1,1,3,1.155,0.61,0,0.01,0
6,0,0,4,0.56,1.498,1,0.02,0
6,0,1,3,3.007,0.907,1,0.02,0
6,0,0,4,0.557,1.174,0,0.01,0
6,1,NA,NA,0.757,0.001,0,0.01,1
6,0,1,2,2.61,0.862,0,0.01,0
6,0,1,1,1.83,0.777,1,0.01,0
6,0,1,4,0.631,1.348,0,0.02,0
6,0,0,2,0.608,0.63,1,0.01,0
6,1,1,4,0.527,0.761,0,0.03,0
6,0,1,2,2.868,1.393,0,0.03,0
6,0,0,4,0.644,0.786,1,0.01,0
6,1,1,3,1.911,2.347,1,0.01,0
6,1,1,3,1.288,0.609,1,0.01,0
6,1,1,4,0.545,1.217,0,0.04,0
6,0,1,1,2.989,1.66,1,0.01,0
6,1,1,3,0.891,0.877,1,0.01,0
6,1,0,2,0.659,0.727,0,0.04,0
6,1,1,3,0.546,1.043,0,0.05,0
6,0,NA,NA,0.722,0.001,1,0.01,1
6,1,1,3,1.02,0.761,0,0.05,0
6,0,0,4,0.69,1.063,0,0.04,0
6,0,0,3,0.793,0.845,1,0.01,0
6,1,0,2,2.08,0.746,0,0.04,0
6,0,0,5,0.65,0.764,0,0.05,0
6,1,1,3,0.556,0.607,1,0.01,0
6,0,1,4,2.425,1.006,0,0.05,0
6,1,1,5,0.596,0.615,0,0.06,0
6,1,0,1,2.494,1.436,1,0.02,0
6,0,0,4,1.304,0.684,1,0.03,0
6,1,1,2,0.991,1.831,1,0.03,0
6,0,0,4,2.19,1.535,0,0.06,0
6,0,0,3,0.779,2.005,0,0.05,0
6,1,0,1,3.399,2.518,1,0.04,0
6,0,0,3,3.742,1.094,0,0.05,0
6,0,1,3,0.769,1.36,1,0.04,0
6,0,1,2,0.859,1.125,1,0.05,0
6,0,0,2,1.774,1.109,1,0.05,0
6,0,1,4,0.608,0.81,0,0.04,0
6,1,NA,NA,0.898,0,1,0.04,1
6,1,1,4,0.835,1.105,0,0.05,0
6,1,NA,NA,8.45,0,0,0.05,1
6,1,1,4,0.674,1.461,1,0.04,0
6,1,0,2,1.686,0.858,1,0.04,0
6,1,1,3,1.058,0.916,1,0.05,0
6,0,1,4,0.565,0.764,1,0.05,0
6,1,1,3,2.287,0.831,0,0.05,0
6,1,0,1,4.579,0.607,0,0.04,0
6,0,0,3,1.489,3.506,1,0.06,0
6,0,0,NA,1.088,7.622,0,0.05,1
6,0,1,2,3.414,1.518,0,0.05,0
6,1,0,2,1.147,1.649,0,0.06,0
6,0,0,3,1.791,0.96,1,0.06,0
6,1,1,5,2.548,0.574,1,0.05,0
6,0,0,4,0.556,0.461,1,0.05,0
6,0,0,3,3.269,0.713,1,0.04,0
6,0,0,6,0.506,0.806,0,0.07,0
6,0,1,2,1.235,0.677,1,0.05,0
6,0,0,4,0.644,0.652,1,0.05,0
6,1,1,4,0.511,1.079,0,0.07,0
6,1,1,4,0.573,1.073,1,0.04,0
6,1,0,3,0.539,0.664,1,0.05,0
6,1,0,1,2.955,2.032,0,0.06,0
6,1,0,3,1.335,0.757,1,0.05,0
6,0,0,5,0.592,0.99,0,0.07,0
6,0,0,3,0.56,0.655,1,0.06,0
6,0,0,4,0.747,0.914,1,0.07,0
6,1,1,5,0.727,1.193,1,0.07,0
6,0,0,5,0.487,0.961,0,0.07,0
6,1,1,3,0.815,1.125,0,0.06,0
6,1,1,4,0.549,1.121,0,0.06,0
6,1,1,1,3.739,0.908,1,0.06,0
6,0,0,6,0.728,1.365,0,0.05,0
6,1,1,3,2.458,0.732,1,0.07,0
6,0,1,4,1.096,0.75,0,0.05,0
6,1,1,4,0.65,1.643,1,0.07,0
6,1,1,4,0.649,1.288,0,0.06,0
6,0,0,1,5.818,0.874,0,0.06,0
6,0,0,4,0.591,0.627,0,0.05,0
6,1,1,3,0.919,0.717,0,0.05,0
6,1,1,3,0.57,0.661,1,0.06,0
6,0,0,5,0.551,0.741,0,0.04,0
6,1,1,4,0.714,0.576,0,0.04,0
7,1,NA,NA,3.36,0.002,1,0.07,1
7,1,1,2,0.776,1.236,1,0.07,0
7,1,1,4,0.684,1.222,1,0.07,0
7,0,0,3,0.726,0.892,1,0.07,0
7,1,1,1,0.793,2.402,0,0.07,0
7,0,0,3,0.725,1.674,1,0.07,0
7,1,1,5,0.654,2.09,0,0.07,0
7,1,1,5,0.739,1.377,1,0.07,0
7,1,1,2,1.966,2.687,1,0.07,0
7,0,1,3,0.809,0.646,0,0.06,0
7,0,1,3,0.617,2.605,1,0.06,0
7,1,1,4,0.778,0.808,0,0.07,0
7,0,0,3,1.083,2.976,0,0.07,0
7,0,0,1,1.08,1.329,0,0.06,0
7,0,1,2,0.989,1.322,0,0.06,0
7,1,1,6,0.723,1.07,0,0.07,0
7,0,0,6,0.902,2.152,0,0.07,0
7,1,1,5,0.719,1.266,1,0.07,0
7,0,0,5,0.748,2.72,0,0.06,0
7,1,1,2,0.727,2.442,1,0.07,0
7,0,0,4,0.752,1.125,0,0.06,0
7,1,1,2,0.726,2.275,1,0.06,0
7,0,1,4,0.62,1.631,1,0.06,0
7,0,0,4,0.534,1.799,1,0.07,0
7,1,1,5,0.583,1.357,0,0.05,0
7,1,1,1,1.489,0.75,1,0.07,0
7,0,1,2,1.047,2.204,1,0.06,0
7,1,1,6,0.578,1.228,0,0.05,0
7,0,0,4,0.632,2.277,1,0.06,0
7,1,1,1,1.009,2.522,0,0.04,0
7,0,0,1,1.185,1.382,0,0.04,0
7,0,0,4,0.904,1.434,1,0.05,0
7,1,1,3,0.779,1.694,0,0.03,0
7,0,0,1,1.005,0.907,0,0.03,0
7,1,1,2,0.691,0.771,0,0.02,0
7,0,0,4,0.641,1.187,0,0.02,0
7,1,1,3,0.745,2.922,1,0.05,0
7,0,0,2,0.968,1.814,1,0.04,0
7,1,0,5,0.813,1.154,0,0.01,0
7,0,1,4,0.673,1.35,1,0.04,0
7,0,NA,NA,1.022,0.002,0,0.02,1
7,0,1,2,0.722,0.867,0,0.02,0
7,0,1,4,0.637,3.774,0,0.03,0
7,0,1,3,0.841,1.538,1,0.03,0
7,1,1,1,0.636,0.675,1,0.03,0
7,0,0,2,0.62,0.604,0,0.04,0
7,1,1,1,0.74,0.811,0,0.04,0
7,1,0,4,0.664,1.633,1,0.02,0
7,0,1,3,0.639,1.947,0,0.03,0
7,1,0,4,0.606,1.226,0,0.04,0
7,0,0,3,1.202,0.985,0,0.05,0
7,1,1,4,0.61,1.945,1,0.02,0
7,1,0,2,0.702,0.935,0,0.05,0
7,1,1,5,0.545,1.233,0,0.06,0
7,0,NA,NA,1.102,0,1,0.01,1
7,1,1,4,0.655,0.966,0,0.06,0
7,1,1,3,0.756,1.071,0,0.05,0
7,1,0,3,0.741,1.647,0,0.05,0
7,1,1,1,0.765,1.254,1,0.01,0
7,0,0,1,0.718,1.652,1,0.01,0
7,0,0,4,0.6,1.306,0,0.06,0
7,0,1,2,0.611,1.549,1,0.02,0
7,1,1,4,0.739,1.052,1,0.03,0
7,0,0,1,1.614,2.299,1,0.04,0
7,0,1,1,1.238,1.75,1,0.04,0
7,1,1,4,0.772,0.802,0,0.06,0
7,1,0,3,0.7,0.728,1,0.03,0
7,1,1,4,0.672,1.718,1,0.04,0
7,1,1,3,0.641,1.979,1,0.05,0
7,1,0,2,0.605,0.56,1,0.05,0
7,0,0,4,0.583,0.976,0,0.05,0
7,0,0,2,1.302,1.101,1,0.06,0
7,1,1,4,0.72,0.792,0,0.05,0
7,0,0,4,0.604,0.833,1,0.06,0
7,1,1,3,0.674,1.676,1,0.05,0
7,0,0,4,0.704,1.422,1,0.05,0
7,1,1,5,0.725,2.949,0,0.04,0
7,0,0,5,0.654,1.88,0,0.04,0
7,0,1,5,1.686,1.693,1,0.06,0
7,0,1,5,0.615,1.74,0,0.03,0
7,1,1,5,0.727,1.429,0,0.04,0
7,0,1,1,0.914,2.643,0,0.04,0
7,0,1,2,0.692,1.703,1,0.06,0
7,1,1,4,0.819,0.554,1,0.05,0
7,1,1,5,0.711,3.135,0,0.05,0
7,0,0,5,0.548,1.224,0,0.05,0
7,1,1,5,0.689,1.559,0,0.04,0
7,0,0,6,0.616,1.85,0,0.04,0
7,1,1,2,0.613,1.225,0,0.03,0
7,0,1,4,1.117,3.447,0,0.03,0
7,0,1,3,0.771,2.321,1,0.05,0
7,1,1,3,0.737,2.189,1,0.04,0
7,1,1,5,0.713,1.381,1,0.04,0
7,0,0,5,0.672,0.937,0,0.04,0
7,0,1,5,0.635,0.864,1,0.03,0
7,1,0,5,0.639,1.203,1,0.04,0
7,1,1,5,0.673,1.344,0,0.04,0
7,0,1,5,0.597,1.461,0,0.03,0
7,1,1,5,0.666,1.884,1,0.04,0
7,0,0,6,0.644,1.29,0,0.04,0
7,1,1,5,0.721,1.382,0,0.04,0
7,0,1,5,0.718,0.755,1,0.05,0
7,0,1,4,0.593,1.302,0,0.03,0
7,0,1,5,0.728,1.055,0,0.04,0
7,1,1,2,0.899,1.151,0,0.05,0
7,1,1,2,0.651,1.664,1,0.05,0
7,1,1,2,0.855,0.934,1,0.04,0
7,0,0,4,0.621,1.178,1,0.04,0
7,1,1,4,0.607,1.148,1,0.03,0
7,0,0,4,0.606,1.019,1,0.03,0
7,1,0,4,0.591,1.059,1,0.04,0
7,0,1,4,0.688,1.251,0,0.05,0
7,0,0,3,0.67,2.033,1,0.04,0
7,0,NA,NA,2.906,0,1,0.03,1
7,0,1,3,0.948,1.079,1,0.03,0
7,1,1,2,0.576,0.964,1,0.04,0
7,1,1,5,0.801,0.768,0,0.06,0
7,1,1,4,0.661,0.581,0,0.06,0
7,0,1,4,0.652,1.036,1,0.04,0
7,1,1,6,0.64,1.092,0,0.05,0
7,1,1,3,0.724,1.042,1,0.03,0
7,1,1,5,0.7,0.858,0,0.05,0
7,0,1,3,0.623,0.601,1,0.04,0
7,0,1,1,1.366,1.129,1,0.05,0
7,0,1,5,0.675,0.533,0,0.04,0
7,0,1,4,1.106,0.332,0,0.05,0
7,0,NA,NA,1.118,0,1,0.05,1
7,1,0,2,0.619,2.185,0,0.06,0
7,0,0,4,0.567,1.037,0,0.07,0
7,0,1,3,0.667,0.691,0,0.07,0
7,1,0,3,0.648,1.691,0,0.08,0
7,1,0,4,0.598,2.317,1,0.05,0
7,1,1,6,0.667,1.723,0,0.09,0
7,1,NA,NA,0.861,0.001,1,0.05,1
7,1,1,3,0.671,1.892,1,0.06,0
7,1,1,5,0.653,0.761,1,0.06,0
7,1,1,5,0.621,1.126,0,0.09,0
7,1,0,5,0.7,1.138,1,0.06,0
7,1,1,5,0.638,1.556,0,0.08,0
7,1,1,4,0.611,0.79,0,0.08,0
7,1,0,4,0.596,1.418,1,0.05,0
7,1,1,5,0.522,0.589,0,0.07,0
7,1,1,6,0.64,1.405,0,0.07,0
7,1,1,5,0.618,0.615,1,0.05,0
7,0,0,3,0.553,2.026,1,0.04,0
7,0,1,4,0.654,1.294,0,0.06,0
7,0,0,4,0.614,1.022,1,0.05,0
7,1,0,3,0.604,1.651,1,0.06,0
7,0,0,4,0.628,0.856,0,0.07,0
7,1,1,6,0.546,1.132,0,0.07,0
7,0,0,4,0.568,1.1,0,0.06,0
7,0,0,6,0.608,0.777,0,0.06,0
7,0,0,4,0.629,1.845,0,0.05,0
7,1,1,4,0.717,0.991,1,0.07,0
7,0,1,3,0.551,0.76,1,0.07,0
7,0,0,4,0.596,0.918,1,0.08,0
7,0,1,4,0.548,0.548,1,0.09,0
7,0,0,5,0.68,1.737,0,0.05,0
7,0,0,5,0.658,3.321,1,0.09,0
7,0,0,5,0.58,1.77,1,0.08,0
7,1,1,4,0.656,1.316,1,0.08,0
7,1,1,5,0.73,0.566,0,0.04,0
7,0,1,4,0.605,0.963,0,0.04,0
7,1,1,4,0.739,0.947,1,0.07,0
7,1,0,4,0.575,0.869,1,0.07,0
7,0,0,4,0.601,0.873,1,0.06,0
7,1,1,5,0.574,0.919,0,0.05,0
7,0,0,5,0.521,1.439,0,0.05,0
7,1,1,5,0.664,0.73,1,0.07,0
7,1,1,5,0.664,1.973,0,0.04,0
7,1,1,4,0.608,0.728,1,0.07,0
7,0,0,5,0.593,1.209,0,0.04,0
7,0,0,4,0.55,0.682,1,0.06,0
7,1,1,4,0.71,1.296,1,0.06,0
7,0,0,4,0.591,1.403,0,0.03,0
7,0,0,5,0.546,0.892,0,0.03,0
7,1,1,4,0.601,1.04,0,0.02,0
7,0,0,3,0.729,1.376,1,0.05,0
7,0,1,4,0.731,1.629,1,0.05,0
7,0,1,4,0.644,0.818,1,0.04,0
7,1,1,3,0.569,0.919,1,0.04,0
7,0,0,5,0.708,1.357,0,0.02,0
7,0,1,4,0.653,1.105,1,0.05,0
7,0,1,4,0.686,0.867,0,0.01,0
7,0,0,4,0.602,0.833,1,0.05,0
7,0,0,4,0.608,0.737,0,0.02,0
7,1,1,3,0.64,1.393,0,0.02,0
7,0,1,4,0.654,1.178,1,0.04,0
7,1,1,4,0.572,0.803,0,0.01,0
7,1,1,2,0.569,1.131,1,0.04,0
7,1,1,3,0.583,0.748,1,0.03,0
7,0,1,4,0.632,1.289,0,0.01,0
7,1,1,5,0.533,1.12,0,0.02,0
7,0,0,5,0.605,1.469,1,0.03,0
7,1,1,5,0.676,0.471,0,0.02,0
7,1,0,3,0.724,0.523,0,0.01,0
7,1,0,3,0.615,2.035,1,0.02,0
7,0,0,4,0.514,0.937,0,0.02,0
7,1,1,6,0.735,0.654,0,0.02,0
7,0,1,5,0.775,1.284,1,0.02,0
8,0,0,4,1.406,0.098,1,0.07,0
8,1,0,2,1.266,1.942,1,0.07,0
8,1,1,5,0.765,0.027,0,0.07,0
8,0,0,4,0.906,1.187,1,0.07,0
8,0,0,2,1.311,2.202,0,0.07,0
8,0,0,2,1.484,1.714,1,0.07,0
8,1,1,4,1.653,1.275,1,0.07,0
8,1,1,3,1.207,1.929,1,0.07,0
8,0,0,4,1.005,1.278,1,0.07,0
8,1,0,1,2.688,1.724,1,0.07,0
8,1,1,5,1.177,0.893,0,0.06,0
8,1,1,4,0.726,1.009,0,0.06,0
8,1,1,3,1.373,1.179,1,0.06,0
8,1,0,4,0.787,0.993,1,0.06,0
8,1,1,5,0.792,1.294,0,0.05,0
8,0,1,4,1.12,1.193,1,0.05,0
8,0,0,3,0.705,1.271,0,0.05,0
8,1,1,5,0.668,0.813,0,0.04,0
8,1,1,6,0.6,1.105,0,0.04,0
8,1,1,4,0.658,1.794,0,0.03,0
8,1,1,4,0.792,1.045,1,0.05,0
8,1,1,5,0.596,2.26,0,0.03,0
8,0,1,3,0.906,1.461,1,0.04,0
8,1,0,2,1.973,0.822,0,0.02,0
8,0,1,2,1.429,0.853,1,0.04,0
8,1,1,5,0.723,1.09,0,0.03,0
8,1,0,4,0.936,1.253,1,0.03,0
8,1,1,3,0.936,1.154,1,0.03,0
8,0,0,4,0.684,1.14,0,0.03,0
8,0,0,4,0.734,0.938,0,0.02,0
8,0,0,3,0.635,1.43,0,0.02,0
8,0,1,4,0.933,1.035,0,0.01,0
8,0,0,3,0.592,1.153,0,0.02,0
8,0,1,4,0.648,1.141,1,0.02,0
8,0,1,5,0.838,1.691,1,0.03,0
8,0,0,4,0.731,1.125,0,0.02,0
8,0,0,1,1.225,0.852,1,0.03,0
8,0,1,3,0.721,0.973,0,0.01,0
8,1,1,3,0.959,0.81,1,0.02,0
8,0,0,2,1.621,0.669,0,0.02,0
8,0,1,4,0.668,1.153,0,0.02,0
8,1,0,3,0.823,0.738,0,0.03,0
8,1,1,2,1.013,0.645,0,0.04,0
8,1,1,3,0.769,1.225,1,0.02,0
8,0,0,4,0.608,1.223,1,0.01,0
8,1,1,3,0.702,1.324,0,0.04,0
8,1,1,4,0.794,1.045,1,0.02,0
8,0,0,3,1.105,0.971,0,0.03,0
8,0,0,1,0.67,0.693,0,0.03,0
8,0,0,5,0.605,0.64,0,0.02,0
8,0,0,3,0.884,1.094,1,0.02,0
8,0,0,2,0.68,1.245,0,0.02,0
8,1,1,3,0.886,0.875,1,0.01,0
8,1,1,4,0.741,0.928,0,0.01,0
8,0,0,2,1.171,1.316,1,0.02,0
8,1,1,4,0.643,1.006,1,0.02,0
8,1,1,2,1.559,0.948,1,0.03,0
8,1,1,3,0.683,0.789,0,0.01,0
8,0,1,4,0.725,0.806,1,0.04,0
8,0,1,2,0.79,0.789,1,0.04,0
8,0,0,2,0.62,0.977,0,0.01,0
8,1,0,2,2.041,0.888,1,0.03,0
8,0,NA,NA,0.611,0.001,1,0.03,1
8,0,0,2,1.185,1.024,1,0.03,0
8,0,0,4,0.692,0.628,0,0.01,0
8,1,1,4,0.61,0.702,0,0.01,0
8,1,0,2,0.799,1.107,1,0.02,0
8,1,0,2,0.625,1.445,0,0.01,0
8,0,NA,NA,2.09,0.001,1,0.02,1
8,1,0,1,0.821,1.004,1,0.02,0
8,0,1,3,0.935,0.756,1,0.02,0
8,1,1,5,0.672,0.608,0,0.02,0
8,1,0,3,1.267,1.385,0,0.02,0
8,1,0,3,0.753,1.375,0,0.03,0
8,0,1,1,0.921,1.372,0,0.04,0
8,0,0,5,0.616,0.773,0,0.05,0
8,0,1,1,2.151,0.608,1,0.01,0
8,0,0,4,0.771,1.667,0,0.05,0
8,1,NA,NA,1.206,0,1,0.01,1
8,1,1,6,0.768,0.739,1,0.01,0
8,0,1,4,1.071,1.035,1,0.01,0
8,1,0,4,0.672,1.273,1,0.01,0
8,0,0,2,0.758,0.703,1,0.01,0
8,0,1,3,0.653,1.377,1,0.01,0
8,1,0,3,2.27,0.86,0,0.04,0
8,0,0,4,0.659,1.025,0,0.05,0
8,1,1,4,0.678,1.118,0,0.05,0
8,1,1,4,0.588,0.66,0,0.04,0
8,1,1,4,0.556,0.803,0,0.04,0
8,1,0,1,1.563,1.622,1,0.02,0
8,1,1,2,1.018,0.986,1,0.02,0
8,0,0,3,0.662,0.84,0,0.03,0
8,1,0,2,1.203,1.139,1,0.03,0
8,0,0,3,0.691,0.836,0,0.03,0
8,1,1,5,1.288,1.315,1,0.04,0
8,1,0,4,0.648,0.608,0,0.02,0
8,1,0,4,0.636,0.588,0,0.03,0
8,0,0,5,0.821,0.675,0,0.04,0
8,0,NA,NA,1.216,0,1,0.05,1
8,0,0,2,0.648,1.559,0,0.04,0
8,1,1,4,0.588,0.809,0,0.03,0
8,0,0,4,0.845,1.151,1,0.05,0
8,1,1,6,0.637,0.772,1,0.05,0
8,1,1,4,0.631,0.941,0,0.03,0
8,0,0,3,0.59,0.84,0,0.02,0
8,0,0,2,0.592,1.192,0,0.02,0
8,0,0,3,1.196,0.715,1,0.04,0
8,0,1,5,0.636,0.787,0,0.01,0
8,0,0,4,0.678,0.759,0,0.02,0
8,1,0,3,0.586,1.12,1,0.05,0
8,0,0,2,2.002,1.377,1,0.05,0
8,0,0,4,0.634,0.869,1,0.04,0
8,0,0,4,0.692,0.923,0,0.02,0
8,1,0,4,0.718,0.941,0,0.01,0
8,0,1,2,1.434,1.254,1,0.04,0
8,1,1,5,0.616,0.823,1,0.03,0
8,1,NA,NA,0.565,0,1,0.03,1
8,1,0,3,0.671,0.569,0,0.02,0
8,0,1,3,0.82,0.725,1,0.02,0
8,1,1,4,1.084,1.309,1,0.03,0
8,0,1,3,1.144,1.091,1,0.04,0
8,0,1,2,0.898,0.574,0,0.03,0
8,1,0,3,0.942,0.945,1,0.04,0
8,0,0,3,0.642,0.822,0,0.04,0
8,0,0,3,0.629,0.805,1,0.03,0
8,0,1,4,0.869,0.673,1,0.03,0
8,0,0,3,1.651,0.714,1,0.02,0
8,1,0,2,1.141,1.239,1,0.02,0
8,0,0,3,0.655,1.32,0,0.04,0
8,1,1,4,0.615,0.592,0,0.03,0
8,0,1,3,1.288,0.693,1,0.01,0
8,1,0,4,0.601,1.04,1,0.02,0
8,1,1,4,0.642,1.872,0,0.03,0
8,1,1,4,0.754,0.846,1,0.02,0
8,0,0,2,0.618,0.809,0,0.02,0
8,1,1,3,0.673,0.856,0,0.02,0
8,0,0,3,0.677,0.811,0,0.01,0
8,0,1,4,0.803,0.823,0,0.01,0
8,1,0,4,0.927,0.992,1,0.01,0
8,1,1,5,0.691,1.573,0,0.02,0
8,0,1,4,0.831,0.941,0,0.02,0
8,0,1,3,0.806,1.358,1,0.02,0
8,1,1,5,0.617,1.22,0,0.03,0
8,0,NA,NA,0.587,0.001,1,0.03,1
8,0,0,4,0.824,1.14,0,0.03,0
8,1,1,5,0.691,1.174,0,0.02,0
8,0,1,2,0.87,0.89,1,0.03,0
8,1,1,3,0.676,0.917,0,0.02,0
8,1,1,4,1.089,0.819,0,0.01,0
8,0,0,3,0.625,0.654,0,0.01,0
8,1,1,4,0.621,0.774,0,0.01,0
8,0,0,6,0.753,1.405,0,0.01,0
8,1,0,4,0.818,0.985,0,0.01,0
8,0,1,2,1.22,0.687,1,0.04,0
8,1,0,1,1.538,1.018,1,0.04,0
8,0,1,4,0.723,0.954,1,0.03,0
8,1,1,2,0.855,1.255,1,0.03,0
8,1,1,4,0.674,1.177,1,0.02,0
8,1,NA,NA,1.336,0.001,1,0.02,1
8,1,1,2,0.962,0.825,1,0.01,0
8,1,1,5,0.705,0.961,0,0.02,0
8,0,0,3,0.822,0.729,1,0.01,0
8,1,0,2,0.897,1.124,1,0.01,0
8,0,0,2,0.859,1.134,1,0.02,0
8,0,1,4,0.76,1.74,0,0.02,0
8,1,1,4,0.803,1.109,0,0.03,0
8,0,0,3,0.654,1.072,0,0.03,0
8,0,1,2,0.936,1.202,0,0.02,0
8,0,0,3,0.62,1.042,0,0.03,0
8,1,1,4,0.901,1.222,1,0.02,0
8,1,0,2,1.868,1.464,1,0.03,0
8,0,0,6,0.586,0.772,0,0.03,0
8,1,0,3,3.039,1.053,1,0.03,0
8,1,1,5,0.825,1.961,0,0.02,0
8,1,NA,NA,1.09,0.001,1,0.02,1
8,0,0,3,1.978,0.876,0,0.02,0
8,1,1,2,0.95,0.754,1,0.02,0
8,0,1,3,1.081,1.386,1,0.02,0
8,1,1,4,0.635,1.032,0,0.01,0
8,0,0,5,1.02,1.23,0,0.01,0
8,1,0,3,1.128,1.455,1,0.01,0
8,1,1,3,0.8,1.052,0,0.01,0
8,0,0,5,1.279,0.552,0,0.01,0
8,0,1,2,0.906,0.987,1,0.01,0
8,0,1,4,0.788,0.823,1,0.01,0
8,0,0,4,0.69,0.886,1,0.01,0
8,1,1,3,0.983,0.757,0,0.01,0
8,1,0,2,2.152,0.77,1,0.01,0
8,1,1,4,1.221,0.806,1,0.02,0
8,0,1,3,0.606,0.728,1,0.02,0
8,1,1,2,0.682,0.609,0,0.01,0
8,1,1,4,0.584,0.889,0,0.01,0
8,0,0,5,0.557,0.567,0,0.01,0
8,1,1,4,0.655,0.762,0,0.01,0
8,0,NA,NA,1.189,0,1,0.03,1
8,0,0,2,0.912,0.871,0,0.01,0
8,1,NA,NA,1.011,0,1,0.03,1
8,1,0,3,0.734,1.309,0,0.01,0
8,0,1,2,1.405,0.822,1,0.03,0
8,0,0,5,1.008,1.11,1,0.03,0
9,0,0,1,7.923,1.042,1,0.07,0
9,0,1,2,0.631,0.633,1,0.07,0
9,0,0,4,0.593,1.201,1,0.07,0
9,1,1,4,0.847,1.225,1,0.07,0
9,1,1,5,0.649,1.368,0,0.07,0
9,1,1,5,0.9,1.586,0,0.07,0
9,0,0,3,0.579,1.477,1,0.07,0
9,1,1,6,1.643,1.648,0,0.06,0
9,0,0,4,0.979,1.101,0,0.06,0
9,1,1,4,1.476,1.416,1,0.07,0
9,1,1,5,0.541,0.828,1,0.06,0
9,0,0,4,0.573,2.097,0,0.05,0
9,0,1,3,0.614,1.877,0,0.05,0
9,1,1,5,0.602,1.146,0,0.06,0
9,0,0,4,0.573,1.047,0,0.06,0
9,1,0,2,0.536,1.148,1,0.06,0
9,0,0,4,0.562,1.127,1,0.05,0
9,1,1,5,0.591,0.774,1,0.05,0
9,0,0,4,0.592,2.215,1,0.06,0
9,0,0,5,0.554,1.457,1,0.06,0
9,1,1,5,0.586,0.718,1,0.06,0
9,1,1,4,1.372,0.84,0,0.05,0
9,0,0,3,0.583,0.604,0,0.05,0
9,1,1,6,0.553,0.661,0,0.04,0
9,1,1,5,0.572,0.698,1,0.05,0
9,1,1,5,1.172,1.712,1,0.05,0
9,0,1,3,3.588,2.047,1,0.04,0
9,1,1,6,0.547,0.934,0,0.04,0
9,0,0,4,1.21,1.363,0,0.03,0
9,0,1,5,1.074,1.163,0,0.03,0
9,1,0,4,1.456,2.22,0,0.04,0
9,1,1,4,0.629,1.344,0,0.05,0
9,0,0,4,1.273,2.744,1,0.04,0
9,0,0,4,0.606,0.811,0,0.05,0
9,0,0,4,5.004,0.864,0,0.04,0
9,0,0,2,1.614,1.221,0,0.04,0
9,1,1,5,1.237,0.993,1,0.03,0
9,1,0,1,0.628,1.312,1,0.03,0
9,1,0,2,1.412,1.405,0,0.03,0
9,0,0,5,2.567,0.897,1,0.04,0
9,0,NA,NA,1.444,0,1,0.05,1
9,1,NA,NA,4.277,0,1,0.05,1
9,0,1,3,0.643,0.584,0,0.04,0
9,1,0,2,0.927,1.277,0,0.05,0
9,1,1,5,1.543,0.745,1,0.05,0
9,1,1,2,0.598,0.915,0,0.06,0
9,0,0,2,2.575,1.216,1,0.05,0
9,1,1,5,1.082,1.584,1,0.05,0
9,1,1,4,1.333,1.915,1,0.04,0
9,0,0,2,0.64,0.999,1,0.04,0
9,0,0,5,1.765,2.015,1,0.03,0
9,1,0,4,18.481,1.086,1,0.04,0
9,1,1,3,1.096,0.99,1,0.05,0
9,1,1,5,0.649,0.98,0,0.06,0
9,0,0,2,1.301,1.434,0,0.05,0
9,0,0,2,0.744,1.924,1,0.06,0
9,1,1,5,2.046,1.315,0,0.05,0
9,0,0,2,0.585,0.74,1,0.06,0
9,0,0,3,0.539,1.162,1,0.05,0
9,1,1,5,0.534,1.664,1,0.05,0
9,1,1,6,0.741,1.179,0,0.04,0
9,0,0,2,0.572,0.883,0,0.04,0
9,0,0,5,0.788,45.71,0,0.03,0
9,0,1,3,0.71,1.941,0,0.03,0
9,0,0,5,1.513,1.084,0,0.04,0
9,1,1,4,1.143,1.116,1,0.04,0
9,1,1,4,0.575,1.479,0,0.04,0
9,0,0,4,0.73,1.313,0,0.03,0
9,0,0,4,0.585,1.229,1,0.04,0
9,1,1,4,1.579,0.697,1,0.03,0
9,0,0,5,0.637,1.995,0,0.03,0
9,0,0,4,0.591,1.048,1,0.03,0
9,0,0,3,0.627,0.967,1,0.04,0
9,0,0,4,0.679,1.029,0,0.02,0
9,1,0,4,0.539,0.981,1,0.04,0
9,1,0,3,0.914,3.247,0,0.02,0
9,1,1,4,0.98,1.03,0,0.03,0
9,0,0,3,0.597,1.025,0,0.03,0
9,1,1,4,0.498,1.056,0,0.02,0
9,1,0,3,0.581,0.644,0,0.02,0
9,0,0,3,0.633,0.904,1,0.03,0
9,0,1,4,1.015,1.084,1,0.03,0
9,0,0,2,0.722,0.81,1,0.02,0
9,0,1,5,3.094,1.579,1,0.02,0
9,0,0,5,0.623,1.593,1,0.03,0
9,1,1,2,0.597,0.929,1,0.03,0
9,0,1,3,0.731,1.599,0,0.03,0
9,0,1,3,0.86,0.85,1,0.02,0
9,1,1,2,0.6,0.5,1,0.02,0
9,1,1,6,0.585,1.644,0,0.04,0
9,1,1,2,0.649,0.879,1,0.03,0
9,0,0,4,0.596,1.112,0,0.04,0
9,1,1,4,0.541,0.997,0,0.03,0
9,1,0,2,1.02,1.258,0,0.03,0
9,1,1,5,1.207,0.866,0,0.04,0
9,1,1,2,0.611,0.641,1,0.04,0
9,1,0,3,1.486,1.267,0,0.04,0
9,0,0,5,0.555,0.5,0,0.05,0
9,0,0,4,1.159,1.053,1,0.04,0
9,0,0,4,0.527,0.599,1,0.03,0
9,1,1,3,0.91,1.082,1,0.03,0
9,0,0,5,1.413,1.049,1,0.04,0
9,1,0,2,0.589,0.743,1,0.04,0
9,0,1,3,0.622,0.567,0,0.05,0
9,0,0,5,0.574,1.035,1,0.05,0
9,1,1,6,3.155,0.537,1,0.05,0
9,1,1,6,1.288,1.096,0,0.06,0
9,0,0,4,0.578,0.979,0,0.06,0
9,1,1,5,0.639,0.663,0,0.05,0
9,1,1,5,0.74,0.556,1,0.06,0
9,0,1,3,1.288,1.466,0,0.05,0
9,1,1,4,0.836,0.766,0,0.06,0
9,1,1,3,0.61,1.098,0,0.06,0
9,1,1,5,0.707,0.8,1,0.06,0
9,0,0,4,0.612,0.528,0,0.05,0
9,0,1,3,0.663,0.927,0,0.05,0
9,1,1,5,0.613,1.165,1,0.05,0
9,1,1,5,1.392,0.915,0,0.06,0
9,0,0,2,0.732,0.733,0,0.06,0
9,0,1,4,0.795,0.964,0,0.05,0
9,1,1,5,0.642,0.817,0,0.06,0
9,0,0,3,0.595,0.791,1,0.05,0
9,1,1,5,0.639,0.692,1,0.06,0
9,0,0,5,0.848,0.697,1,0.06,0
9,0,0,3,0.553,0.52,1,0.05,0
9,0,0,4,1.426,0.71,0,0.06,0
9,1,0,4,1.182,1.011,1,0.05,0
9,0,0,4,1.713,1.311,0,0.05,0
9,0,0,4,0.642,0.883,1,0.06,0
9,0,0,4,0.716,32.739,0,0.05,0
9,0,0,3,0.604,0.667,0,0.04,0
9,1,1,4,0.68,1.033,0,0.04,0
9,0,0,1,0.607,0.539,0,0.03,0
9,0,1,4,5.922,1.15,1,0.06,0
9,0,0,2,2.727,3.199,1,0.05,0
9,1,1,3,0.822,0.921,0,0.03,0
9,0,1,3,1.271,0.667,0,0.02,0
9,1,1,3,2.387,2.007,1,0.06,0
9,1,1,4,0.53,1.299,1,0.06,0
9,1,0,4,0.901,2.216,0,0.03,0
9,1,1,3,0.565,15.06,1,0.05,0
9,1,1,4,0.604,0.848,1,0.05,0
9,0,0,4,0.617,0.76,1,0.04,0
9,0,0,4,0.609,0.842,0,0.04,0
9,1,1,3,2.448,4.426,0,0.04,0
9,0,0,4,0.672,1.524,1,0.04,0
9,0,0,2,0.898,1.199,0,0.03,0
9,1,1,5,0.653,2.016,0,0.03,0
9,0,0,3,0.685,0.898,1,0.03,0
9,1,1,4,0.55,0.974,0,0.02,0
9,1,1,4,0.613,0.898,0,0.02,0
9,1,0,4,0.848,0.784,1,0.03,0
9,0,1,5,0.612,0.648,0,0.01,0
9,0,0,3,0.667,1.251,1,0.02,0
9,1,1,3,0.715,0.996,0,0.02,0
9,1,1,4,0.657,0.884,1,0.03,0
9,1,1,3,0.73,1.083,0,0.02,0
9,0,1,5,0.76,1.41,0,0.01,0
9,1,NA,NA,1.026,0.001,0,0.02,1
9,0,1,5,0.797,0.801,0,0.02,0
9,1,1,5,0.631,0.532,0,0.03,0
9,0,1,3,0.724,0.759,1,0.04,0
9,0,1,4,1.006,3.811,1,0.04,0
9,0,0,4,0.626,2.843,1,0.03,0
9,1,1,3,0.772,1.134,0,0.03,0
9,1,0,3,0.59,0.631,1,0.03,0
9,0,1,3,1.158,0.547,1,0.02,0
9,0,1,4,0.54,1.289,0,0.02,0
9,0,1,3,0.547,0.516,1,0.02,0
9,0,0,3,0.645,0.75,0,0.03,0
9,1,1,4,0.802,0.781,0,0.03,0
9,1,0,4,0.891,1.016,0,0.02,0
9,1,0,3,0.581,0.893,1,0.01,0
9,1,1,3,0.58,0.784,1,0.02,0
9,1,0,3,0.706,0.95,1,0.02,0
9,0,0,3,0.647,1.078,0,0.03,0
9,1,1,4,0.669,1.081,0,0.03,0
9,1,1,6,0.549,0.532,1,0.01,0
9,0,0,3,0.567,0.64,0,0.02,0
9,1,1,6,0.645,0.496,0,0.02,0
9,1,1,5,0.7,0.946,1,0.02,0
9,0,0,3,0.65,0.684,0,0.01,0
9,0,1,5,0.624,0.932,0,0.01,0
9,0,0,4,0.531,0.992,0,0.02,0
9,1,1,5,0.667,0.685,0,0.02,0
9,1,0,2,0.842,0.794,1,0.02,0
9,0,1,4,0.681,1.066,1,0.03,0
9,1,1,4,0.897,1.302,0,0.01,0
9,0,0,3,0.657,1.022,1,0.03,0
9,1,1,3,0.584,0.523,0,0.01,0
9,0,1,4,1.506,1.007,0,0.01,0
9,1,1,2,1.566,0.94,1,0.02,0
9,0,0,2,0.714,0.834,0,0.02,0
9,0,0,3,0.215,1.514,1,0.03,0
9,1,1,4,0.67,1.449,1,0.03,0
9,1,1,4,0.662,2.696,1,0.02,0
9,0,1,5,0.63,1.691,1,0.03,0
9,0,0,2,0.634,0.716,1,0.03,0
10,1,0,4,2.305,3.008,1,0.07,0
10,1,0,6,3.331,0,1,0.07,0
10,0,NA,NA,1.291,0,0,0.07,1
10,0,0,3,1.505,1.585,0,0.07,0
10,1,0,3,4.053,1.888,1,0.07,0
10,0,1,2,1.889,3.756,1,0.07,0
10,0,1,4,3.336,2.119,1,0.07,0
10,1,0,4,1.131,1.809,0,0.07,0
10,1,1,1,3.089,3.745,0,0.08,0
10,1,1,2,1.086,2.058,1,0.07,0
10,0,1,3,2.935,1.882,1,0.08,0
10,0,NA,NA,2.585,0,1,0.08,1
10,0,0,2,1.447,2.343,1,0.08,0
10,0,1,5,1.537,1.085,1,0.08,0
10,1,1,5,1.986,1.42,0,0.08,0
10,1,1,6,0.925,3.808,1,0.08,0
10,0,0,4,0.899,1.244,0,0.07,0
10,1,0,4,1.098,1.89,0,0.07,0
10,0,1,1,1.938,1.736,1,0.07,0
10,1,1,4,1.002,1.472,0,0.08,0
10,1,1,2,3.401,2.209,0,0.08,0
10,0,0,3,4.15,2.097,1,0.07,0
10,0,0,1,4.216,1.268,0,0.07,0
10,0,1,3,1.986,1.836,0,0.07,0
10,1,0,2,2.437,4.861,1,0.08,0
10,0,1,4,1.501,2.219,1,0.08,0
10,1,1,3,1.257,1.071,0,0.08,0
10,1,0,2,1.101,2.221,1,0.07,0
10,0,1,3,1.834,1.022,0,0.08,0
10,1,0,4,1.357,1.671,0,0.09,0
10,0,1,4,1.436,1.926,1,0.07,0
10,0,0,4,1.594,2.418,0,0.1,0
10,0,0,2,0.968,1.508,0,0.1,0
10,1,0,3,0.925,1.127,0,0.09,0
10,1,1,5,1.931,0.13,1,0.08,0
10,1,0,1,0.965,0.806,1,0.08,0
10,1,1,3,1.692,1.283,1,0.09,0
10,0,0,6,1.744,2.116,0,0.1,0
10,0,1,4,1.553,1.754,0,0.1,0
10,1,0,2,0.791,1.319,0,0.11,0
10,0,0,4,1.151,1.26,1,0.1,0
10,1,1,4,0.936,1.361,1,0.1,0
10,1,0,3,1.268,1.701,1,0.09,0
10,0,1,3,1.495,1.096,1,0.1,0
10,1,1,2,2.319,2.076,1,0.1,0
10,0,0,4,2.253,2.497,0,0.12,0
10,0,0,3,1.195,0.809,1,0.11,0
10,0,0,2,2.117,0.806,0,0.12,0
10,1,0,1,2.063,0.734,1,0.12,0
10,0,1,3,2.328,2.486,1,0.12,0
10,1,0,3,1.226,1.161,0,0.11,0
10,0,0,5,1.013,2.059,0,0.12,0
10,1,1,4,2.405,1.65,0,0.12,0
10,1,1,3,2.351,1.379,0,0.11,0
10,1,0,1,2.599,2.885,0,0.11,0
10,1,1,2,1.513,2.817,0,0.12,0
10,1,1,4,0.889,1.204,0,0.12,0
10,1,1,1,1.106,1.105,1,0.11,0
10,0,0,5,0.935,1.319,0,0.11,0
10,1,1,3,2.436,1.494,1,0.12,0
10,0,0,3,1.54,1.206,0,0.11,0
10,1,0,3,1.468,0.974,1,0.12,0
10,1,1,3,1.653,1.294,0,0.1,0
10,1,1,4,1.147,1.158,1,0.11,0
10,0,1,3,2.645,2.088,1,0.11,0
10,1,0,2,3.76,2.229,1,0.12,0
10,0,0,3,0.987,1.471,0,0.1,0
10,1,0,3,1.035,1.797,1,0.12,0
10,0,0,4,1.52,2.616,1,0.11,0
10,0,1,1,1.932,1.083,1,0.11,0
10,0,1,6,3.132,0.911,0,0.09,0
10,1,0,5,1.575,1.1,0,0.1,0
10,0,0,1,1.669,2.336,0,0.11,0
10,0,NA,NA,0.404,0.001,1,0.1,1
10,0,0,2,3.365,4.088,1,0.1,0
10,1,1,3,1.791,3.502,0,0.11,0
10,1,1,2,1.958,1.044,0,0.1,0
10,0,0,1,3.016,1.317,1,0.1,0
10,0,0,2,1.539,1.508,0,0.1,0
10,1,1,3,2.8,1.494,1,0.09,0
10,0,1,4,2.95,1.809,1,0.1,0
10,0,0,2,2.322,1.257,1,0.11,0
10,1,1,1,7.132,1.639,1,0.11,0
10,1,1,2,2.383,1.282,1,0.1,0
10,1,NA,NA,0.575,0.001,0,0.09,1
10,1,0,3,2.185,2.75,0,0.09,0
10,0,0,3,1.201,1.973,0,0.1,0
10,1,1,6,0.916,1.269,0,0.1,0
10,0,1,5,1.864,1.568,0,0.09,0
10,1,1,2,7.076,1.14,1,0.1,0
10,1,1,3,2.433,2.82,0,0.1,0
10,1,1,2,6.296,0.811,1,0.09,0
10,0,0,4,1.331,5.302,0,0.1,0
10,1,1,4,2.534,1.513,1,0.1,0
10,0,1,3,2.66,2.094,1,0.1,0
10,0,0,5,1.727,3.953,0,0.09,0
10,1,1,2,2.397,1.134,0,0.09,0
10,1,1,5,1.537,1.147,0,0.08,0
10,0,1,3,2.003,1.988,1,0.09,0
10,0,1,1,3.88,1.227,1,0.1,0
10,1,1,2,2.501,0.981,1,0.1,0
10,1,0,3,0.787,1.535,0,0.08,0
10,1,1,3,1.732,1.734,1,0.09,0
10,0,1,5,2.296,3.918,0,0.09,0
10,1,1,3,2.6,1.446,1,0.09,0
10,0,0,2,2.057,1.001,1,0.08,0
10,0,1,3,1.377,1.739,1,0.08,0
10,0,1,3,3.014,1.684,1,0.09,0
10,0,0,5,2.386,0.841,0,0.1,0
10,1,1,3,3.814,9.023,0,0.1,0
10,1,1,3,1.997,9.682,1,0.1,0
10,0,NA,NA,1.38,0,1,0.1,1
10,0,0,6,0.95,1.718,0,0.09,0
10,0,0,2,1.616,2.722,0,0.09,0
10,1,1,3,1.616,1.173,0,0.08,0
10,1,0,1,3.024,1.236,0,0.08,0
10,0,NA,NA,1.595,0.001,0,0.09,1
10,0,NA,NA,1.646,0,0,0.09,1
10,0,NA,NA,2.485,0.001,1,0.1,1
10,1,0,4,1.553,2.986,0,0.09,0
10,0,0,3,1.067,3.258,0,0.1,0
10,1,0,3,0.821,1.566,0,0.1,0
10,0,1,4,0.961,1.592,1,0.1,0
10,0,1,3,2.451,2.755,1,0.09,0
10,1,0,3,1.744,1.975,0,0.11,0
10,0,0,3,2.566,1.531,1,0.09,0
10,0,0,3,1.187,1.528,1,0.08,0
10,0,1,5,0.934,1.073,0,0.12,0
10,1,1,2,1.659,1.222,0,0.13,0
10,1,1,1,1.369,2.572,1,0.08,0
10,1,0,2,1.155,3.453,1,0.1,0
10,1,0,3,2.936,1.582,0,0.13,0
10,1,0,2,2.076,6.871,0,0.14,0
10,1,0,3,2.003,1.525,1,0.1,0
10,1,0,4,1.299,1.138,0,0.15,0
10,0,NA,NA,1.071,0,1,0.11,1
10,1,0,3,7.252,1.151,1,0.11,0
10,0,0,4,2.429,1.088,1,0.11,0
10,0,1,3,4.341,1.591,1,0.12,0
10,0,0,3,4.061,1.178,1,0.13,0
10,0,0,3,2.301,1.506,0,0.16,0
10,0,0,4,1.153,1.005,0,0.16,0
10,1,1,3,2.043,1.74,1,0.13,0
10,0,0,2,1.871,1.279,1,0.14,0
10,0,0,3,1.05,1.467,0,0.15,0
10,1,1,3,0.67,1.579,0,0.15,0
10,1,0,2,2.182,0.668,1,0.15,0
10,0,0,2,1.603,1.784,0,0.14,0
10,1,1,4,1.262,1.703,0,0.14,0
10,0,1,NA,0.695,1.537,0,0.13,1
10,1,0,4,1.834,0.916,0,0.14,0
10,1,NA,NA,0.443,0.001,1,0.16,1
10,0,0,5,1.593,1.125,1,0.16,0
10,0,0,4,1.107,2.276,0,0.15,0
10,1,1,2,1.593,1.652,1,0.15,0
10,0,0,6,1.12,2.031,0,0.15,0
10,0,0,5,2.432,2.947,0,0.14,0
10,1,0,4,1.062,2.339,1,0.15,0
10,1,0,2,1.233,1.919,1,0.14,0
10,1,NA,NA,1.123,0,1,0.14,1
10,0,NA,NA,4.595,0.001,0,0.14,1
10,1,1,3,2.878,1.791,1,0.13,0
10,0,NA,NA,2.099,0.001,0,0.14,1
10,0,0,3,2.204,1.189,1,0.13,0
10,0,1,2,2.884,1.99,0,0.14,0
10,0,0,3,3.438,3.712,1,0.14,0
10,1,0,3,1.633,1.91,0,0.15,0
10,1,1,3,2.116,1.137,0,0.16,0
10,1,1,4,1.356,2.806,0,0.16,0
10,0,1,5,1.477,1.41,1,0.15,0
10,1,1,4,2.116,3.85,0,0.15,0
10,1,1,2,3.659,2.821,1,0.15,0
10,0,1,4,2.412,2.091,1,0.14,0
10,1,NA,NA,0.632,0,1,0.14,1
10,1,NA,NA,1.966,0,1,0.15,1
10,0,1,1,1.874,1.299,1,0.15,0
10,1,0,3,4.031,1.003,0,0.15,0
10,1,0,3,1.036,1.745,0,0.16,0
10,0,1,2,3.038,1.056,1,0.16,0
10,1,1,4,1.711,1.539,1,0.16,0
10,1,1,3,2.486,1.517,0,0.17,0
10,1,0,3,6.576,1.964,1,0.15,0
10,0,NA,NA,1.265,0,1,0.15,1
10,1,NA,NA,2.651,0,0,0.17,1
10,0,NA,NA,3.042,0,0,0.17,1
10,0,NA,NA,5.939,0.001,0,0.17,1
10,1,1,1,2.122,2.448,1,0.15,0
10,0,0,6,0.905,1.139,1,0.15,0
10,0,1,3,2.745,1.227,0,0.17,0
10,1,NA,NA,1.738,0,1,0.16,1
10,1,NA,NA,6.852,0.001,0,0.18,1
10,0,NA,NA,1.637,0,0,0.18,1
10,1,NA,NA,7.315,0.001,1,0.17,1
10,0,NA,NA,1.83,0,1,0.17,1
10,0,0,2,1.653,2.052,0,0.18,0
10,0,0,5,1.598,1.377,0,0.18,0
10,0,0,6,0.815,0.909,0,0.17,0
10,0,0,4,1.88,1.207,1,0.17,0
10,1,0,4,1.289,3.98,0,0.17,0
11,1,1,4,1.122,2.12,1,0.07,0
11,0,0,6,1.188,0.033,0,0.07,0
11,1,1,2,1.156,0.068,1,0.07,0
11,1,0,6,1.644,3.336,0,0.07,0
11,0,0,4,1.571,1.179,1,0.07,0
11,1,1,5,0.672,0.109,1,0.07,0
11,0,1,4,1.66,1.793,1,0.07,0
11,0,1,5,0.726,2.372,0,0.08,0
11,1,1,2,1.173,1.372,0,0.09,0
11,1,1,4,3.717,1.462,0,0.09,0
11,1,1,4,1.088,2.341,0,0.08,0
11,1,0,5,0.717,1.719,0,0.08,0
11,0,1,5,1.993,0.658,1,0.08,0
11,1,0,3,2.085,1.24,1,0.09,0
11,0,0,6,1.075,1.52,0,0.09,0
11,0,1,3,2.943,1.148,0,0.09,0
11,1,1,3,0.769,1.157,1,0.09,0
11,1,1,3,0.618,1.24,1,0.08,0
11,0,1,4,1.465,1.991,0,0.1,0
11,0,1,4,1.418,1.869,0,0.11,0
11,1,1,4,1.768,0.909,1,0.08,0
11,1,1,4,0.611,1.129,1,0.09,0
11,1,0,5,1.402,1.992,0,0.12,0
11,0,1,3,0.803,0.709,0,0.13,0
11,0,0,4,1.736,2.657,0,0.14,0
11,0,NA,NA,3.642,0.001,1,0.09,1
11,1,0,4,1.805,1.928,0,0.14,0
11,0,1,3,1.33,1.17,1,0.09,0
11,1,0,6,1.016,2.384,1,0.1,0
11,1,1,4,1.371,1.569,0,0.15,0
11,1,1,4,1.156,2.945,0,0.15,0
11,1,1,4,1.422,1.293,1,0.11,0
11,0,1,4,0.637,1.411,1,0.12,0
11,0,1,5,1.286,0.695,1,0.13,0
11,0,1,5,1.315,1.359,0,0.14,0
11,0,0,3,1.749,1.515,1,0.14,0
11,1,1,3,0.93,0.711,0,0.15,0
11,0,1,1,0.579,0.128,1,0.14,0
11,0,1,5,0.817,1.619,0,0.15,0
11,0,1,4,0.865,1.294,1,0.15,0
11,0,1,2,2.341,3.607,0,0.16,0
11,0,0,2,1.709,3.043,0,0.17,0
11,1,0,3,2.616,3.069,0,0.17,0
11,0,0,3,2.007,2.754,1,0.15,0
11,0,NA,NA,5.236,0.001,0,0.18,1
11,0,0,4,1.179,0.869,1,0.14,0
11,1,0,1,1.833,0.979,1,0.15,0
11,0,1,4,1.897,1.19,0,0.18,0
11,0,0,5,1.435,1.229,1,0.15,0
11,1,0,3,1.023,1.971,0,0.19,0
11,0,1,3,2.972,1.853,1,0.17,0
11,0,0,3,5.361,1.862,0,0.2,0
11,0,0,5,1.519,3.469,0,0.2,0
11,1,1,4,1.587,1.36,1,0.17,0
11,0,0,5,1.299,1.189,0,0.19,0
11,1,1,1,1.218,0.567,1,0.18,0
11,1,1,4,1.836,1.81,0,0.19,0
11,1,0,5,1.882,5.207,0,0.18,0
11,1,0,5,1.691,3.878,0,0.19,0
11,1,1,4,0.65,0.945,1,0.19,0
11,1,1,3,2.164,2.215,0,0.2,0
11,1,0,4,1.408,1.023,1,0.2,0
11,1,1,5,0.63,1.258,0,0.2,0
11,0,1,3,2.831,1.426,0,0.19,0
11,1,1,4,1.784,1.379,0,0.2,0
11,1,0,4,1.441,0.958,1,0.2,0
11,0,1,4,0.562,0.967,1,0.19,0
11,1,1,5,1.572,1.886,1,0.19,0
11,1,1,5,1.273,0.916,0,0.2,0
11,0,0,5,1.611,3.687,1,0.18,0
11,1,1,5,0.891,1.171,1,0.19,0
11,0,0,3,2.67,1.606,1,0.2,0
11,0,0,4,1.101,1.255,1,0.2,0
11,0,0,4,1.391,2.851,1,0.19,0
11,1,1,3,2.046,1.411,1,0.2,0
11,0,1,5,1.5,0.95,0,0.19,0
11,1,0,3,1.057,1.579,0,0.2,0
11,0,1,6,0.887,0.759,0,0.21,0
11,0,1,2,1.564,0.777,1,0.2,0
11,1,1,6,0.952,1.186,1,0.19,0
11,0,0,4,0.883,1.559,1,0.2,0
11,1,1,3,1.047,2.054,0,0.22,0
11,1,1,3,0.942,1.176,0,0.22,0
11,1,1,5,0.957,0.776,1,0.21,0
11,1,0,4,1.358,0.866,1,0.22,0
11,1,0,5,1.004,1.991,1,0.22,0
11,0,1,5,0.405,3.6,1,0.22,0
11,0,1,5,1.418,0.64,0,0.21,0
11,0,1,3,2.393,1.152,1,0.21,0
11,1,1,3,1.29,0.823,0,0.22,0
11,0,1,3,0.788,2.257,0,0.22,0
11,1,1,3,1.991,1.489,0,0.23,0
11,0,1,5,0.693,0.864,1,0.22,0
11,0,0,4,1.058,1.404,1,0.22,0
11,0,0,4,1.336,0.736,0,0.23,0
11,0,0,4,0.842,0.777,0,0.22,0
11,1,1,4,0.586,2.059,1,0.23,0
11,1,1,4,0.436,0.592,0,0.22,0
11,0,0,4,1.341,1.139,0,0.21,0
11,1,1,4,0.668,4.657,0,0.21,0
11,0,1,6,0.55,0.806,1,0.23,0
11,0,0,3,1.355,0.889,0,0.2,0
11,1,1,4,0.523,1.587,1,0.22,0
11,0,1,5,2.127,1.224,1,0.22,0
11,0,1,5,0.618,2.821,1,0.21,0
11,0,1,4,0.678,1.092,1,0.21,0
11,1,1,3,0.899,1.526,0,0.2,0
11,1,1,2,1.723,0.482,0,0.19,0
11,1,1,5,0.281,1.194,0,0.19,0
11,0,0,5,0.475,1.09,0,0.18,0
11,1,1,5,0.528,1.101,1,0.2,0
11,1,0,4,0.501,0.74,1,0.19,0
11,0,0,5,2.034,1.513,0,0.18,0
11,1,1,4,0.823,1.338,1,0.19,0
11,1,0,3,0.706,1.252,1,0.18,0
11,1,1,5,0.629,1.788,0,0.17,0
11,0,1,1,0.651,1.209,1,0.18,0
11,0,1,4,0.217,2.859,0,0.17,0
11,1,0,6,1.357,1.672,0,0.18,0
11,0,1,5,1.256,1.004,1,0.17,0
11,1,1,2,1.689,1.067,1,0.17,0
11,1,0,4,0.925,2.641,0,0.19,0
11,1,NA,NA,3.54,0.001,0,0.2,1
11,0,1,3,2.433,1.806,0,0.2,0
11,0,0,3,2.395,1.664,0,0.21,0
11,0,1,3,2.196,2.226,0,0.21,0
11,0,1,3,1.517,1.164,1,0.18,0
11,1,0,3,1.264,2.223,1,0.19,0
11,0,1,4,0.691,1.826,0,0.22,0
11,1,1,5,0.715,0.858,0,0.23,0
11,1,1,5,1.1,2.257,0,0.23,0
11,0,0,5,1.057,0.924,1,0.2,0
11,1,1,4,0.606,1.606,0,0.22,0
11,1,1,4,1.903,1.536,0,0.22,0
11,0,0,4,1.409,0.993,1,0.2,0
11,1,1,6,1.212,0.87,0,0.21,0
11,0,1,5,1.992,1.189,0,0.21,0
11,0,1,4,2.05,0.992,0,0.22,0
11,0,1,4,0.34,0.867,1,0.21,0
11,0,1,5,0.757,1.392,1,0.21,0
11,1,1,4,1.224,1.516,0,0.23,0
11,0,1,4,0.577,1.067,0,0.23,0
11,1,1,5,0.62,1.119,0,0.24,0
11,1,1,5,0.672,1.449,1,0.22,0
11,0,1,3,1.882,1.004,0,0.24,0
11,0,0,4,1.551,1.726,0,0.25,0
11,1,1,4,0.215,1.347,1,0.23,0
11,0,1,4,0.717,1.06,1,0.23,0
11,0,1,4,0.771,1.614,0,0.25,0
11,1,1,3,0.449,0.91,1,0.22,0
11,0,0,4,0.972,1.145,1,0.22,0
11,1,1,4,0.206,0.633,1,0.21,0
11,1,0,3,0.682,2.04,1,0.21,0
11,1,1,4,0.796,2.058,1,0.22,0
11,1,1,4,2.1,1.464,1,0.23,0
11,1,1,3,0.691,1.518,1,0.23,0
11,0,1,4,1.704,1.074,0,0.26,0
11,1,1,5,2.435,1.204,1,0.24,0
11,1,0,4,0.543,0.755,1,0.24,0
11,0,1,3,0.22,1.02,1,0.25,0
11,0,0,2,0.942,1.805,1,0.25,0
11,0,0,4,1.69,1.895,0,0.27,0
11,1,1,4,0.601,0.832,1,0.26,0
11,0,0,4,1.592,1.681,0,0.27,0
11,1,1,4,0.517,1.937,0,0.26,0
11,1,0,5,1.168,0.928,1,0.26,0
11,1,1,4,0.812,1.422,0,0.26,0
11,1,1,4,0.519,0.567,1,0.27,0
11,0,1,3,0.68,2.014,0,0.25,0
11,1,1,4,0.605,1.037,0,0.26,0
11,1,1,4,0.54,1.653,1,0.27,0
11,0,1,4,0.672,0.56,1,0.26,0
11,0,1,4,0.722,1.321,1,0.26,0
11,1,1,4,1.071,1.51,0,0.26,0
11,0,1,4,0.969,1.595,0,0.25,0
11,1,1,4,0.712,1.144,1,0.25,0
11,0,1,4,1.854,1.094,0,0.26,0
11,1,1,4,0.701,1.196,1,0.26,0
11,1,1,4,0.494,1.488,0,0.27,0
11,0,0,4,1.241,1.153,0,0.27,0
11,1,1,4,0.095,1.159,0,0.26,0
11,0,1,4,0.434,1.295,1,0.26,0
11,0,1,4,0.437,1.24,1,0.25,0
11,1,1,4,0.583,1.937,0,0.26,0
11,0,0,4,0.486,2.218,1,0.26,0
11,1,1,5,0.565,1.111,1,0.27,0
11,0,0,5,0.25,1.094,0,0.25,0
11,1,1,6,0.525,0.791,0,0.25,0
11,0,0,4,0.338,1.757,0,0.24,0
11,1,1,4,0.578,1.61,0,0.24,0
11,1,1,4,0.522,1.232,1,0.27,0
11,1,1,5,0.909,1.72,0,0.23,0
12,1,1,6,1.304,1.73,0,0.07,0
12,0,1,6,0.856,1.131,1,0.07,0
12,0,1,3,2.038,1.147,0,0.07,0
12,1,1,4,1.459,1.353,1,0.07,0
12,0,1,5,0.82,1.443,0,0.08,0
12,0,1,2,1.126,2.275,1,0.08,0
12,0,1,3,1.026,1.342,0,0.09,0
12,1,0,3,0.678,1.242,1,0.09,0
12,0,0,3,0.965,0.901,0,0.1,0
12,0,1,2,1.524,1.438,1,0.1,0
12,0,0,2,1.334,0.763,0,0.1,0
12,0,1,3,2.025,1.024,1,0.1,0
12,0,1,3,1.533,1.004,1,0.1,0
12,0,1,4,1.391,1.532,0,0.09,0
12,1,1,4,0.82,1.355,0,0.1,0
12,1,1,4,1.293,1.374,1,0.09,0
12,1,1,5,0.553,1.324,1,0.1,0
12,1,1,4,1.171,1.349,0,0.1,0
12,1,1,6,0.707,1.67,0,0.09,0
12,0,0,5,0.632,1.368,1,0.1,0
12,1,0,2,2.138,1.16,1,0.09,0
12,1,1,3,1.1,1.337,0,0.09,0
12,1,1,4,0.848,1.158,1,0.09,0
12,1,0,4,0.674,1.16,0,0.08,0
12,1,0,1,1.84,1.84,1,0.08,0
12,0,0,3,0.898,1.528,0,0.09,0
12,0,1,3,0.974,1.561,1,0.09,0
12,0,0,5,0.57,0.88,0,0.09,0
12,1,0,2,1.206,0.709,0,0.08,0
12,0,NA,NA,2.227,0,0,0.09,1
12,0,1,3,0.911,1.596,1,0.09,0
12,1,1,2,0.844,1.191,1,0.08,0
12,0,1,2,1.556,1.732,1,0.08,0
12,1,1,5,0.904,1.775,1,0.08,0
12,1,1,5,0.644,1.688,0,0.09,0
12,1,1,4,0.596,0.746,0,0.09,0
12,0,1,3,1.65,1.126,0,0.08,0
12,1,1,2,1.247,1.287,1,0.09,0
12,0,0,3,1.081,1.438,1,0.08,0
12,1,1,3,0.942,1.062,0,0.09,0
12,1,1,2,0.816,1.288,0,0.09,0
12,0,0,3,2.008,1.254,0,0.08,0
12,1,1,1,1.527,1.223,1,0.09,0
12,1,1,4,0.637,1.115,0,0.08,0
12,1,0,4,0.692,1.272,1,0.09,0
12,0,1,2,2.065,1.514,1,0.08,0
12,1,1,3,1.8,0.003,1,0.08,0
12,1,0,5,1.573,0.128,1,0.08,0
12,1,0,2,2.07,2.428,1,0.08,0
12,1,0,5,0.865,3.678,0,0.07,0
12,0,1,4,1.748,1.726,1,0.07,0
12,0,0,3,0.876,1.739,0,0.08,0
12,1,1,2,1.043,0.827,0,0.08,0
12,1,0,2,2.341,1.067,0,0.07,0
12,1,0,3,1.589,2.136,1,0.08,0
12,1,1,4,1.89,1.974,0,0.08,0
12,0,0,1,2.967,1.244,1,0.08,0
12,0,1,1,1.953,1.556,1,0.07,0
12,0,1,2,1.466,0.085,0,0.08,0
12,1,1,2,1.519,3.555,1,0.08,0
12,0,0,2,1.983,6.142,0,0.09,0
12,1,1,4,0.938,1.626,0,0.09,0
12,0,0,5,0.79,1.661,1,0.08,0
12,0,1,2,1.189,1.591,0,0.08,0
12,0,1,5,2.572,2.059,1,0.09,0
12,0,1,3,1.084,1.642,0,0.09,0
12,1,1,3,1.901,1.275,0,0.1,0
12,1,1,3,1.564,1.144,0,0.1,0
12,1,1,4,1.226,1.005,1,0.09,0
12,0,0,2,1.368,2.036,1,0.08,0
12,0,0,4,1.483,1.538,0,0.09,0
12,0,0,5,0.959,1.118,0,0.09,0
12,0,1,1,1.638,1.682,1,0.09,0
12,0,0,2,1.567,1.271,0,0.08,0
12,1,0,1,0.922,1.237,0,0.08,0
12,0,0,3,1.303,1.316,0,0.09,0
12,1,1,1,1.235,0.944,1,0.1,0
12,0,0,3,2.473,2.166,1,0.1,0
12,0,0,1,0.758,1.207,1,0.09,0
12,1,0,5,1.34,1.277,1,0.09,0
12,0,0,3,2.865,1.934,0,0.09,0
12,0,1,4,0.964,1.858,1,0.08,0
12,1,1,4,0.851,1.57,0,0.08,0
12,0,0,6,0.736,1.42,0,0.08,0
12,1,0,1,1.555,1.409,1,0.08,0
12,1,1,1,1.036,1.311,0,0.07,0
12,0,0,4,0.705,1.624,0,0.07,0
12,0,0,1,0.674,0.774,0,0.06,0
12,1,1,5,0.849,1.441,0,0.06,0
12,1,1,2,0.837,1.736,1,0.09,0
12,0,0,4,0.691,1.219,1,0.09,0
12,0,0,2,2.157,1.143,1,0.08,0
12,0,1,4,0.626,1.489,1,0.08,0
12,1,1,1,0.893,0.855,0,0.05,0
12,1,1,1,1.408,1.121,0,0.05,0
12,1,0,3,0.972,1.409,0,0.04,0
12,0,1,2,1.15,1.084,1,0.07,0
12,0,1,5,0.637,1.606,0,0.05,0
12,0,0,1,2.03,0.844,0,0.06,0
12,0,0,4,0.722,1.153,1,0.07,0
12,1,1,3,0.77,1.21,0,0.06,0
12,0,0,6,1.234,1.387,0,0.05,0
12,1,0,5,0.868,1.116,1,0.06,0
12,0,1,2,1.562,1.502,1,0.06,0
12,1,1,1,1.22,1.491,0,0.05,0
12,1,0,5,0.673,1.867,0,0.04,0
12,0,0,5,0.625,1.337,1,0.05,0
12,0,0,4,0.927,1.286,1,0.05,0
12,1,0,1,1.329,1.278,1,0.04,0
12,1,1,1,1.549,1.376,1,0.05,0
12,1,0,4,1.456,1.311,1,0.06,0
12,1,1,2,5.445,2.106,1,0.06,0
12,1,0,2,1.659,1.418,1,0.05,0
12,0,0,6,0.589,0.977,0,0.05,0
12,0,0,3,0.649,0.913,0,0.05,0
12,0,1,2,0.739,0.926,0,0.04,0
12,1,0,4,3.21,1.643,1,0.05,0
12,1,0,2,0.601,1.276,1,0.04,0
12,1,0,2,1.188,0.778,0,0.05,0
12,0,0,4,1.417,1.16,1,0.05,0
12,1,0,6,0.554,1.619,1,0.05,0
12,0,1,6,0.639,1.677,1,0.04,0
12,1,1,2,1.198,1.291,1,0.05,0
12,0,0,5,0.665,1.724,0,0.06,0
12,0,0,2,0.801,0.979,0,0.06,0
12,1,1,3,0.867,1.708,0,0.05,0
12,1,0,4,0.634,2.431,1,0.06,0
12,1,1,2,0.584,1.596,0,0.05,0
12,0,0,2,0.799,1.103,1,0.06,0
12,1,0,4,0.664,1.525,0,0.04,0
12,1,1,5,0.659,1.172,0,0.05,0
12,0,0,1,1.515,0.926,1,0.05,0
12,0,1,2,0.767,1.241,1,0.05,0
12,0,0,3,1.134,1.359,0,0.05,0
12,0,0,1,2.017,0.745,0,0.04,0
12,1,1,2,1.785,1.359,1,0.04,0
12,1,0,2,1.285,1.626,0,0.04,0
12,1,0,1,2.617,1.954,1,0.05,0
12,0,0,4,0.897,1.618,0,0.05,0
12,0,0,5,0.666,1.262,1,0.05,0
12,1,0,2,0.807,1.104,0,0.05,0
12,0,1,1,1.918,1.301,1,0.04,0
12,1,0,1,1.283,0.777,1,0.04,0
12,1,0,5,0.748,1.359,0,0.06,0
12,0,1,1,1.038,0.822,0,0.07,0
12,0,0,2,1.332,1.266,1,0.05,0
12,1,1,4,0.616,1.535,0,0.08,0
12,0,0,1,1.837,1.533,1,0.05,0
12,1,0,1,1.942,1.558,1,0.06,0
12,1,0,4,1.411,1.56,0,0.08,0
12,0,1,2,0.645,0.971,0,0.09,0
12,0,0,4,0.945,1.837,1,0.07,0
12,0,0,5,0.933,1.677,0,0.1,0
12,0,0,4,0.615,1.111,1,0.08,0
12,0,0,5,0.834,1.107,0,0.1,0
12,1,0,3,3.081,2.135,1,0.08,0
12,0,1,2,0.864,1.027,0,0.09,0
12,1,1,4,0.691,1.176,0,0.1,0
12,1,0,5,2.155,1.81,1,0.09,0
12,1,0,6,1.212,0.79,1,0.1,0
12,1,1,3,0.618,1.67,0,0.1,0
12,0,1,4,0.736,0.992,0,0.09,0
12,1,0,2,1.208,0.918,1,0.1,0
12,1,0,6,0.783,1.416,1,0.09,0
12,0,0,1,2.282,2.352,1,0.1,0
12,0,0,5,0.573,1.003,0,0.1,0
12,0,0,4,0.873,1.28,0,0.1,0
12,1,1,3,0.554,1.408,0,0.09,0
12,1,0,5,0.556,2.241,1,0.1,0
12,0,0,6,1.267,2.115,1,0.09,0
12,1,0,4,4.578,1.605,1,0.1,0
12,0,0,1,1.991,0.974,1,0.1,0
12,0,0,4,0.78,1.452,1,0.09,0
12,1,NA,NA,8.962,0.001,0,0.09,1
12,0,1,3,1.853,1.547,0,0.09,0
12,1,0,4,0.872,1.323,1,0.09,0
12,1,0,5,1.365,1.153,0,0.1,0
12,1,0,5,4.18,1.962,0,0.11,0
12,1,1,4,0.639,1.293,0,0.12,0
12,1,1,2,1.696,1.375,0,0.12,0
12,0,0,5,1.14,0.91,0,0.11,0
12,1,1,3,0.568,1.225,0,0.11,0
12,0,1,3,2.45,1.255,1,0.09,0
12,0,0,3,1.259,1.368,1,0.1,0
12,0,1,4,1.731,6.658,0,0.1,0
12,1,0,5,1.308,1.207,1,0.11,0
12,0,1,6,0.882,1.714,1,0.12,0
12,1,0,1,2.129,1.521,1,0.12,0
12,1,1,5,1.292,1.376,0,0.11,0
12,1,1,2,2.709,1.15,1,0.11,0
12,0,0,4,1.168,1.758,0,0.11,0
12,1,0,5,1.105,1.343,1,0.11,0
12,0,1,3,1.233,1.588,1,0.1,0
12,0,1,3,1.809,1.367,0,0.1,0
12,1,1,2,2.378,1.023,1,0.11,0
12,0,0,3,1.86,1.778,0,0.11,0
12,0,0,4,0.512,0.991,0,0.11,0
12,1,1,2,4.679,1.124,0,0.1,0
12,0,0,1,7.775,1.538,1,0.11,0
12,0,0,5,0.61,1.15,1,0.1,0
13,0,NA,NA,5.22,0,1,0.07,1
13,1,1,5,1.114,1.419,1,0.07,0
13,0,1,5,1.32,3.069,0,0.07,0
13,0,1,5,1.585,1.367,0,0.08,0
13,0,1,4,1.118,2.27,0,0.09,0
13,1,1,5,1.001,1.302,1,0.07,0
13,1,0,3,1.985,1.268,0,0.1,0
13,0,1,5,2.565,1.471,0,0.11,0
13,1,1,3,1.954,3.082,1,0.08,0
13,0,0,4,3.307,1.38,0,0.12,0
13,0,0,3,3.575,1.627,1,0.09,0
13,0,0,4,2.977,2.328,0,0.12,0
13,1,1,5,0.674,1.061,0,0.11,0
13,1,1,3,1.514,1.815,1,0.1,0
13,1,1,4,1.278,1.789,1,0.11,0
13,0,0,4,1.547,1.05,0,0.11,0
13,0,1,4,0.828,1.632,1,0.12,0
13,0,1,4,1.299,1.921,1,0.12,0
13,1,1,4,0.937,1.703,1,0.11,0
13,1,1,4,1.199,1.499,0,0.1,0
13,1,1,3,0.867,0.085,0,0.1,0
13,0,1,6,0.764,0.153,1,0.11,0
13,1,1,5,0.739,1.722,0,0.09,0
13,0,0,3,1.55,1.005,1,0.1,0
13,1,0,3,1.052,2.833,0,0.09,0
13,1,1,3,1.768,1.213,1,0.1,0
13,1,1,4,1.04,0.952,1,0.09,0
13,1,0,4,1.421,1.756,0,0.1,0
13,1,0,4,1.316,1.232,0,0.11,0
13,0,1,4,3.486,2.132,0,0.12,0
13,1,1,3,2.746,1.272,0,0.13,0
13,1,1,3,0.821,1.883,1,0.09,0
13,1,1,2,2.83,1.606,1,0.1,0
13,0,1,2,3.761,5.511,0,0.13,0
13,0,0,2,1.212,1.778,1,0.11,0
13,0,0,1,1.21,0.036,1,0.12,0
13,0,0,2,1.298,2.76,1,0.13,0
13,1,0,3,2.333,1.028,0,0.14,0
13,0,0,1,1.099,2.149,1,0.13,0
13,0,0,5,1.265,0.865,0,0.15,0
13,1,1,3,1.099,1.334,0,0.15,0
13,0,0,4,0.644,2.197,0,0.14,0
13,0,0,3,0.729,1.324,0,0.14,0
13,1,1,3,1.445,1.059,1,0.14,0
13,1,1,4,0.694,1.381,0,0.13,0
13,1,0,3,1.082,1.418,1,0.15,0
13,0,1,4,0.698,1.969,1,0.15,0
13,1,1,4,0.601,2.169,0,0.13,0
13,0,0,3,1.15,2.182,0,0.12,0
13,0,1,4,1.984,1.306,1,0.14,0
13,1,1,4,0.964,1.152,1,0.14,0
13,1,1,3,0.636,1.114,1,0.13,0
13,0,0,3,1.163,1.023,0,0.12,0
13,1,1,4,2.009,1.722,0,0.11,0
13,0,1,4,2.763,1.356,0,0.11,0
13,0,1,2,1.013,2.656,1,0.13,0
13,1,0,3,1.011,2.239,1,0.12,0
13,0,0,2,1.113,2.236,1,0.12,0
13,0,0,2,1.609,1.639,0,0.12,0
13,1,1,2,1.515,2.368,1,0.11,0
13,1,0,3,1.002,2.818,0,0.12,0
13,0,0,2,2.381,1.996,1,0.11,0
13,1,1,2,0.84,2.271,0,0.13,0
13,0,0,2,1.117,0.972,1,0.12,0
13,0,1,2,0.826,1.727,0,0.13,0
13,0,0,2,1.369,1.09,1,0.12,0
13,1,1,4,0.728,2.214,0,0.14,0
13,1,1,5,0.851,3.118,1,0.13,0
13,1,1,3,0.671,1.61,1,0.13,0
13,1,0,4,1.196,1.745,0,0.14,0
13,1,1,3,0.753,1.581,0,0.15,0
13,0,1,3,1.236,2.145,1,0.14,0
13,0,0,2,0.9,1.895,1,0.14,0
13,1,1,2,0.707,0.361,1,0.15,0
13,0,0,2,1.091,1.627,1,0.15,0
13,1,0,3,0.88,3.597,1,0.15,0
13,0,0,2,1.553,1.45,0,0.15,0
13,0,0,3,0.855,1.895,0,0.14,0
13,0,0,3,0.945,1.217,0,0.14,0
13,1,1,3,0.978,0.812,0,0.13,0
13,0,0,3,1.701,2.327,0,0.13,0
13,1,0,3,0.976,1.641,0,0.12,0
13,0,0,2,0.9,1.702,1,0.15,0
13,1,1,3,0.569,2.103,1,0.14,0
13,1,0,2,0.987,1.47,1,0.14,0
13,0,1,3,1.193,1.873,1,0.13,0
13,0,1,4,1.013,1.741,0,0.13,0
13,1,1,3,1.024,1.602,1,0.13,0
13,0,0,3,1.288,0.868,0,0.14,0
13,1,0,2,1.167,2.07,0,0.14,0
13,1,1,4,0.866,0.82,0,0.15,0
13,0,0,3,1.165,1.187,0,0.15,0
13,0,0,2,0.885,1.619,0,0.14,0
13,1,0,2,0.964,1.187,0,0.14,0
13,0,0,6,0.984,0.331,1,0.12,0
13,0,0,4,0.663,1.474,0,0.15,0
13,0,1,3,0.655,1.045,1,0.13,0
13,0,0,2,0.931,1.247,0,0.15,0
13,1,0,2,0.798,1.809,1,0.14,0
13,0,0,3,0.842,1.928,1,0.14,0
13,1,1,2,1.031,0.307,0,0.14,0
13,1,0,2,0.616,1.332,0,0.14,0
13,1,0,2,0.978,1.112,1,0.15,0
13,1,1,4,0.68,1.835,0,0.15,0
13,1,1,3,0.941,1.404,1,0.15,0
13,0,1,3,1.157,1.238,1,0.14,0
13,1,0,3,1.101,1.712,1,0.14,0
13,1,1,3,0.882,1.486,1,0.15,0
13,0,0,3,0.805,1.299,0,0.15,0
13,0,0,3,0.95,0.997,1,0.15,0
13,0,1,3,0.67,1.34,0,0.14,0
13,0,1,3,0.919,1.433,1,0.14,0
13,0,1,2,1.269,1.515,1,0.14,0
13,1,0,1,1.01,3.113,1,0.15,0
13,1,1,2,0.587,1.771,0,0.15,0
13,0,0,4,0.963,1.269,0,0.15,0
13,1,0,3,0.887,1.4,0,0.14,0
13,1,1,4,1.059,1.344,0,0.15,0
13,1,1,4,0.89,1.099,1,0.15,0
13,0,0,1,1.12,2.189,1,0.14,0
13,1,1,2,0.8,1.421,1,0.15,0
13,1,1,2,0.82,1.25,0,0.15,0
13,0,0,2,0.896,1.215,1,0.15,0
13,1,1,3,0.666,1.572,1,0.14,0
13,1,0,2,1.012,1.718,1,0.15,0
13,0,1,4,1.002,1.252,0,0.14,0
13,1,1,5,0.667,1.022,0,0.15,0
13,1,0,1,1.594,1.637,1,0.15,0
13,1,0,2,1.145,3.672,0,0.15,0
13,1,0,3,1.02,0.688,0,0.16,0
13,1,1,2,0.888,1.388,1,0.14,0
13,1,0,2,0.902,1.855,1,0.15,0
13,0,0,5,0.706,0.034,1,0.15,0
13,1,0,1,0.785,0.118,1,0.16,0
13,0,0,4,0.703,0.939,0,0.17,0
13,0,0,3,1.053,1.937,0,0.17,0
13,0,0,2,1.9,1.425,1,0.17,0
13,1,1,3,1.597,1.653,0,0.16,0
13,1,0,6,0.9,0.003,1,0.17,0
13,0,0,3,0.621,1.637,1,0.16,0
13,0,0,3,2.084,0.916,0,0.16,0
13,1,1,4,0.665,1.451,1,0.16,0
13,0,0,3,2.799,1.66,0,0.15,0
13,0,0,2,1.053,1.769,1,0.15,0
13,1,1,1,1.033,2.789,1,0.15,0
13,0,0,2,0.74,1.819,1,0.15,0
13,0,0,2,0.903,1.552,0,0.15,0
13,1,1,3,0.62,1.23,0,0.14,0
13,0,0,3,1.142,1.221,0,0.14,0
13,1,1,3,0.775,1.308,0,0.13,0
13,0,0,3,0.955,1.369,0,0.13,0
13,1,1,3,0.843,1.06,0,0.12,0
13,0,0,3,1.081,1.335,1,0.15,0
13,0,1,2,0.644,0.803,1,0.14,0
13,0,0,5,0.687,0.896,0,0.12,0
13,0,0,4,0.864,1.033,0,0.11,0
13,1,1,4,0.635,2.279,0,0.11,0
13,1,1,4,0.553,1.143,0,0.1,0
13,0,0,2,1.309,0.762,1,0.14,0
13,1,0,2,1.083,1.794,1,0.13,0
13,1,0,2,1.086,1.622,1,0.13,0
13,1,NA,NA,0.843,0.001,0,0.1,1
13,1,NA,NA,0.004,2.742,1,0.13,1
13,1,NA,NA,1.435,0.001,1,0.12,1
13,0,1,4,1.878,1.56,0,0.1,0
13,1,0,3,0.931,2.178,1,0.12,0
13,0,0,3,0.836,1.347,0,0.11,0
13,1,0,4,3.559,1.172,0,0.11,0
13,0,1,5,1.151,0.135,1,0.12,0
13,0,0,5,0.92,0.225,1,0.12,0
13,1,0,3,2.562,1.012,0,0.12,0
13,1,0,3,0.936,1.403,1,0.11,0
13,0,0,3,1.153,1.297,1,0.11,0
13,1,0,3,1.01,1.989,0,0.13,0
13,1,0,3,1.314,1.491,0,0.14,0
13,0,0,6,1.487,0.002,1,0.1,0
13,0,0,3,1.105,1.363,0,0.15,0
13,1,1,5,0.832,1.213,0,0.15,0
13,0,NA,NA,0.464,0.002,0,0.14,1
13,1,0,3,0.878,1.437,0,0.14,0
13,0,1,1,0.567,1.141,1,0.1,0
13,0,0,1,1.396,2.196,1,0.1,0
13,1,0,3,0.99,1.361,1,0.11,0
13,0,0,2,1.747,1.479,1,0.11,0
13,0,0,3,1.15,2.065,0,0.15,0
13,0,1,4,0.787,0.808,0,0.15,0
13,1,1,3,0.63,1.267,1,0.12,0
13,0,1,3,1.718,1.014,0,0.16,0
13,1,0,3,0.891,1.4,1,0.13,0
13,1,1,2,0.84,1.963,1,0.14,0
13,0,1,4,0.882,1.257,0,0.17,0
13,1,0,3,0.862,1.736,0,0.18,0
13,0,0,3,0.935,1.238,1,0.15,0
13,1,0,2,1.242,1.631,0,0.19,0
13,1,1,3,1.16,1.259,0,0.2,0
13,0,0,3,1.607,1.649,0,0.2,0
14,1,1,6,0.591,0.945,0,0.07,0
14,0,0,4,0.721,1.442,1,0.07,0
14,1,1,6,0.692,0.978,0,0.07,0
14,1,1,2,0.94,0.895,0,0.06,0
14,1,0,1,0.901,0.78,0,0.06,0
14,0,0,5,1.653,0.796,1,0.07,0
14,1,0,3,0.746,0.646,1,0.06,0
14,1,0,2,1.253,0.562,1,0.06,0
14,0,0,5,0.645,0.846,0,0.07,0
14,0,1,6,0.669,0.663,0,0.07,0
14,0,NA,NA,1.561,0.001,1,0.07,1
14,0,0,5,1.355,0.879,0,0.08,0
14,0,0,3,0.82,1.124,1,0.07,0
14,0,0,4,0.614,0.704,0,0.08,0
14,1,1,6,0.642,0.668,0,0.07,0
14,1,0,4,0.587,1.244,1,0.07,0
14,1,0,2,1.19,0.817,1,0.08,0
14,1,1,6,0.587,1.026,0,0.07,0
14,1,1,6,1.106,2.583,0,0.06,0
14,1,1,2,1.02,1.551,1,0.08,0
14,0,0,4,0.578,0.884,0,0.06,0
14,0,0,3,0.609,1.002,0,0.05,0
14,1,1,5,0.86,1.176,1,0.07,0
14,1,NA,NA,0.475,0.001,0,0.05,1
14,0,0,5,0.733,0.787,1,0.07,0
14,0,0,5,0.524,0.705,1,0.06,0
14,0,0,3,0.665,0.512,1,0.06,0
14,1,1,4,0.732,0.823,1,0.05,0
14,1,1,2,0.941,0.908,1,0.05,0
14,1,1,6,0.578,0.737,0,0.05,0
14,0,0,1,0.971,1.11,0,0.04,0
14,1,0,3,0.573,0.793,0,0.04,0
14,0,0,5,0.635,1.276,1,0.04,0
14,0,1,4,0.568,0.745,0,0.05,0
14,0,0,2,0.654,1.043,0,0.06,0
14,1,NA,NA,0.353,0.001,1,0.04,1
14,1,1,5,0.565,1.194,1,0.05,0
14,0,0,5,0.646,0.649,0,0.06,0
14,0,0,2,1.005,0.691,1,0.05,0
14,0,0,3,0.657,0.962,1,0.06,0
14,0,0,5,0.828,0.893,0,0.05,0
14,1,0,3,0.625,0.683,1,0.06,0
14,1,1,4,1.14,0.729,0,0.05,0
14,1,1,3,0.57,0.908,0,0.04,0
14,0,1,1,0.954,0.562,0,0.04,0
14,1,0,4,0.653,0.769,1,0.05,0
14,0,0,5,0.582,1.111,1,0.05,0
14,1,1,5,0.605,0.569,1,0.04,0
14,1,1,4,0.634,0.844,0,0.05,0
14,0,1,2,1.018,0.711,0,0.05,0
14,1,1,4,0.569,2.557,1,0.04,0
14,1,1,5,0.522,0.923,0,0.06,0
14,1,1,6,0.635,0.623,0,0.06,0
14,1,1,3,0.562,0.984,1,0.05,0
14,1,1,6,0.56,0.612,0,0.05,0
14,0,1,3,1.298,0.844,1,0.05,0
14,1,1,4,1.126,0.991,0,0.05,0
14,0,0,4,0.621,1.062,1,0.06,0
14,1,1,5,0.588,1.994,0,0.04,0
14,0,0,5,0.554,1.261,0,0.04,0
14,0,0,1,0.572,1.323,1,0.06,0
14,1,0,3,1.575,1.227,1,0.05,0
14,0,0,3,0.619,0.911,0,0.03,0
14,0,0,3,0.542,1.135,0,0.03,0
14,1,1,6,0.626,0.8,1,0.05,0
14,0,0,4,0.573,0.845,1,0.04,0
14,1,1,4,0.574,0.484,1,0.04,0
14,0,1,2,0.557,0.792,1,0.03,0
14,1,0,4,0.594,1.555,1,0.03,0
14,1,1,6,0.587,0.567,1,0.03,0
14,0,0,6,0.608,1.209,1,0.03,0
14,0,1,4,0.607,1.043,1,0.03,0
14,0,0,4,0.568,0.896,0,0.02,0
14,1,1,2,0.576,1.052,0,0.02,0
14,0,1,5,0.556,1.483,0,0.01,0
14,0,0,5,0.525,1.063,0,0.02,0
14,0,1,6,0.575,0.806,1,0.02,0
14,0,0,4,0.551,1.125,1,0.02,0
14,1,1,3,0.638,2.148,0,0.02,0
14,0,1,4,0.591,1.811,0,0.01,0
14,1,1,5,0.734,1.008,0,0.07,0
14,1,1,3,0.617,0.609,1,0.07,0
14,0,0,4,0.632,1.55,0,0.07,0
14,1,1,5,0.58,1.361,0,0.06,0
14,0,0,1,0.586,1.248,0,0.06,0
14,0,0,2,0.522,1.35,0,0.05,0
14,0,0,4,0.559,0.731,1,0.07,0
14,1,1,2,0.574,0.791,1,0.06,0
14,0,0,2,0.558,0.562,0,0.05,0
14,0,NA,NA,0.436,0,1,0.06,1
14,1,0,2,1.129,0.889,1,0.06,0
14,1,1,4,1.713,0.984,1,0.06,0
14,1,1,4,0.991,1.014,1,0.05,0
14,0,1,4,0.595,0.714,1,0.05,0
14,0,0,3,0.504,0.937,1,0.05,0
14,0,1,4,0.531,0.956,0,0.04,0
14,0,1,4,0.613,0.512,0,0.05,0
14,0,0,3,0.504,0.997,0,0.06,0
14,1,1,5,0.541,0.563,0,0.06,0
14,0,1,3,0.541,0.465,1,0.04,0
14,0,0,2,0.555,1.135,1,0.05,0
14,0,0,3,0.527,0.776,1,0.06,0
14,1,1,5,0.727,0.898,0,0.05,0
14,1,1,4,0.573,1.116,0,0.05,0
14,0,0,2,0.594,0.535,0,0.04,0
14,0,0,3,0.577,0.85,0,0.04,0
14,0,0,4,0.562,0.603,1,0.06,0
14,1,1,5,0.514,0.594,1,0.05,0
14,1,0,4,0.596,1.191,1,0.05,0
14,1,1,4,0.638,1.048,0,0.03,0
14,1,0,4,0.51,1.149,1,0.04,0
14,0,0,5,0.834,1.159,1,0.04,0
14,1,0,5,0.548,1.022,1,0.03,0
14,1,1,2,0.55,0.91,1,0.03,0
14,0,0,5,0.523,0.467,1,0.03,0
14,1,1,5,0.581,0.002,0,0.03,0
14,1,1,6,0.561,0.911,0,0.02,0
14,1,1,5,0.619,0.792,0,0.02,0
14,0,1,5,0.715,1.291,0,0.01,0
14,0,0,4,0.597,0.816,1,0.03,0
14,1,1,4,0.911,0.857,0,0.02,0
14,0,1,4,0.826,1.11,0,0.02,0
14,0,0,3,0.615,1.281,1,0.02,0
14,0,0,3,0.641,1.155,0,0.03,0
14,0,0,2,1.44,0.657,0,0.03,0
14,1,1,5,0.51,0.533,0,0.02,0
14,0,1,3,0.493,0.732,0,0.02,0
14,1,0,3,0.562,0.715,1,0.02,0
14,1,0,5,0.579,0.777,1,0.01,0
14,1,0,4,0.51,0.619,1,0.02,0
14,0,0,3,0.54,1.134,1,0.02,0
14,0,0,5,0.558,1.049,0,0.03,0
14,0,1,5,0.533,0.548,1,0.03,0
14,1,1,6,0.524,0.68,0,0.03,0
14,1,1,6,0.623,1.017,0,0.02,0
14,0,0,1,0.574,1.245,0,0.02,0
14,1,0,1,2.714,1.203,1,0.03,0
14,1,1,2,0.608,0.748,1,0.02,0
14,1,1,3,0.52,0.481,1,0.02,0
14,1,1,5,0.583,1.116,0,0.01,0
14,0,0,5,0.542,0.681,1,0.03,0
14,0,0,3,0.914,0.991,1,0.03,0
14,0,1,2,0.579,0.619,1,0.02,0
14,0,1,4,0.549,0.687,0,0.01,0
14,1,1,3,0.532,1.143,1,0.02,0
14,1,1,4,0.65,1.012,0,0.02,0
14,1,1,6,0.548,0.002,0,0.02,0
14,0,1,3,0.584,1.047,1,0.01,0
14,0,0,3,0.565,1.125,1,0.01,0
14,0,1,3,0.559,0.978,1,0.02,0
14,1,0,4,0.556,1.199,1,0.02,0
14,1,0,5,0.559,0.582,0,0.01,0
14,1,0,4,0.561,1.079,1,0.01,0
14,0,0,4,1.091,2.056,0,0.02,0
14,1,1,4,0.495,0.629,1,0.02,0
14,1,1,6,0.591,0.002,0,0.02,0
14,0,0,1,0.66,0.916,0,0.01,0
14,1,1,5,0.546,0.636,0,0.01,0
14,1,0,4,0.61,1.395,1,0.02,0
14,0,1,3,0.595,0.674,0,0.01,0
14,1,1,5,0.558,0.86,0,0.02,0
14,1,1,5,0.532,0.883,0,0.02,0
14,0,1,4,0.528,1.245,0,0.01,0
14,0,0,3,0.705,0.961,0,0.02,0
14,0,1,4,0.555,0.996,0,0.02,0
14,0,0,2,0.632,0.98,1,0.01,0
14,1,0,2,0.547,0.696,0,0.03,0
14,1,1,4,0.545,0.941,1,0.01,0
14,1,1,6,0.495,1.038,1,0.01,0
14,1,1,5,0.509,0.585,0,0.04,0
14,1,0,2,0.554,1.489,0,0.04,0
14,0,0,5,0.496,1.276,1,0.02,0
14,0,1,4,0.618,1.38,1,0.02,0
14,0,0,4,0.807,1.009,0,0.05,0
14,1,1,4,0.531,1.259,0,0.05,0
14,0,0,4,0.558,1.6,0,0.04,0
14,0,0,5,0.532,2.437,0,0.04,0
14,1,0,4,0.551,1.25,1,0.01,0
14,0,0,3,0.513,0.846,0,0.03,0
14,0,0,5,0.53,0.529,1,0.02,0
14,0,0,5,0.609,0.58,1,0.02,0
14,1,1,6,0.596,0.609,0,0.03,0
14,1,0,1,0.53,2.151,1,0.03,0
14,1,0,5,0.528,1.844,1,0.04,0
14,1,1,6,0.55,1.046,0,0.02,0
14,0,0,5,0.659,0.566,1,0.04,0
14,0,0,6,0.51,0.793,1,0.05,0
14,1,1,5,0.511,1.133,1,0.05,0
14,0,0,4,0.625,0.744,1,0.04,0
14,0,1,2,0.709,1.777,1,0.04,0
14,0,0,1,0.759,1.943,0,0.02,0
14,1,1,5,0.569,0.609,0,0.01,0
14,1,1,3,0.608,1.148,0,0.01,0
14,0,0,2,0.524,0.659,1,0.03,0
14,1,0,3,0.528,1.077,1,0.03,0
14,1,0,5,0.482,0.524,1,0.02,0
14,1,0,3,0.525,0.976,1,0.02,0
14,0,1,4,0.529,0.595,0,0.01,0
15,0,0,5,2.729,1.38,1,0.07,0
15,0,0,5,0.923,0.002,0,0.07,0
15,1,1,2,0.856,0.003,0,0.07,0
15,0,1,4,1.265,1.957,0,0.06,0
15,0,1,5,0.913,1.577,0,0.07,0
15,0,0,5,2.276,1.241,1,0.07,0
15,0,1,5,0.948,1.133,1,0.07,0
15,1,1,5,0.806,2.096,1,0.06,0
15,0,1,5,0.876,0.002,1,0.07,0
15,0,0,5,0.93,0.978,1,0.07,0
15,1,1,5,0.908,0.945,0,0.08,0
15,1,1,5,1.79,0.91,0,0.08,0
15,1,1,5,0.976,1.144,1,0.08,0
15,0,0,5,0.93,0.847,0,0.07,0
15,1,1,5,0.974,0.996,0,0.07,0
15,0,1,5,0.914,1.148,1,0.08,0
15,0,1,5,0.898,0.795,0,0.06,0
15,0,1,5,0.727,1.182,0,0.07,0
15,0,1,5,0.693,1.329,1,0.07,0
15,1,1,5,0.831,2.004,1,0.07,0
15,1,1,5,0.814,1.047,1,0.06,0
15,1,1,5,1.739,2.814,0,0.08,0
15,0,1,6,0.81,1.075,1,0.07,0
15,1,1,5,0.858,1.636,0,0.08,0
15,0,0,5,0.665,1.481,0,0.07,0
15,0,1,5,0.826,1.515,0,0.07,0
15,1,1,5,0.89,1.195,1,0.08,0
15,0,0,6,1.031,1.228,0,0.08,0
15,1,1,5,0.929,1.362,1,0.08,0
15,1,1,5,0.839,1.411,1,0.07,0
15,1,1,5,0.764,1.473,0,0.08,0
15,1,1,5,1.189,1.46,1,0.07,0
15,1,0,6,0.753,1.047,0,0.07,0
15,0,1,5,0.997,1.675,1,0.08,0
15,0,0,5,1.529,1.009,0,0.08,0
15,0,1,6,1.061,2.093,1,0.08,0
15,1,0,6,1.952,0.792,0,0.08,0
15,1,0,5,0.889,0.742,1,0.07,0
15,1,1,5,0.943,1.377,0,0.09,0
15,1,1,5,0.803,1.023,1,0.08,0
15,0,1,5,1.063,2.434,1,0.08,0
15,1,1,5,0.941,1.346,0,0.09,0
15,1,1,5,0.661,0.893,0,0.08,0
15,1,1,5,0.882,0.747,1,0.09,0
15,0,1,5,0.859,1.913,1,0.09,0
15,0,0,6,1.189,0.38,0,0.08,0
15,1,0,3,1.02,0.814,1,0.08,0
15,1,1,5,0.845,0.999,1,0.08,0
15,0,1,4,0.714,0.002,0,0.07,0
15,0,1,6,1.42,0.736,0,0.08,0
15,0,1,2,0.889,0.067,1,0.07,0
15,0,1,6,0.893,0.592,0,0.09,0
15,1,0,5,1.456,1.651,1,0.08,0
15,0,0,6,1.875,2.894,0,0.1,0
15,1,1,2,2.889,0.13,0,0.1,0
15,0,0,6,0.686,3.338,1,0.09,0
15,0,1,6,1,1.179,0,0.09,0
15,1,1,5,1.824,1.356,0,0.1,0
15,0,1,6,1.005,0.931,1,0.1,0
15,1,1,6,1.033,1.328,1,0.1,0
15,1,1,6,0.91,1.21,1,0.09,0
15,0,1,6,0.894,0.854,0,0.1,0
15,0,1,6,0.793,0.881,0,0.11,0
15,1,0,5,0.788,1.242,0,0.12,0
15,1,1,5,1.002,0.808,1,0.1,0
15,0,0,6,1.216,2.444,0,0.13,0
15,1,0,5,1.749,1.246,0,0.13,0
15,0,1,5,0.248,0.907,1,0.1,0
15,0,0,6,1.138,0.712,1,0.11,0
15,0,1,6,0.937,0.823,1,0.12,0
15,1,0,5,0.86,0.57,0,0.14,0
15,0,1,5,0.805,0.714,1,0.13,0
15,1,1,5,0.823,0.608,1,0.13,0
15,1,1,1,0.698,0.003,1,0.14,0
15,0,1,6,2.043,2.51,0,0.15,0
15,1,1,5,1.657,1.347,0,0.16,0
15,1,1,6,0.708,0.754,0,0.16,0
15,0,1,5,0.723,1.249,1,0.15,0
15,1,1,5,0.871,0.834,1,0.16,0
15,1,1,6,0.968,1.381,0,0.15,0
15,0,1,6,1.226,1.61,1,0.16,0
15,0,0,1,1.756,4.339,1,0.15,0
15,1,1,6,1.387,0.862,0,0.15,0
15,0,1,6,0.818,1.464,0,0.14,0
15,1,0,2,0.758,1.25,0,0.15,0
15,0,1,6,0.652,1.008,0,0.16,0
15,0,1,6,0.558,1.342,0,0.17,0
15,1,1,6,0.716,1.599,0,0.18,0
15,1,1,6,0.76,1.442,1,0.15,0
15,1,1,5,2.158,2.875,0,0.18,0
15,1,0,2,1.275,0.985,0,0.17,0
15,1,1,5,1.042,0.814,0,0.18,0
15,1,0,1,1.249,1.488,0,0.18,0
15,0,1,5,0.762,1.271,0,0.19,0
15,0,1,6,0.624,0.77,1,0.14,0
15,0,0,5,1.491,0.994,0,0.2,0
15,1,1,6,0.709,0.745,1,0.15,0
15,1,0,6,0.956,1.395,0,0.2,0
15,0,0,2,1.46,1.031,1,0.16,0
15,1,1,5,1.523,1.201,1,0.17,0
15,1,1,6,0.823,0.727,0,0.21,0
15,1,1,6,0.838,1.098,1,0.18,0
15,0,0,5,1.422,0.862,1,0.18,0
15,0,1,2,1.346,0.035,1,0.17,0
15,0,1,5,0.58,0.002,1,0.18,0
15,1,0,5,0.803,1.388,1,0.18,0
15,0,1,5,0.772,0.915,0,0.21,0
15,0,1,5,1.012,1.249,0,0.22,0
15,1,1,5,1.171,2.22,0,0.23,0
15,0,1,5,0.826,1.197,1,0.19,0
15,0,1,5,0.9,0.959,1,0.2,0
15,0,0,3,2.241,1.048,0,0.23,0
15,1,1,5,0.609,0.96,1,0.2,0
15,0,1,5,0.742,0.781,1,0.21,0
15,1,1,5,0.854,1.223,1,0.21,0
15,0,0,6,1.308,0.58,0,0.22,0
15,1,1,6,0.927,1.077,1,0.22,0
15,0,1,2,1.219,2.412,0,0.22,0
15,1,1,6,0.552,0.945,1,0.23,0
15,1,0,2,1.34,0.681,1,0.23,0
15,1,0,6,1.553,0.893,1,0.22,0
15,0,1,5,0.909,0.961,1,0.22,0
15,0,1,6,0.95,2.734,0,0.23,0
15,1,1,5,0.636,1.326,1,0.23,0
15,0,1,6,0.909,1.03,0,0.24,0
15,1,1,6,0.795,0.664,1,0.24,0
15,1,1,1,0.773,0.003,1,0.24,0
15,0,1,5,0.69,1.162,1,0.24,0
15,1,1,2,2.35,0.067,0,0.25,0
15,0,0,6,1.264,0.846,0,0.25,0
15,1,1,6,0.787,0.823,1,0.25,0
15,0,0,6,2.422,2.35,0,0.24,0
15,0,1,6,0.926,1.011,0,0.24,0
15,1,1,6,0.914,1.048,1,0.25,0
15,0,1,6,0.862,1.048,1,0.24,0
15,1,1,5,0.774,2.061,1,0.24,0
15,1,1,4,0.635,0.003,1,0.24,0
15,0,1,5,1.051,0.85,1,0.24,0
15,0,1,6,0.693,0.917,0,0.25,0
15,1,1,5,1.19,0.794,0,0.26,0
15,0,1,5,0.91,1.129,0,0.26,0
15,0,1,6,0.773,0.782,1,0.25,0
15,0,1,6,0.894,1.046,1,0.26,0
15,0,1,6,0.874,0.825,1,0.26,0
15,0,0,4,1.381,1.217,1,0.26,0
15,0,1,6,0.867,0.732,1,0.26,0
15,1,1,6,1.238,1.197,0,0.27,0
15,1,1,6,0.726,0.689,0,0.27,0
15,1,1,6,0.781,0.954,0,0.26,0
15,1,1,2,1.273,0.845,0,0.26,0
15,1,1,4,0.609,0.747,1,0.27,0
15,1,0,3,1.275,0.533,1,0.27,0
15,0,0,4,1.044,1.219,1,0.26,0
15,1,1,5,0.96,5.361,0,0.25,0
15,1,1,5,0.74,1.264,0,0.25,0
15,0,1,5,0.875,1.218,0,0.24,0
15,1,0,2,6.181,0.392,0,0.25,0
15,1,0,1,0.841,0.609,0,0.26,0
15,0,1,4,0.507,0.324,0,0.27,0
15,0,0,1,0.953,1.081,0,0.28,0
15,1,1,4,0.938,1.249,0,0.28,0
15,1,1,5,1.142,0.055,1,0.26,0
15,0,1,5,0.773,1.095,1,0.25,0
15,1,1,5,0.857,0.809,1,0.25,0
15,1,1,5,0.676,0.688,0,0.27,0
15,1,0,3,0.711,0.478,1,0.24,0
15,1,1,5,0.66,1.148,0,0.27,0
15,0,1,5,0.674,0.845,1,0.25,0
15,1,0,5,0.912,0.713,1,0.26,0
15,1,1,5,0.71,1.092,1,0.27,0
15,1,1,5,0.86,0.863,0,0.26,0
15,1,1,5,0.825,0.963,1,0.28,0
15,1,1,4,0.785,1.077,0,0.26,0
15,1,1,5,0.804,0.613,0,0.25,0
15,1,1,4,0.884,0.003,1,0.28,0
15,0,1,3,0.642,1.182,1,0.27,0
15,0,1,5,0.771,1.104,0,0.25,0
15,1,1,6,0.785,0.845,0,0.26,0
15,1,1,5,1.858,1.297,1,0.27,0
15,0,1,5,1.239,1.83,0,0.26,0
15,1,1,5,0.972,5.364,1,0.26,0
15,0,1,5,1.706,1.145,1,0.26,0
15,0,1,5,0.489,1.698,1,0.25,0
15,1,1,5,0.869,1.097,0,0.27,0
15,0,0,6,1.107,1.132,0,0.27,0
15,0,0,6,0.824,0.546,0,0.26,0
15,0,0,6,0.766,1.266,0,0.26,0
15,1,0,5,1.82,0.783,0,0.25,0
15,0,1,5,0.861,1.283,1,0.25,0
15,0,1,5,0.883,0.919,0,0.26,0
15,0,1,5,0.908,1.061,1,0.26,0
15,0,1,5,0.772,1.109,0,0.27,0
15,0,0,6,1.339,0.745,1,0.26,0
15,0,0,5,0.676,1.39,1,0.27,0
15,0,0,6,1.243,1.201,0,0.28,0
15,1,1,5,0.726,0.931,1,0.27,0
15,1,1,6,1.061,0.824,0,0.28,0
15,0,0,5,1.61,0.687,0,0.27,0
15,0,1,5,0.899,0.992,1,0.26,0
15,0,1,6,0.794,0.888,0,0.27,0
16,1,1,6,0.671,0.799,0,0.07,0
16,1,1,5,0.748,1.198,1,0.07,0
16,1,0,3,1.316,1.863,1,0.07,0
16,1,0,4,0.776,0.877,1,0.07,0
16,0,0,3,0.621,1.1,0,0.07,0
16,1,1,6,0.711,1.345,0,0.06,0
16,0,0,1,0.641,1.406,0,0.06,0
16,1,0,3,0.558,1.976,1,0.07,0
16,0,0,1,1.537,2.787,0,0.05,0
16,0,0,3,0.566,1.183,0,0.05,0
16,0,0,4,0.576,0.758,1,0.06,0
16,1,0,2,0.712,1.625,0,0.04,0
16,0,1,2,1.888,1.383,0,0.05,0
16,1,0,3,1.213,1.792,1,0.06,0
16,0,0,4,0.612,0.95,0,0.06,0
16,1,1,4,0.758,1.083,0,0.06,0
16,0,0,3,1.229,1.448,1,0.05,0
16,0,1,5,0.549,1.725,1,0.05,0
16,1,0,2,0.738,1.975,1,0.04,0
16,0,1,3,0.528,1.074,0,0.05,0
16,1,1,5,0.757,2.298,0,0.06,0
16,1,0,2,0.926,0.791,1,0.05,0
16,0,0,4,0.774,1.214,1,0.06,0
16,1,1,4,1.074,1.205,1,0.06,0
16,0,0,4,0.696,1.416,0,0.06,0
16,0,0,5,0.544,0.885,1,0.05,0
16,0,1,4,0.879,1.892,1,0.06,0
16,1,0,3,0.542,1.231,0,0.05,0
16,1,0,1,0.964,1.842,0,0.06,0
16,1,1,5,0.631,1.967,0,0.07,0
16,0,0,3,2.263,2.373,1,0.06,0
16,0,1,2,1.626,2.294,0,0.07,0
16,1,0,2,0.762,2.764,0,0.08,0
16,1,1,6,0.809,1.633,0,0.09,0
16,0,1,4,5.422,1.147,1,0.05,0
16,0,0,3,3.337,1.273,1,0.06,0
16,0,1,2,1.505,0.649,1,0.07,0
16,1,1,4,1.423,0.985,1,0.07,0
16,0,1,5,2.247,1.13,0,0.09,0
16,1,1,4,0.988,1.86,1,0.08,0
16,1,1,5,0.517,4.491,0,0.1,0
16,0,0,4,0.515,1.16,1,0.09,0
16,0,1,2,2.224,1.893,1,0.09,0
16,1,1,3,0.549,1.258,0,0.1,0
16,0,0,4,0.657,1.358,0,0.09,0
16,1,0,2,0.77,1.941,1,0.1,0
16,1,0,4,0.979,1.383,0,0.09,0
16,0,0,4,0.786,2.209,0,0.1,0
16,0,0,4,0.743,1.577,1,0.1,0
16,0,0,3,0.555,1.361,0,0.1,0
16,0,1,5,2.869,0.003,1,0.09,0
16,1,1,3,0.6,1.872,1,0.09,0
16,1,1,3,1.357,2.602,1,0.1,0
16,0,0,4,0.744,1.032,0,0.09,0
16,1,1,4,0.531,1.092,0,0.09,0
16,0,0,3,0.721,1.514,0,0.08,0
16,1,1,4,0.643,2.696,0,0.08,0
16,1,1,4,5.07,1.233,1,0.1,0
16,1,1,5,1.288,2.315,1,0.09,0
16,0,0,3,0.94,1.913,1,0.09,0
16,0,0,3,0.745,1.864,1,0.08,0
16,1,1,4,0.701,1.293,0,0.07,0
16,1,0,3,0.678,1.4,1,0.08,0
16,0,1,3,2.271,1.413,1,0.07,0
16,1,1,2,0.818,1.891,1,0.07,0
16,1,0,3,0.943,1.499,0,0.07,0
16,0,1,4,1.9,1.529,1,0.07,0
16,0,0,3,0.828,1.849,1,0.07,0
16,0,0,3,0.883,1.617,0,0.08,0
16,1,0,2,1.007,5.023,1,0.08,0
16,1,1,4,1.992,1.2,0,0.08,0
16,1,0,3,0.859,1.164,0,0.07,0
16,0,0,4,0.587,1.149,0,0.08,0
16,0,0,2,1.26,1.107,1,0.08,0
16,1,1,4,0.577,0.674,0,0.08,0
16,1,1,4,1.839,0.992,1,0.07,0
16,0,0,5,1.067,1.026,0,0.07,0
16,0,0,3,0.555,0.955,0,0.07,0
16,1,1,5,0.665,1.364,1,0.08,0
16,0,0,4,1.034,1.39,0,0.06,0
16,0,0,5,0.629,1.598,0,0.06,0
16,1,1,3,0.406,0.816,1,0.08,0
16,1,1,5,0.803,1.13,1,0.07,0
16,0,0,5,0.725,0.908,0,0.05,0
16,0,0,4,0.86,1.427,1,0.07,0
16,0,1,4,1.115,1.411,1,0.06,0
16,0,1,4,0.98,1.241,0,0.05,0
16,1,1,4,1.124,1.014,0,0.06,0
16,1,1,5,0.695,0.719,0,0.06,0
16,1,1,3,1.873,1.297,0,0.05,0
16,0,0,3,1.95,1.687,0,0.05,0
16,0,1,2,0.783,2.01,1,0.06,0
16,0,0,4,1.032,0.73,0,0.04,0
16,0,0,3,2.136,2.648,1,0.05,0
16,1,1,5,0.722,1.181,1,0.05,0
16,1,1,4,1.203,2.198,0,0.04,0
16,1,0,2,1.317,0.928,1,0.06,0
16,1,1,3,2.579,1.749,1,0.06,0
16,1,1,4,0.625,1.249,0,0.03,0
16,0,0,3,0.539,1.132,0,0.03,0
16,1,1,4,0.541,2.138,1,0.05,0
16,0,0,3,0.673,2.629,1,0.05,0
16,1,0,4,0.773,1.466,1,0.04,0
16,1,1,4,0.843,1.024,1,0.04,0
16,0,1,4,1.877,1.28,0,0.02,0
16,1,0,5,0.609,0.784,1,0.03,0
16,0,0,3,0.764,1.332,1,0.03,0
16,1,1,5,0.722,2.075,0,0.03,0
16,0,1,3,2.221,2.34,1,0.02,0
16,1,0,4,1.807,2.181,0,0.03,0
16,1,0,1,1.533,2.079,0,0.04,0
16,0,0,3,0.905,2.094,0,0.05,0
16,0,1,3,0.905,1.201,1,0.03,0
16,1,1,4,0.639,1.534,1,0.03,0
16,1,1,4,2.695,1.938,0,0.05,0
16,1,0,4,0.675,0.869,0,0.04,0
16,0,0,3,0.598,1.43,1,0.04,0
16,0,0,3,0.628,0.962,1,0.05,0
16,0,0,2,0.575,1.416,0,0.05,0
16,0,1,6,0.738,1.775,0,0.05,0
16,1,1,4,0.789,0.778,0,0.06,0
16,1,1,4,0.488,0.807,0,0.06,0
16,0,0,3,0.907,1.842,1,0.05,0
16,1,1,3,0.828,1.006,1,0.04,0
16,1,0,4,1.234,3.069,1,0.05,0
16,1,1,4,1.422,0.275,1,0.05,0
16,1,1,3,3.045,1.028,0,0.05,0
16,1,1,3,2.725,1.239,0,0.05,0
16,0,0,3,0.561,1,1,0.06,0
16,0,0,4,0.646,0.821,1,0.06,0
16,0,0,5,0.563,1.196,1,0.05,0
16,0,1,4,0.752,1.014,0,0.04,0
16,0,0,5,0.947,1.593,0,0.05,0
16,0,0,4,0.641,0.91,0,0.05,0
16,0,0,4,0.47,0.879,0,0.04,0
16,1,1,6,0.575,1.307,0,0.04,0
16,1,0,6,0.574,0.716,1,0.05,0
16,0,0,5,1.254,0.906,1,0.04,0
16,1,1,4,0.577,0.895,0,0.03,0
16,1,1,4,0.567,1.572,0,0.03,0
16,0,1,4,0.625,1.027,0,0.02,0
16,0,1,3,0.546,0.931,1,0.05,0
16,1,1,4,0.578,1.243,1,0.05,0
16,0,0,2,1.72,1.782,1,0.04,0
16,1,0,3,1.983,0.793,1,0.04,0
16,1,0,5,0.847,1.023,1,0.03,0
16,1,0,2,0.873,1.593,0,0.03,0
16,0,0,5,0.627,1.239,1,0.03,0
16,0,0,3,0.546,1.107,0,0.04,0
16,1,1,4,1.39,1.42,1,0.02,0
16,0,0,5,1.659,1.542,0,0.04,0
16,0,0,3,0.586,2.497,1,0.03,0
16,0,0,3,1.154,0.789,1,0.04,0
16,1,0,5,0.888,0.755,1,0.04,0
16,1,0,4,0.709,1.1,0,0.03,0
16,1,1,4,0.828,1.201,0,0.04,0
16,0,0,4,0.877,1.058,0,0.04,0
16,0,1,4,1.905,0.978,0,0.03,0
16,1,1,4,0.515,1.154,1,0.03,0
16,1,1,4,0.528,0.815,1,0.04,0
16,0,1,2,0.547,0.747,1,0.04,0
16,1,0,4,1.593,1.125,1,0.03,0
16,0,0,4,0.594,1.661,1,0.03,0
16,0,0,3,0.777,0.977,1,0.03,0
16,0,1,3,0.524,0.877,0,0.04,0
16,0,0,3,0.631,0.811,0,0.05,0
16,1,0,4,0.634,0.976,0,0.05,0
16,1,0,3,0.715,1.415,1,0.04,0
16,1,1,4,0.645,0.924,0,0.06,0
16,1,1,1,2.511,0.003,0,0.06,0
16,0,1,4,0.758,1.01,1,0.05,0
16,1,1,5,0.598,0.829,1,0.06,0
16,0,0,4,0.547,0.731,0,0.05,0
16,1,0,4,0.564,0.868,1,0.06,0
16,1,0,4,0.857,1.003,0,0.05,0
16,1,1,4,0.53,1.074,0,0.06,0
16,0,1,3,0.551,0.832,0,0.06,0
16,1,0,3,1.398,0.678,1,0.05,0
16,0,0,4,0.59,1.161,0,0.07,0
16,0,0,4,0.611,1.149,1,0.05,0
16,0,1,4,1.6,1.092,1,0.06,0
16,0,0,4,0.623,0.912,0,0.07,0
16,1,0,4,0.525,0.655,1,0.06,0
16,0,0,5,0.722,1.113,0,0.06,0
16,1,1,4,0.541,0.81,0,0.06,0
16,1,1,5,0.538,1.156,0,0.05,0
16,0,1,3,0.644,1.043,0,0.05,0
16,0,0,3,0.528,1.11,1,0.07,0
16,1,1,4,0.516,0.877,0,0.06,0
16,0,1,4,1.029,1.081,1,0.07,0
16,1,1,4,0.842,0.892,0,0.06,0
16,0,0,4,0.573,0.661,0,0.05,0
16,1,1,4,1.096,1.024,1,0.06,0
16,1,0,4,0.582,1.003,1,0.06,0
16,0,1,4,0.664,1.232,0,0.05,0
16,1,1,5,0.511,1.123,0,0.06,0
16,0,1,4,0.682,1.009,1,0.05,0
17,1,1,4,1.094,1.553,1,0.07,0
17,0,0,3,1.225,0.991,1,0.07,0
17,0,0,5,0.672,1.659,1,0.07,0
17,0,0,4,0.671,1.196,1,0.07,0
17,1,1,3,1.51,1.341,1,0.07,0
17,1,1,6,0.604,1.209,0,0.07,0
17,1,1,4,0.625,1.172,1,0.07,0
17,1,1,4,1.409,1.104,1,0.07,0
17,0,1,5,2.07,1.275,1,0.07,0
17,1,1,2,0.569,0.113,1,0.07,0
17,0,1,4,1.108,0.971,1,0.07,0
17,1,0,4,1.724,1.176,1,0.07,0
17,1,1,6,0.746,1.575,0,0.07,0
17,1,1,5,0.687,1.386,0,0.06,0
17,0,0,2,0.732,1.753,0,0.06,0
17,0,0,5,0.606,2.168,0,0.05,0
17,1,1,5,0.656,1.113,0,0.05,0
17,0,0,4,0.744,1.136,0,0.04,0
17,1,1,5,0.613,1.372,0,0.04,0
17,0,1,3,0.937,1.736,0,0.03,0
17,1,0,1,1.64,1.39,1,0.07,0
17,0,0,6,0.674,1.853,0,0.04,0
17,1,0,4,0.591,1.686,1,0.06,0
17,0,1,5,0.639,1.361,1,0.06,0
17,0,1,4,0.816,1.4,1,0.05,0
17,0,1,3,2.516,1.39,1,0.05,0
17,1,0,1,1.381,1.17,0,0.04,0
17,0,0,3,1.918,1.469,0,0.05,0
17,1,0,2,1.051,1.543,0,0.05,0
17,1,1,4,0.776,1.182,1,0.04,0
17,0,0,5,0.746,1.274,0,0.06,0
17,1,1,4,0.575,1.11,1,0.04,0
17,1,1,5,0.828,2.073,0,0.06,0
17,1,1,2,1.543,1.649,0,0.05,0
17,0,0,5,0.67,1.692,0,0.05,0
17,0,1,4,1.79,2.071,1,0.03,0
17,0,1,4,0.719,1.56,1,0.04,0
17,1,1,4,0.618,1.487,0,0.04,0
17,0,0,2,1.035,1.107,0,0.04,0
17,0,1,5,0.632,1.289,0,0.03,0
17,1,1,3,0.773,1.217,0,0.04,0
17,0,1,3,2.149,0.988,0,0.04,0
17,0,0,3,0.758,1.276,0,0.05,0
17,1,1,4,0.567,1.52,1,0.04,0
17,0,1,5,0.614,0.723,1,0.05,0
17,1,0,5,0.868,1.059,1,0.05,0
17,1,1,6,1.181,1.155,1,0.06,0
17,0,1,2,0.842,0.981,0,0.05,0
17,1,1,4,0.638,1.459,1,0.06,0
17,0,0,4,0.687,1.101,0,0.06,0
17,0,0,3,0.647,1.027,1,0.05,0
17,1,1,3,0.769,1.238,0,0.06,0
17,0,1,4,0.751,0.872,1,0.05,0
17,1,1,5,0.609,2.22,0,0.05,0
17,1,0,3,1.066,1.087,1,0.04,0
17,1,1,4,0.487,1.259,1,0.04,0
17,0,0,4,1.005,1.307,0,0.05,0
17,0,1,3,2.917,1.192,0,0.04,0
17,0,1,1,0.724,0.866,0,0.05,0
17,0,0,3,0.889,1.422,0,0.06,0
17,0,1,5,1.431,1.179,1,0.03,0
17,1,1,4,1.005,1.105,0,0.06,0
17,1,1,4,0.523,0.785,0,0.05,0
17,1,0,3,0.736,1.442,0,0.05,0
17,0,0,4,0.903,0.889,0,0.06,0
17,0,1,4,2.638,1.162,1,0.04,0
17,1,0,4,1.299,1.394,0,0.06,0
17,1,1,5,0.757,2.087,0,0.07,0
17,0,1,5,1.131,1.641,1,0.04,0
17,1,1,5,1.187,1.124,0,0.07,0
17,0,1,4,1.067,1.188,1,0.05,0
17,0,1,4,2.319,1.242,1,0.05,0
17,0,1,5,1.436,1.186,1,0.06,0
17,1,1,5,0.826,1.06,1,0.06,0
17,1,1,4,2.102,0.885,1,0.05,0
17,0,0,4,0.907,2.393,0,0.06,0
17,1,1,5,0.704,1.534,0,0.06,0
17,1,1,5,0.635,1.488,1,0.05,0
17,0,0,2,2.134,2.318,1,0.04,0
17,1,1,6,0.774,1.937,1,0.05,0
17,0,1,4,0.976,1.824,0,0.05,0
17,0,1,4,1.704,0.924,1,0.06,0
17,0,1,4,0.661,0.929,0,0.06,0
17,1,1,3,1.287,1.59,1,0.06,0
17,1,1,1,0.76,0.478,0,0.07,0
17,0,0,3,1.885,19.207,1,0.05,0
17,1,1,6,0.583,0.923,0,0.07,0
17,1,1,5,1.942,1.094,1,0.07,0
17,1,1,6,0.706,1.718,0,0.07,0
17,0,1,4,0.548,1.233,1,0.07,0
17,0,0,5,0.589,1.351,0,0.07,0
17,0,0,4,0.773,1.154,1,0.07,0
17,1,1,4,0.627,1.158,0,0.06,0
17,1,1,5,0.903,0.995,1,0.06,0
17,1,1,4,0.591,1.635,1,0.06,0
17,1,0,4,0.783,1.805,1,0.06,0
17,0,0,6,0.692,1.136,0,0.06,0
17,1,1,5,0.738,1.536,1,0.06,0
17,1,1,5,0.69,1.405,0,0.05,0
17,1,1,5,0.946,1.633,0,0.05,0
17,0,1,4,0.629,1.259,0,0.04,0
17,1,1,4,0.964,1.298,1,0.05,0
17,0,0,3,0.651,1.654,1,0.05,0
17,0,1,5,0.623,1.509,0,0.05,0
17,0,0,3,0.938,1.045,0,0.06,0
17,1,1,3,1.28,1.658,1,0.04,0
17,0,1,4,0.833,1.436,1,0.05,0
17,1,1,5,0.703,1.654,0,0.06,0
17,1,0,4,0.768,1.123,1,0.06,0
17,1,1,5,0.671,1.435,0,0.05,0
17,0,1,4,1.929,1.34,1,0.06,0
17,0,1,5,0.64,1.368,0,0.05,0
17,1,1,5,1,1.256,0,0.06,0
17,0,0,4,1.038,1.164,0,0.06,0
17,0,1,4,0.654,1.826,1,0.05,0
17,1,1,3,0.668,1.559,1,0.05,0
17,0,1,4,0.84,1.46,0,0.05,0
17,0,0,2,1.05,1.273,1,0.06,0
17,1,1,2,1.727,2.686,0,0.06,0
17,0,0,1,3.333,0.658,1,0.06,0
17,1,1,2,2.113,0.829,0,0.06,0
17,0,0,5,0.712,1.358,1,0.05,0
17,1,1,4,1.085,1.225,1,0.06,0
17,0,0,6,0.535,0.979,0,0.05,0
17,0,1,5,0.785,1.461,1,0.06,0
17,0,0,5,0.795,1.53,0,0.05,0
17,1,1,5,0.637,0.878,0,0.04,0
17,1,1,2,1.849,2.529,1,0.05,0
17,1,1,4,1.317,1.135,1,0.05,0
17,1,1,5,0.801,1.421,1,0.04,0
17,1,0,4,0.844,1.104,1,0.04,0
17,0,0,1,0.698,0.776,0,0.04,0
17,1,0,2,0.756,2.061,1,0.04,0
17,0,1,3,0.925,1.42,1,0.04,0
17,1,1,5,0.955,1.935,0,0.03,0
17,1,0,3,1.579,1.92,1,0.03,0
17,0,1,4,0.751,1.389,1,0.03,0
17,1,1,2,1.637,0.987,1,0.03,0
17,1,1,2,1.002,1.178,0,0.03,0
17,0,0,3,0.734,1.271,1,0.03,0
17,0,0,3,0.628,1.404,1,0.03,0
17,0,0,3,3.665,1.47,1,0.03,0
17,0,0,5,0.654,1.253,1,0.03,0
17,1,0,4,1.054,1.295,1,0.03,0
17,0,0,5,0.831,1.647,0,0.02,0
17,0,1,4,0.685,1.217,0,0.02,0
17,0,0,5,0.599,1.433,0,0.03,0
17,1,1,4,0.951,1.194,0,0.03,0
17,1,1,2,0.9,1.464,0,0.02,0
17,1,1,5,0.821,1.556,0,0.02,0
17,1,1,4,1.274,1.734,0,0.01,0
17,0,1,5,0.792,1.126,0,0.01,0
17,0,1,4,0.644,2.473,1,0.02,0
17,1,1,5,0.585,1.44,1,0.02,0
17,1,1,2,0.918,1.637,0,0.02,0
17,0,0,3,1.221,1.756,0,0.02,0
17,1,1,4,0.666,1.522,0,0.01,0
17,0,1,2,0.659,1.288,0,0.01,0
17,0,1,4,1.342,1.507,0,0.02,0
17,1,1,4,0.752,1.185,1,0.03,0
17,0,1,5,0.706,2.088,1,0.03,0
17,1,1,5,0.588,1.321,1,0.02,0
17,0,0,4,0.819,2.111,0,0.03,0
17,0,1,3,0.69,2.175,1,0.02,0
17,1,1,4,0.989,2.055,0,0.03,0
17,1,0,2,2.027,1.449,1,0.01,0
17,1,1,6,0.605,1.284,0,0.02,0
17,1,1,3,0.677,1.237,1,0.01,0
17,0,0,5,0.607,1.115,0,0.02,0
17,0,0,3,0.62,1.509,1,0.02,0
17,0,1,3,1.649,1.265,0,0.01,0
17,1,0,4,1.175,1.323,1,0.02,0
17,1,1,1,0.654,1.378,0,0.02,0
17,1,1,2,1.107,1.527,0,0.02,0
17,0,1,2,0.66,0.94,0,0.01,0
17,0,1,3,0.573,1.27,0,0.02,0
17,1,1,4,0.755,1.709,1,0.01,0
17,1,0,2,2.503,1.56,0,0.03,0
17,0,0,2,0.735,1.077,1,0.01,0
17,1,NA,NA,0.615,0,0,0.04,1
17,1,1,4,0.74,1.728,1,0.02,0
17,1,0,2,0.868,0.975,0,0.04,0
17,0,0,5,0.578,1.564,0,0.05,0
17,0,0,6,0.899,1.042,0,0.05,0
17,0,0,3,2.05,1.402,1,0.03,0
17,0,0,4,0.834,1.136,0,0.04,0
17,0,0,4,1.085,1.304,1,0.03,0
17,0,1,4,0.655,1.49,1,0.02,0
17,1,1,4,0.96,1.189,0,0.04,0
17,1,0,2,1.095,1.604,1,0.02,0
17,0,1,4,1.506,2.666,1,0.01,0
17,1,1,5,0.687,1.01,0,0.03,0
17,1,0,4,1.088,0.959,1,0.02,0
17,0,0,2,2.037,0.738,0,0.03,0
17,0,0,5,0.689,1.273,1,0.02,0
17,1,0,2,1.386,1.819,0,0.02,0
17,1,1,2,0.734,0.881,1,0.01,0
17,0,1,3,1.006,1.958,1,0.02,0
18,1,1,5,0.59,1.677,0,0.07,0
18,0,1,3,0.558,1.696,1,0.07,0
18,1,1,3,0.573,0.68,1,0.07,0
18,0,0,4,0.548,0.878,1,0.07,0
18,1,1,2,0.96,1.059,1,0.07,0
18,1,1,3,0.653,0.858,1,0.07,0
18,0,1,2,1.226,1.409,1,0.07,0
18,1,1,4,0.646,0.922,0,0.07,0
18,1,1,4,0.738,0.738,1,0.07,0
18,0,0,4,0.747,0.789,0,0.06,0
18,0,0,4,1.056,1.129,0,0.06,0
18,1,1,5,0.608,0.777,0,0.05,0
18,0,0,1,1.119,1.838,0,0.05,0
18,1,1,4,0.657,0.92,0,0.04,0
18,1,1,3,0.998,0.873,0,0.04,0
18,0,0,2,0.925,0.856,1,0.06,0
18,0,1,4,0.717,1.678,0,0.03,0
18,0,0,3,0.484,0.745,0,0.04,0
18,1,0,1,0.754,0.776,1,0.06,0
18,0,1,3,0.906,1.007,0,0.04,0
18,0,1,1,0.576,0.541,0,0.05,0
18,1,1,2,1.183,0.724,1,0.05,0
18,0,1,4,1.388,0.966,1,0.05,0
18,0,0,6,0.672,1.158,0,0.06,0
18,1,0,2,0.989,0.969,1,0.04,0
18,1,1,3,0.699,1.604,0,0.06,0
18,0,0,5,0.522,0.611,0,0.05,0
18,1,0,4,0.59,2.086,0,0.05,0
18,0,1,3,0.653,1.273,1,0.04,0
18,0,1,3,1.123,0.862,1,0.03,0
18,0,0,3,7.142,1.947,1,0.04,0
18,1,0,1,24.259,1.465,1,0.04,0
18,1,NA,NA,5.777,0.001,1,0.05,1
18,1,1,3,0.752,1.153,1,0.06,0
18,1,0,2,1.253,0.779,0,0.06,0
18,0,0,4,0.676,1.344,0,0.07,0
18,0,0,4,1.167,1.547,1,0.06,0
18,1,1,5,0.939,0.528,0,0.07,0
18,1,0,3,0.651,1.054,0,0.06,0
18,0,0,1,0.544,0.59,1,0.06,0
18,1,0,3,0.949,0.955,1,0.05,0
18,0,0,3,0.507,1.067,1,0.05,0
18,1,1,2,0.892,0.861,0,0.07,0
18,0,0,2,0.891,1.191,0,0.07,0
18,1,1,2,0.638,1.085,0,0.06,0
18,1,0,4,0.576,0.587,0,0.06,0
18,1,0,1,0.67,1.2,0,0.07,0
