Subj_idx,Stimulus,Response,Confidence,RT_dec,RT_conf,Condition,Trial_in_block,Response_key,Corr_resp,Scale_key,Age,Gender,Exp.name,Date,Block
1,1,1,4,0.601,0.517,nofeedback,0,e,e,0,23,F,GabornFF_PAS,2018_kwi_09_1325,1
1,2,1,3,0.85,0.517,nofeedback,1,e,r,9,23,F,GabornFF_PAS,2018_kwi_09_1325,1
1,2,2,2,1.067,1.35,nofeedback,2,r,r,8,23,F,GabornFF_PAS,2018_kwi_09_1325,1
1,1,1,4,0.917,0.384,nofeedback,3,e,e,0,23,F,GabornFF_PAS,2018_kwi_09_1325,1
1,1,1,4,0.5,0.384,nofeedback,4,e,e,0,23,F,GabornFF_PAS,2018_kwi_09_1325,1
1,2,1,4,0.567,0.334,nofeedback,5,e,r,0,23,F,GabornFF_PAS,2018_kwi_09_1325,1
1,1,1,4,0.551,0.251,nofeedback,6,e,e,0,23,F,GabornFF_PAS,2018_kwi_09_1325,1
1,2,1,4,0.484,0.484,nofeedback,7,e,r,0,23,F,GabornFF_PAS,2018_kwi_09_1325,1
1,2,1,4,0.667,0.334,nofeedback,8,e,r,0,23,F,GabornFF_PAS,2018_kwi_09_1325,1
1,1,1,4,0.551,0.35,nofeedback,9,e,e,0,23,F,GabornFF_PAS,2018_kwi_09_1325,1
1,2,1,4,0.634,0.333,nofeedback,10,e,r,0,23,F,GabornFF_PAS,2018_kwi_09_1325,1
1,1,1,4,0.5,0.251,nofeedback,11,e,e,0,23,F,GabornFF_PAS,2018_kwi_09_1325,1
1,1,1,4,0.484,0.334,nofeedback,12,e,e,0,23,F,GabornFF_PAS,2018_kwi_09_1325,1
1,2,1,4,0.5,0.334,nofeedback,13,e,r,0,23,F,GabornFF_PAS,2018_kwi_09_1325,1
1,2,2,1,0.95,1.001,nofeedback,14,r,r,7,23,F,GabornFF_PAS,2018_kwi_09_1325,1
1,1,1,4,0.734,0.334,nofeedback,15,e,e,0,23,F,GabornFF_PAS,2018_kwi_09_1325,1
1,1,1,4,0.517,0.251,nofeedback,16,e,e,0,23,F,GabornFF_PAS,2018_kwi_09_1325,1
1,2,1,4,0.967,0.284,nofeedback,17,e,r,0,23,F,GabornFF_PAS,2018_kwi_09_1325,1
1,2,1,4,0.651,0.317,nofeedback,18,e,r,0,23,F,GabornFF_PAS,2018_kwi_09_1325,1
1,1,1,4,0.5,0.317,nofeedback,19,e,e,0,23,F,GabornFF_PAS,2018_kwi_09_1325,1
1,2,1,4,0.584,0.3,nofeedback,20,e,r,0,23,F,GabornFF_PAS,2018_kwi_09_1325,1
1,1,1,4,0.567,0.25,nofeedback,21,e,e,0,23,F,GabornFF_PAS,2018_kwi_09_1325,1
1,1,1,3,0.867,0.217,nofeedback,22,e,e,9,23,F,GabornFF_PAS,2018_kwi_09_1325,1
1,2,2,1,1.167,1.167,nofeedback,23,r,r,7,23,F,GabornFF_PAS,2018_kwi_09_1325,1
1,1,1,4,0.667,0.384,nofeedback,24,e,e,0,23,F,GabornFF_PAS,2018_kwi_09_1325,1
1,2,1,3,0.667,0.45,nofeedback,25,e,r,9,23,F,GabornFF_PAS,2018_kwi_09_1325,1
1,2,1,2,0.967,0.4,nofeedback,26,e,r,8,23,F,GabornFF_PAS,2018_kwi_09_1325,1
1,1,1,2,0.551,0.334,nofeedback,27,e,e,8,23,F,GabornFF_PAS,2018_kwi_09_1325,1
1,1,1,2,0.55,0.317,nofeedback,28,e,e,8,23,F,GabornFF_PAS,2018_kwi_09_1325,1
1,2,1,3,0.734,0.684,nofeedback,29,e,r,9,23,F,GabornFF_PAS,2018_kwi_09_1325,1
1,1,1,4,0.567,0.317,nofeedback,30,e,e,0,23,F,GabornFF_PAS,2018_kwi_09_1325,1
1,2,1,4,0.484,0.467,nofeedback,31,e,r,0,23,F,GabornFF_PAS,2018_kwi_09_1325,1
1,2,1,4,0.601,0.3,nofeedback,32,e,r,0,23,F,GabornFF_PAS,2018_kwi_09_1325,1
1,1,1,3,0.517,0.267,nofeedback,33,e,e,9,23,F,GabornFF_PAS,2018_kwi_09_1325,1
1,2,1,3,1.05,0.267,nofeedback,34,e,r,9,23,F,GabornFF_PAS,2018_kwi_09_1325,1
1,1,1,3,0.534,0.217,nofeedback,35,e,e,9,23,F,GabornFF_PAS,2018_kwi_09_1325,1
1,2,2,2,1.2,1.6,nofeedback,36,r,r,8,23,F,GabornFF_PAS,2018_kwi_09_1325,1
1,1,1,3,0.534,0.417,nofeedback,37,e,e,9,23,F,GabornFF_PAS,2018_kwi_09_1325,1
1,1,1,3,0.467,0.284,nofeedback,38,e,e,9,23,F,GabornFF_PAS,2018_kwi_09_1325,1
1,2,2,2,0.934,0.784,nofeedback,39,r,r,8,23,F,GabornFF_PAS,2018_kwi_09_1325,1
1,2,2,2,1.034,0.283,nofeedback,40,r,r,8,23,F,GabornFF_PAS,2018_kwi_09_1325,1
1,1,1,4,0.617,0.317,nofeedback,41,e,e,0,23,F,GabornFF_PAS,2018_kwi_09_1325,1
1,1,1,3,0.517,0.367,nofeedback,42,e,e,9,23,F,GabornFF_PAS,2018_kwi_09_1325,1
1,2,2,2,0.95,0.317,nofeedback,43,r,r,8,23,F,GabornFF_PAS,2018_kwi_09_1325,1
1,1,1,4,0.85,0.434,nofeedback,44,e,e,0,23,F,GabornFF_PAS,2018_kwi_09_1325,1
1,2,2,2,0.734,0.434,nofeedback,45,r,r,8,23,F,GabornFF_PAS,2018_kwi_09_1325,1
1,2,1,4,1.1,0.401,nofeedback,46,e,r,0,23,F,GabornFF_PAS,2018_kwi_09_1325,1
1,1,1,4,0.601,0.367,nofeedback,47,e,e,0,23,F,GabornFF_PAS,2018_kwi_09_1325,1
1,2,1,3,0.534,0.65,nofeedback,48,e,r,9,23,F,GabornFF_PAS,2018_kwi_09_1325,1
1,1,1,3,0.934,0.7,nofeedback,49,e,e,9,23,F,GabornFF_PAS,2018_kwi_09_1325,1
1,1,NaN,NaN,NaN,NaN,nofeedback,50,NaN,e,NaN,23,F,GabornFF_PAS,2018_kwi_09_1325,1
1,2,NaN,1,NaN,1.384,nofeedback,51,NaN,r,7,23,F,GabornFF_PAS,2018_kwi_09_1325,1
1,2,1,2,1.267,1.517,nofeedback,52,e,r,8,23,F,GabornFF_PAS,2018_kwi_09_1325,1
1,1,1,3,0.867,0.334,nofeedback,53,e,e,9,23,F,GabornFF_PAS,2018_kwi_09_1325,1
1,1,1,3,0.5,0.217,nofeedback,54,e,e,9,23,F,GabornFF_PAS,2018_kwi_09_1325,1
1,2,2,2,0.9,1.017,nofeedback,55,r,r,8,23,F,GabornFF_PAS,2018_kwi_09_1325,1
1,2,2,2,0.95,0.517,nofeedback,56,r,r,8,23,F,GabornFF_PAS,2018_kwi_09_1325,1
1,1,1,3,0.55,0.451,nofeedback,57,e,e,9,23,F,GabornFF_PAS,2018_kwi_09_1325,1
1,2,2,2,1.051,0.651,nofeedback,58,r,r,8,23,F,GabornFF_PAS,2018_kwi_09_1325,1
1,1,1,3,0.734,0.334,nofeedback,59,e,e,9,23,F,GabornFF_PAS,2018_kwi_09_1325,1
1,2,2,2,0.834,0.434,nofeedback,60,r,r,8,23,F,GabornFF_PAS,2018_kwi_09_1325,1
1,1,1,4,0.8,0.434,nofeedback,61,e,e,0,23,F,GabornFF_PAS,2018_kwi_09_1325,1
1,1,1,3,0.584,0.35,nofeedback,62,e,e,9,23,F,GabornFF_PAS,2018_kwi_09_1325,1
1,2,2,1,0.934,0.717,nofeedback,63,r,r,7,23,F,GabornFF_PAS,2018_kwi_09_1325,1
1,2,1,3,0.667,0.3,nofeedback,64,e,r,9,23,F,GabornFF_PAS,2018_kwi_09_1325,1
1,1,1,3,0.7,0.284,nofeedback,65,e,e,9,23,F,GabornFF_PAS,2018_kwi_09_1325,1
1,2,2,2,0.901,0.467,nofeedback,66,r,r,8,23,F,GabornFF_PAS,2018_kwi_09_1325,1
1,1,1,3,0.55,0.267,nofeedback,67,e,e,9,23,F,GabornFF_PAS,2018_kwi_09_1325,1
1,1,1,3,0.567,0.2,nofeedback,68,e,e,9,23,F,GabornFF_PAS,2018_kwi_09_1325,1
1,2,2,2,0.95,0.767,nofeedback,69,r,r,8,23,F,GabornFF_PAS,2018_kwi_09_1325,1
1,1,1,3,0.617,0.284,nofeedback,70,e,e,9,23,F,GabornFF_PAS,2018_kwi_09_1325,1
1,2,2,2,0.85,0.334,nofeedback,71,r,r,8,23,F,GabornFF_PAS,2018_kwi_09_1325,1
1,1,1,3,0.467,0.3,nofeedback,72,e,e,9,23,F,GabornFF_PAS,2018_kwi_09_1325,1
1,2,1,3,1.101,0.234,nofeedback,73,e,r,9,23,F,GabornFF_PAS,2018_kwi_09_1325,1
1,2,2,1,0.817,1.2,nofeedback,74,r,r,7,23,F,GabornFF_PAS,2018_kwi_09_1325,1
1,1,1,3,0.834,0.334,nofeedback,75,e,e,9,23,F,GabornFF_PAS,2018_kwi_09_1325,1
1,1,1,3,0.65,0.25,nofeedback,76,e,e,9,23,F,GabornFF_PAS,2018_kwi_09_1325,1
1,2,2,1,1.434,0.75,nofeedback,77,r,r,7,23,F,GabornFF_PAS,2018_kwi_09_1325,1
1,1,1,3,0.534,0.25,nofeedback,78,e,e,9,23,F,GabornFF_PAS,2018_kwi_09_1325,1
1,2,2,2,1.3,0.384,nofeedback,79,r,r,8,23,F,GabornFF_PAS,2018_kwi_09_1325,1
1,1,1,3,2.119,0.417,nofeedback,80,e,e,9,23,F,GabornFF_PAS,2018_kwi_09_1325,1
1,2,2,2,1.067,1.284,nofeedback,81,r,r,8,23,F,GabornFF_PAS,2018_kwi_09_1325,1
1,2,1,3,1.367,0.65,nofeedback,82,e,r,9,23,F,GabornFF_PAS,2018_kwi_09_1325,1
1,1,1,3,0.551,0.534,nofeedback,83,e,e,9,23,F,GabornFF_PAS,2018_kwi_09_1325,1
1,2,2,2,1.034,1.017,nofeedback,84,r,r,8,23,F,GabornFF_PAS,2018_kwi_09_1325,1
1,1,1,3,0.684,0.384,nofeedback,85,e,e,9,23,F,GabornFF_PAS,2018_kwi_09_1325,1
1,2,1,3,0.8,0.317,nofeedback,86,e,r,9,23,F,GabornFF_PAS,2018_kwi_09_1325,1
1,1,1,3,0.884,0.334,nofeedback,87,e,e,9,23,F,GabornFF_PAS,2018_kwi_09_1325,1
1,1,1,3,0.484,0.267,nofeedback,88,e,e,9,23,F,GabornFF_PAS,2018_kwi_09_1325,1
1,2,1,3,0.584,0.451,nofeedback,89,e,r,9,23,F,GabornFF_PAS,2018_kwi_09_1325,1
1,2,2,2,0.75,0.534,nofeedback,90,r,r,8,23,F,GabornFF_PAS,2018_kwi_09_1325,1
1,1,1,3,0.6,0.25,nofeedback,91,e,e,9,23,F,GabornFF_PAS,2018_kwi_09_1325,1
1,1,1,3,0.9,0.217,nofeedback,92,e,e,9,23,F,GabornFF_PAS,2018_kwi_09_1325,1
1,2,2,1,0.9,0.834,nofeedback,93,r,r,7,23,F,GabornFF_PAS,2018_kwi_09_1325,1
1,1,1,3,0.817,0.25,nofeedback,94,e,e,9,23,F,GabornFF_PAS,2018_kwi_09_1325,1
1,2,1,3,0.567,0.167,nofeedback,95,e,r,9,23,F,GabornFF_PAS,2018_kwi_09_1325,1
1,2,2,2,0.8,0.45,nofeedback,96,r,r,8,23,F,GabornFF_PAS,2018_kwi_09_1325,1
1,1,1,3,0.583,0.217,nofeedback,97,e,e,9,23,F,GabornFF_PAS,2018_kwi_09_1325,1
1,1,1,3,0.517,0.167,nofeedback,98,e,e,9,23,F,GabornFF_PAS,2018_kwi_09_1325,1
1,2,2,2,0.917,0.55,nofeedback,99,r,r,8,23,F,GabornFF_PAS,2018_kwi_09_1325,1
1,1,1,3,0.717,0.334,nofeedback,100,e,e,9,23,F,GabornFF_PAS,2018_kwi_09_1325,1
1,2,2,2,0.683,0.55,nofeedback,101,r,r,8,23,F,GabornFF_PAS,2018_kwi_09_1325,1
1,1,1,3,0.534,0.267,nofeedback,102,e,e,9,23,F,GabornFF_PAS,2018_kwi_09_1325,1
1,2,2,2,0.7,0.267,nofeedback,103,r,r,8,23,F,GabornFF_PAS,2018_kwi_09_1325,1
1,2,2,1,1.067,0.4,nofeedback,104,r,r,7,23,F,GabornFF_PAS,2018_kwi_09_1325,1
1,1,1,3,0.567,0.317,nofeedback,105,e,e,9,23,F,GabornFF_PAS,2018_kwi_09_1325,1
1,1,1,3,0.434,0.217,nofeedback,106,e,e,9,23,F,GabornFF_PAS,2018_kwi_09_1325,1
1,2,2,1,0.767,0.384,nofeedback,107,r,r,7,23,F,GabornFF_PAS,2018_kwi_09_1325,1
1,2,2,1,0.734,0.4,nofeedback,108,r,r,7,23,F,GabornFF_PAS,2018_kwi_09_1325,1
1,1,1,3,0.684,0.351,nofeedback,109,e,e,9,23,F,GabornFF_PAS,2018_kwi_09_1325,1
1,1,1,3,0.484,0.234,nofeedback,110,e,e,9,23,F,GabornFF_PAS,2018_kwi_09_1325,1
1,2,2,1,0.684,0.567,nofeedback,111,r,r,7,23,F,GabornFF_PAS,2018_kwi_09_1325,1
1,2,1,3,0.634,0.25,nofeedback,112,e,r,9,23,F,GabornFF_PAS,2018_kwi_09_1325,1
1,1,1,3,0.667,0.217,nofeedback,113,e,e,9,23,F,GabornFF_PAS,2018_kwi_09_1325,1
1,1,1,4,0.7,0.284,nofeedback,114,e,e,0,23,F,GabornFF_PAS,2018_kwi_09_1325,1
1,2,2,2,1.001,0.784,nofeedback,115,r,r,8,23,F,GabornFF_PAS,2018_kwi_09_1325,1
1,2,2,2,0.85,0.267,nofeedback,116,r,r,8,23,F,GabornFF_PAS,2018_kwi_09_1325,1
1,1,1,2,0.75,0.551,nofeedback,117,e,e,8,23,F,GabornFF_PAS,2018_kwi_09_1325,1
1,1,1,3,0.667,0.25,nofeedback,118,e,e,9,23,F,GabornFF_PAS,2018_kwi_09_1325,1
1,2,2,3,0.867,0.667,nofeedback,119,r,r,9,23,F,GabornFF_PAS,2018_kwi_09_1325,1
1,1,1,3,0.567,0.234,nofeedback,120,e,e,9,23,F,GabornFF_PAS,2018_kwi_09_1325,1
1,2,2,2,1.45,0.35,nofeedback,121,r,r,8,23,F,GabornFF_PAS,2018_kwi_09_1325,1
1,1,1,2,0.817,0.3,nofeedback,122,e,e,8,23,F,GabornFF_PAS,2018_kwi_09_1325,1
1,2,1,2,0.767,0.25,nofeedback,123,e,r,8,23,F,GabornFF_PAS,2018_kwi_09_1325,1
1,1,1,3,0.834,0.317,nofeedback,124,e,e,9,23,F,GabornFF_PAS,2018_kwi_09_1325,1
1,2,1,2,0.467,0.334,nofeedback,125,e,r,8,23,F,GabornFF_PAS,2018_kwi_09_1325,1
1,2,2,2,1.35,0.35,nofeedback,126,r,r,8,23,F,GabornFF_PAS,2018_kwi_09_1325,1
1,1,2,2,0.817,0.584,nofeedback,127,r,e,8,23,F,GabornFF_PAS,2018_kwi_09_1325,1
1,1,1,3,0.567,0.284,nofeedback,128,e,e,9,23,F,GabornFF_PAS,2018_kwi_09_1325,1
1,2,2,2,0.917,0.284,nofeedback,129,r,r,8,23,F,GabornFF_PAS,2018_kwi_09_1325,1
1,1,1,3,0.784,0.284,nofeedback,130,e,e,9,23,F,GabornFF_PAS,2018_kwi_09_1325,1
1,2,2,2,1,0.484,nofeedback,131,r,r,8,23,F,GabornFF_PAS,2018_kwi_09_1325,1
1,2,1,2,0.667,0.334,nofeedback,132,e,r,8,23,F,GabornFF_PAS,2018_kwi_09_1325,1
1,1,1,2,1.201,0.284,nofeedback,133,e,e,8,23,F,GabornFF_PAS,2018_kwi_09_1325,1
1,1,1,2,1.35,0.617,nofeedback,134,e,e,8,23,F,GabornFF_PAS,2018_kwi_09_1325,1
1,2,1,2,0.667,0.2,nofeedback,135,e,r,8,23,F,GabornFF_PAS,2018_kwi_09_1325,1
1,1,1,3,0.65,0.234,nofeedback,136,e,e,9,23,F,GabornFF_PAS,2018_kwi_09_1325,1
1,2,2,1,0.734,0.55,nofeedback,137,r,r,7,23,F,GabornFF_PAS,2018_kwi_09_1325,1
1,1,1,3,0.8,0.25,nofeedback,138,e,e,9,23,F,GabornFF_PAS,2018_kwi_09_1325,1
1,2,2,3,0.884,0.384,nofeedback,139,r,r,9,23,F,GabornFF_PAS,2018_kwi_09_1325,1
1,2,2,2,1.067,0.934,nofeedback,140,r,r,8,23,F,GabornFF_PAS,2018_kwi_09_1325,1
1,1,1,3,0.7,0.284,nofeedback,141,e,e,9,23,F,GabornFF_PAS,2018_kwi_09_1325,1
1,2,2,1,0.784,0.517,nofeedback,142,r,r,7,23,F,GabornFF_PAS,2018_kwi_09_1325,1
1,1,1,2,0.817,0.967,nofeedback,143,e,e,8,23,F,GabornFF_PAS,2018_kwi_09_1325,1
1,2,2,2,1.167,0.351,nofeedback,144,r,r,8,23,F,GabornFF_PAS,2018_kwi_09_1325,1
1,1,1,3,0.65,0.35,nofeedback,145,e,e,9,23,F,GabornFF_PAS,2018_kwi_09_1325,1
1,1,1,3,0.684,0.217,nofeedback,146,e,e,9,23,F,GabornFF_PAS,2018_kwi_09_1325,1
1,2,2,2,0.8,0.3,nofeedback,147,r,r,8,23,F,GabornFF_PAS,2018_kwi_09_1325,1
1,1,1,3,0.6,0.317,nofeedback,148,e,e,9,23,F,GabornFF_PAS,2018_kwi_09_1325,1
1,2,2,2,0.75,0.251,nofeedback,149,r,r,8,23,F,GabornFF_PAS,2018_kwi_09_1325,1
1,1,1,3,1.717,0.584,nofeedback,150,e,e,9,23,F,GabornFF_PAS,2018_kwi_09_1325,1
1,2,NaN,1,NaN,1.467,nofeedback,151,NaN,r,7,23,F,GabornFF_PAS,2018_kwi_09_1325,1
1,2,1,1,1.551,0.634,nofeedback,152,e,r,7,23,F,GabornFF_PAS,2018_kwi_09_1325,1
1,1,1,3,0.834,0.284,nofeedback,153,e,e,9,23,F,GabornFF_PAS,2018_kwi_09_1325,1
1,2,2,2,0.717,0.617,nofeedback,154,r,r,8,23,F,GabornFF_PAS,2018_kwi_09_1325,1
1,1,1,3,0.65,0.184,nofeedback,155,e,e,9,23,F,GabornFF_PAS,2018_kwi_09_1325,1
1,2,2,2,1.25,0.534,nofeedback,156,r,r,8,23,F,GabornFF_PAS,2018_kwi_09_1325,1
1,1,1,3,0.517,0.25,nofeedback,157,e,e,9,23,F,GabornFF_PAS,2018_kwi_09_1325,1
1,1,1,3,0.534,0.15,nofeedback,158,e,e,9,23,F,GabornFF_PAS,2018_kwi_09_1325,1
1,2,1,3,0.517,0.184,nofeedback,159,e,r,9,23,F,GabornFF_PAS,2018_kwi_09_1325,1
1,1,1,3,0.417,0.233,nofeedback,160,e,e,9,23,F,GabornFF_PAS,2018_kwi_09_1325,1
1,2,2,2,0.667,0.417,nofeedback,161,r,r,8,23,F,GabornFF_PAS,2018_kwi_09_1325,1
1,1,1,3,0.617,0.217,nofeedback,162,e,e,9,23,F,GabornFF_PAS,2018_kwi_09_1325,1
1,2,2,2,1.317,0.417,nofeedback,163,r,r,8,23,F,GabornFF_PAS,2018_kwi_09_1325,1
1,2,2,1,1.484,0.584,nofeedback,164,r,r,7,23,F,GabornFF_PAS,2018_kwi_09_1325,1
1,1,1,3,0.784,0.667,nofeedback,165,e,e,9,23,F,GabornFF_PAS,2018_kwi_09_1325,1
1,1,1,3,0.517,0.267,nofeedback,166,e,e,9,23,F,GabornFF_PAS,2018_kwi_09_1325,1
1,2,2,2,0.8,0.45,nofeedback,167,r,r,8,23,F,GabornFF_PAS,2018_kwi_09_1325,1
1,1,1,3,0.467,0.234,nofeedback,168,e,e,9,23,F,GabornFF_PAS,2018_kwi_09_1325,1
1,2,2,2,1.117,0.3,nofeedback,169,r,r,8,23,F,GabornFF_PAS,2018_kwi_09_1325,1
1,2,2,2,1.117,0.384,nofeedback,170,r,r,8,23,F,GabornFF_PAS,2018_kwi_09_1325,1
1,1,1,3,0.584,0.284,nofeedback,171,e,e,9,23,F,GabornFF_PAS,2018_kwi_09_1325,1
1,1,1,3,0.617,0.233,nofeedback,172,e,e,9,23,F,GabornFF_PAS,2018_kwi_09_1325,1
1,2,2,3,0.9,0.25,nofeedback,173,r,r,9,23,F,GabornFF_PAS,2018_kwi_09_1325,1
1,2,2,2,0.967,0.351,nofeedback,174,r,r,8,23,F,GabornFF_PAS,2018_kwi_09_1325,1
1,1,1,3,0.584,0.334,nofeedback,175,e,e,9,23,F,GabornFF_PAS,2018_kwi_09_1325,1
1,2,2,3,0.95,0.384,nofeedback,176,r,r,9,23,F,GabornFF_PAS,2018_kwi_09_1325,1
1,1,1,3,0.633,0.351,nofeedback,177,e,e,9,23,F,GabornFF_PAS,2018_kwi_09_1325,1
1,1,1,3,0.984,0.4,nofeedback,178,e,e,9,23,F,GabornFF_PAS,2018_kwi_09_1325,1
1,2,2,3,0.767,0.267,nofeedback,179,r,r,9,23,F,GabornFF_PAS,2018_kwi_09_1325,1
1,2,2,2,0.934,0.35,nofeedback,180,r,r,8,23,F,GabornFF_PAS,2018_kwi_09_1325,1
1,1,1,3,0.684,0.984,nofeedback,181,e,e,9,23,F,GabornFF_PAS,2018_kwi_09_1325,1
1,1,2,2,1.134,0.667,nofeedback,182,r,e,8,23,F,GabornFF_PAS,2018_kwi_09_1325,1
1,2,2,2,0.784,0.35,nofeedback,183,r,r,8,23,F,GabornFF_PAS,2018_kwi_09_1325,1
1,1,1,3,0.584,0.367,nofeedback,184,e,e,9,23,F,GabornFF_PAS,2018_kwi_09_1325,1
1,2,2,3,0.734,1.334,nofeedback,185,r,r,9,23,F,GabornFF_PAS,2018_kwi_09_1325,1
1,1,1,3,0.65,0.367,nofeedback,186,e,e,9,23,F,GabornFF_PAS,2018_kwi_09_1325,1
1,2,2,2,0.867,0.484,nofeedback,187,r,r,8,23,F,GabornFF_PAS,2018_kwi_09_1325,1
1,1,1,2,0.85,0.35,nofeedback,188,e,e,8,23,F,GabornFF_PAS,2018_kwi_09_1325,1
1,2,2,2,0.717,0.334,nofeedback,189,r,r,8,23,F,GabornFF_PAS,2018_kwi_09_1325,1
1,2,2,2,0.75,1.484,nofeedback,190,r,r,8,23,F,GabornFF_PAS,2018_kwi_09_1325,1
1,1,1,3,0.6,0.3,nofeedback,191,e,e,9,23,F,GabornFF_PAS,2018_kwi_09_1325,1
1,2,2,3,1.451,0.584,nofeedback,192,r,r,9,23,F,GabornFF_PAS,2018_kwi_09_1325,1
1,1,2,2,1.217,0.633,nofeedback,193,r,e,8,23,F,GabornFF_PAS,2018_kwi_09_1325,1
1,1,1,3,1.067,0.367,nofeedback,194,e,e,9,23,F,GabornFF_PAS,2018_kwi_09_1325,1
1,2,2,2,0.7,0.351,nofeedback,195,r,r,8,23,F,GabornFF_PAS,2018_kwi_09_1325,1
1,2,2,2,1.217,0.367,nofeedback,196,r,r,8,23,F,GabornFF_PAS,2018_kwi_09_1325,1
1,1,2,2,1.717,0.267,nofeedback,197,r,e,8,23,F,GabornFF_PAS,2018_kwi_09_1325,1
1,1,2,2,0.684,0.217,nofeedback,198,r,e,8,23,F,GabornFF_PAS,2018_kwi_09_1325,1
1,2,2,2,1.2,0.551,nofeedback,199,r,r,8,23,F,GabornFF_PAS,2018_kwi_09_1325,1
1,2,1,1,1.317,0.517,feedback,0,e,r,7,23,F,GabornFF_PAS,2018_kwi_09_1325,2
1,1,1,3,0.817,0.567,feedback,1,e,e,9,23,F,GabornFF_PAS,2018_kwi_09_1325,2
1,1,1,3,0.751,0.267,feedback,2,e,e,9,23,F,GabornFF_PAS,2018_kwi_09_1325,2
1,2,2,2,0.834,0.284,feedback,3,r,r,8,23,F,GabornFF_PAS,2018_kwi_09_1325,2
1,1,1,2,0.984,0.3,feedback,4,e,e,8,23,F,GabornFF_PAS,2018_kwi_09_1325,2
1,2,2,2,1.001,0.25,feedback,5,r,r,8,23,F,GabornFF_PAS,2018_kwi_09_1325,2
1,1,1,3,0.684,0.267,feedback,6,e,e,9,23,F,GabornFF_PAS,2018_kwi_09_1325,2
1,2,2,2,0.584,0.267,feedback,7,r,r,8,23,F,GabornFF_PAS,2018_kwi_09_1325,2
1,2,2,2,0.734,0.234,feedback,8,r,r,8,23,F,GabornFF_PAS,2018_kwi_09_1325,2
1,1,1,3,0.45,0.267,feedback,9,e,e,9,23,F,GabornFF_PAS,2018_kwi_09_1325,2
1,2,2,2,0.867,0.234,feedback,10,r,r,8,23,F,GabornFF_PAS,2018_kwi_09_1325,2
1,1,1,3,0.584,0.251,feedback,11,e,e,9,23,F,GabornFF_PAS,2018_kwi_09_1325,2
1,1,1,3,0.75,0.451,feedback,12,e,e,9,23,F,GabornFF_PAS,2018_kwi_09_1325,2
1,2,2,3,0.717,0.384,feedback,13,r,r,9,23,F,GabornFF_PAS,2018_kwi_09_1325,2
1,1,1,3,0.584,0.284,feedback,14,e,e,9,23,F,GabornFF_PAS,2018_kwi_09_1325,2
1,2,2,3,0.784,0.234,feedback,15,r,r,9,23,F,GabornFF_PAS,2018_kwi_09_1325,2
1,1,1,3,0.567,0.25,feedback,16,e,e,9,23,F,GabornFF_PAS,2018_kwi_09_1325,2
1,2,2,3,0.634,0.267,feedback,17,r,r,9,23,F,GabornFF_PAS,2018_kwi_09_1325,2
1,1,1,3,0.467,0.267,feedback,18,e,e,9,23,F,GabornFF_PAS,2018_kwi_09_1325,2
1,2,1,3,0.767,0.234,feedback,19,e,r,9,23,F,GabornFF_PAS,2018_kwi_09_1325,2
1,2,2,3,0.884,0.3,feedback,20,r,r,9,23,F,GabornFF_PAS,2018_kwi_09_1325,2
1,1,1,3,0.634,0.267,feedback,21,e,e,9,23,F,GabornFF_PAS,2018_kwi_09_1325,2
1,2,1,3,0.984,0.217,feedback,22,e,r,9,23,F,GabornFF_PAS,2018_kwi_09_1325,2
1,1,1,3,0.7,0.25,feedback,23,e,e,9,23,F,GabornFF_PAS,2018_kwi_09_1325,2
1,1,2,3,0.734,0.217,feedback,24,r,e,9,23,F,GabornFF_PAS,2018_kwi_09_1325,2
1,2,2,3,0.701,0.167,feedback,25,r,r,9,23,F,GabornFF_PAS,2018_kwi_09_1325,2
1,2,2,2,0.917,0.234,feedback,26,r,r,8,23,F,GabornFF_PAS,2018_kwi_09_1325,2
1,1,1,2,1.251,0.234,feedback,27,e,e,8,23,F,GabornFF_PAS,2018_kwi_09_1325,2
1,1,1,2,0.7,0.25,feedback,28,e,e,8,23,F,GabornFF_PAS,2018_kwi_09_1325,2
1,2,2,2,0.701,0.2,feedback,29,r,r,8,23,F,GabornFF_PAS,2018_kwi_09_1325,2
1,2,2,2,0.684,0.184,feedback,30,r,r,8,23,F,GabornFF_PAS,2018_kwi_09_1325,2
1,1,1,3,0.901,0.234,feedback,31,e,e,9,23,F,GabornFF_PAS,2018_kwi_09_1325,2
1,1,1,3,0.584,0.184,feedback,32,e,e,9,23,F,GabornFF_PAS,2018_kwi_09_1325,2
1,2,2,2,0.684,0.234,feedback,33,r,r,8,23,F,GabornFF_PAS,2018_kwi_09_1325,2
1,2,2,2,0.717,0.2,feedback,34,r,r,8,23,F,GabornFF_PAS,2018_kwi_09_1325,2
1,1,1,2,0.601,0.251,feedback,35,e,e,8,23,F,GabornFF_PAS,2018_kwi_09_1325,2
1,2,2,3,0.717,0.283,feedback,36,r,r,9,23,F,GabornFF_PAS,2018_kwi_09_1325,2
1,1,1,2,0.834,0.184,feedback,37,e,e,8,23,F,GabornFF_PAS,2018_kwi_09_1325,2
1,2,2,2,0.534,0.217,feedback,38,r,r,8,23,F,GabornFF_PAS,2018_kwi_09_1325,2
1,1,1,3,0.717,0.184,feedback,39,e,e,9,23,F,GabornFF_PAS,2018_kwi_09_1325,2
1,1,1,4,0.967,0.284,feedback,40,e,e,0,23,F,GabornFF_PAS,2018_kwi_09_1325,2
1,2,2,3,0.65,0.317,feedback,41,r,r,9,23,F,GabornFF_PAS,2018_kwi_09_1325,2
1,1,1,4,0.601,0.25,feedback,42,e,e,0,23,F,GabornFF_PAS,2018_kwi_09_1325,2
1,2,2,3,0.784,0.267,feedback,43,r,r,9,23,F,GabornFF_PAS,2018_kwi_09_1325,2
1,2,2,3,0.717,0.217,feedback,44,r,r,9,23,F,GabornFF_PAS,2018_kwi_09_1325,2
1,1,2,3,1.35,0.4,feedback,45,r,e,9,23,F,GabornFF_PAS,2018_kwi_09_1325,2
1,1,2,3,0.717,0.4,feedback,46,r,e,9,23,F,GabornFF_PAS,2018_kwi_09_1325,2
1,2,2,3,0.601,0.634,feedback,47,r,r,9,23,F,GabornFF_PAS,2018_kwi_09_1325,2
1,1,1,3,0.65,0.234,feedback,48,e,e,9,23,F,GabornFF_PAS,2018_kwi_09_1325,2
1,2,2,2,0.584,0.267,feedback,49,r,r,8,23,F,GabornFF_PAS,2018_kwi_09_1325,2
1,2,2,2,1.334,0.251,feedback,50,r,r,8,23,F,GabornFF_PAS,2018_kwi_09_1325,2
1,1,1,3,0.734,0.25,feedback,51,e,e,9,23,F,GabornFF_PAS,2018_kwi_09_1325,2
1,2,2,3,0.567,0.217,feedback,52,r,r,9,23,F,GabornFF_PAS,2018_kwi_09_1325,2
1,1,1,3,0.684,0.217,feedback,53,e,e,9,23,F,GabornFF_PAS,2018_kwi_09_1325,2
1,1,1,3,0.617,0.184,feedback,54,e,e,9,23,F,GabornFF_PAS,2018_kwi_09_1325,2
1,2,2,3,0.634,0.167,feedback,55,r,r,9,23,F,GabornFF_PAS,2018_kwi_09_1325,2
1,2,2,3,0.534,0.167,feedback,56,r,r,9,23,F,GabornFF_PAS,2018_kwi_09_1325,2
1,1,1,3,0.584,0.184,feedback,57,e,e,9,23,F,GabornFF_PAS,2018_kwi_09_1325,2
1,2,2,3,0.801,0.217,feedback,58,r,r,9,23,F,GabornFF_PAS,2018_kwi_09_1325,2
1,1,1,3,0.65,0.2,feedback,59,e,e,9,23,F,GabornFF_PAS,2018_kwi_09_1325,2
1,2,2,2,0.617,0.184,feedback,60,r,r,8,23,F,GabornFF_PAS,2018_kwi_09_1325,2
1,1,1,3,0.5,0.2,feedback,61,e,e,9,23,F,GabornFF_PAS,2018_kwi_09_1325,2
1,2,2,3,0.734,0.25,feedback,62,r,r,9,23,F,GabornFF_PAS,2018_kwi_09_1325,2
1,1,1,3,0.517,0.217,feedback,63,e,e,9,23,F,GabornFF_PAS,2018_kwi_09_1325,2
1,1,1,3,0.7,0.25,feedback,64,e,e,9,23,F,GabornFF_PAS,2018_kwi_09_1325,2
1,2,2,3,0.817,0.2,feedback,65,r,r,9,23,F,GabornFF_PAS,2018_kwi_09_1325,2
1,1,1,3,0.45,0.217,feedback,66,e,e,9,23,F,GabornFF_PAS,2018_kwi_09_1325,2
1,2,2,2,0.634,0.184,feedback,67,r,r,8,23,F,GabornFF_PAS,2018_kwi_09_1325,2
1,2,2,2,0.75,0.234,feedback,68,r,r,8,23,F,GabornFF_PAS,2018_kwi_09_1325,2
1,1,1,3,0.551,0.267,feedback,69,e,e,9,23,F,GabornFF_PAS,2018_kwi_09_1325,2
1,2,2,2,0.6,0.234,feedback,70,r,r,8,23,F,GabornFF_PAS,2018_kwi_09_1325,2
1,1,1,3,0.45,0.25,feedback,71,e,e,9,23,F,GabornFF_PAS,2018_kwi_09_1325,2
1,2,2,2,0.534,0.367,feedback,72,r,r,8,23,F,GabornFF_PAS,2018_kwi_09_1325,2
1,1,1,3,0.5,0.267,feedback,73,e,e,9,23,F,GabornFF_PAS,2018_kwi_09_1325,2
1,2,2,2,0.65,0.15,feedback,74,r,r,8,23,F,GabornFF_PAS,2018_kwi_09_1325,2
1,1,1,3,0.567,0.984,feedback,75,e,e,9,23,F,GabornFF_PAS,2018_kwi_09_1325,2
1,1,1,3,0.65,0.234,feedback,76,e,e,9,23,F,GabornFF_PAS,2018_kwi_09_1325,2
1,2,2,3,0.817,0.3,feedback,77,r,r,9,23,F,GabornFF_PAS,2018_kwi_09_1325,2
1,2,2,3,0.8,0.267,feedback,78,r,r,9,23,F,GabornFF_PAS,2018_kwi_09_1325,2
1,1,1,3,0.684,0.551,feedback,79,e,e,9,23,F,GabornFF_PAS,2018_kwi_09_1325,2
1,1,1,3,0.567,0.234,feedback,80,e,e,9,23,F,GabornFF_PAS,2018_kwi_09_1325,2
1,2,2,3,0.75,0.267,feedback,81,r,r,9,23,F,GabornFF_PAS,2018_kwi_09_1325,2
1,2,2,3,0.634,0.25,feedback,82,r,r,9,23,F,GabornFF_PAS,2018_kwi_09_1325,2
1,1,1,3,0.55,0.234,feedback,83,e,e,9,23,F,GabornFF_PAS,2018_kwi_09_1325,2
1,1,1,3,0.65,0.2,feedback,84,e,e,9,23,F,GabornFF_PAS,2018_kwi_09_1325,2
1,2,2,2,0.55,0.45,feedback,85,r,r,8,23,F,GabornFF_PAS,2018_kwi_09_1325,2
1,2,2,2,0.584,0.25,feedback,86,r,r,8,23,F,GabornFF_PAS,2018_kwi_09_1325,2
1,1,1,3,0.55,0.267,feedback,87,e,e,9,23,F,GabornFF_PAS,2018_kwi_09_1325,2
1,2,2,3,0.567,0.25,feedback,88,r,r,9,23,F,GabornFF_PAS,2018_kwi_09_1325,2
1,1,1,3,0.584,0.234,feedback,89,e,e,9,23,F,GabornFF_PAS,2018_kwi_09_1325,2
1,2,2,2,0.55,0.384,feedback,90,r,r,8,23,F,GabornFF_PAS,2018_kwi_09_1325,2
1,1,1,3,0.55,0.3,feedback,91,e,e,9,23,F,GabornFF_PAS,2018_kwi_09_1325,2
1,1,1,3,0.567,0.267,feedback,92,e,e,9,23,F,GabornFF_PAS,2018_kwi_09_1325,2
1,2,2,3,0.75,0.251,feedback,93,r,r,9,23,F,GabornFF_PAS,2018_kwi_09_1325,2
1,1,1,2,0.55,0.284,feedback,94,e,e,8,23,F,GabornFF_PAS,2018_kwi_09_1325,2
1,2,2,3,0.534,0.3,feedback,95,r,r,9,23,F,GabornFF_PAS,2018_kwi_09_1325,2
1,2,2,3,0.6,0.3,feedback,96,r,r,9,23,F,GabornFF_PAS,2018_kwi_09_1325,2
1,1,1,2,0.85,0.25,feedback,97,e,e,8,23,F,GabornFF_PAS,2018_kwi_09_1325,2
1,1,1,3,0.784,0.251,feedback,98,e,e,9,23,F,GabornFF_PAS,2018_kwi_09_1325,2
1,2,2,2,0.584,0.284,feedback,99,r,r,8,23,F,GabornFF_PAS,2018_kwi_09_1325,2
1,1,NaN,1,NaN,2.2,feedback,100,NaN,e,7,23,F,GabornFF_PAS,2018_kwi_09_1325,2
1,2,2,2,1.167,2.384,feedback,101,r,r,8,23,F,GabornFF_PAS,2018_kwi_09_1325,2
1,1,2,2,1.067,0.217,feedback,102,r,e,8,23,F,GabornFF_PAS,2018_kwi_09_1325,2
1,2,2,2,0.45,0.2,feedback,103,r,r,8,23,F,GabornFF_PAS,2018_kwi_09_1325,2
1,2,2,2,0.634,0.15,feedback,104,r,r,8,23,F,GabornFF_PAS,2018_kwi_09_1325,2
1,1,1,3,0.617,0.317,feedback,105,e,e,9,23,F,GabornFF_PAS,2018_kwi_09_1325,2
1,2,2,2,0.667,0.167,feedback,106,r,r,8,23,F,GabornFF_PAS,2018_kwi_09_1325,2
1,1,1,3,0.517,0.2,feedback,107,e,e,9,23,F,GabornFF_PAS,2018_kwi_09_1325,2
1,1,1,3,0.7,0.167,feedback,108,e,e,9,23,F,GabornFF_PAS,2018_kwi_09_1325,2
1,2,2,2,0.551,0.217,feedback,109,r,r,8,23,F,GabornFF_PAS,2018_kwi_09_1325,2
1,1,1,2,0.467,0.35,feedback,110,e,e,8,23,F,GabornFF_PAS,2018_kwi_09_1325,2
1,2,2,2,0.6,0.201,feedback,111,r,r,8,23,F,GabornFF_PAS,2018_kwi_09_1325,2
1,2,1,3,0.517,0.234,feedback,112,e,r,9,23,F,GabornFF_PAS,2018_kwi_09_1325,2
1,1,1,3,0.601,0.234,feedback,113,e,e,9,23,F,GabornFF_PAS,2018_kwi_09_1325,2
1,1,1,3,0.717,1.384,feedback,114,e,e,9,23,F,GabornFF_PAS,2018_kwi_09_1325,2
1,2,2,3,0.817,1,feedback,115,r,r,9,23,F,GabornFF_PAS,2018_kwi_09_1325,2
1,2,2,3,0.767,0.65,feedback,116,r,r,9,23,F,GabornFF_PAS,2018_kwi_09_1325,2
1,1,1,3,0.567,0.634,feedback,117,e,e,9,23,F,GabornFF_PAS,2018_kwi_09_1325,2
1,1,1,3,0.801,0.417,feedback,118,e,e,9,23,F,GabornFF_PAS,2018_kwi_09_1325,2
1,2,2,2,0.801,0.45,feedback,119,r,r,8,23,F,GabornFF_PAS,2018_kwi_09_1325,2
1,2,2,2,0.801,0.317,feedback,120,r,r,8,23,F,GabornFF_PAS,2018_kwi_09_1325,2
1,1,1,3,0.65,0.334,feedback,121,e,e,9,23,F,GabornFF_PAS,2018_kwi_09_1325,2
1,1,1,3,0.617,0.284,feedback,122,e,e,9,23,F,GabornFF_PAS,2018_kwi_09_1325,2
1,2,2,2,0.717,0.35,feedback,123,r,r,8,23,F,GabornFF_PAS,2018_kwi_09_1325,2
1,1,1,3,0.517,0.65,feedback,124,e,e,9,23,F,GabornFF_PAS,2018_kwi_09_1325,2
1,2,2,2,0.801,0.317,feedback,125,r,r,8,23,F,GabornFF_PAS,2018_kwi_09_1325,2
1,1,1,3,0.5,0.284,feedback,126,e,e,9,23,F,GabornFF_PAS,2018_kwi_09_1325,2
1,2,2,2,0.584,0.283,feedback,127,r,r,8,23,F,GabornFF_PAS,2018_kwi_09_1325,2
1,2,2,2,0.767,0.334,feedback,128,r,r,8,23,F,GabornFF_PAS,2018_kwi_09_1325,2
1,1,1,3,0.617,0.3,feedback,129,e,e,9,23,F,GabornFF_PAS,2018_kwi_09_1325,2
1,1,1,3,0.634,0.4,feedback,130,e,e,9,23,F,GabornFF_PAS,2018_kwi_09_1325,2
1,2,2,2,0.7,0.3,feedback,131,r,r,8,23,F,GabornFF_PAS,2018_kwi_09_1325,2
1,1,2,2,0.684,0.25,feedback,132,r,e,8,23,F,GabornFF_PAS,2018_kwi_09_1325,2
1,2,2,2,0.684,0.217,feedback,133,r,r,8,23,F,GabornFF_PAS,2018_kwi_09_1325,2
1,2,2,2,0.567,0.217,feedback,134,r,r,8,23,F,GabornFF_PAS,2018_kwi_09_1325,2
1,1,1,2,0.584,0.3,feedback,135,e,e,8,23,F,GabornFF_PAS,2018_kwi_09_1325,2
1,1,1,3,0.584,0.317,feedback,136,e,e,9,23,F,GabornFF_PAS,2018_kwi_09_1325,2
1,2,2,2,0.601,0.284,feedback,137,r,r,8,23,F,GabornFF_PAS,2018_kwi_09_1325,2
1,1,1,3,0.601,0.934,feedback,138,e,e,9,23,F,GabornFF_PAS,2018_kwi_09_1325,2
1,2,2,2,0.917,0.434,feedback,139,r,r,8,23,F,GabornFF_PAS,2018_kwi_09_1325,2
1,2,2,2,0.667,0.267,feedback,140,r,r,8,23,F,GabornFF_PAS,2018_kwi_09_1325,2
1,1,1,3,0.517,0.367,feedback,141,e,e,9,23,F,GabornFF_PAS,2018_kwi_09_1325,2
1,1,1,3,0.567,0.217,feedback,142,e,e,9,23,F,GabornFF_PAS,2018_kwi_09_1325,2
1,2,2,2,0.817,0.3,feedback,143,r,r,8,23,F,GabornFF_PAS,2018_kwi_09_1325,2
1,2,2,2,0.934,0.267,feedback,144,r,r,8,23,F,GabornFF_PAS,2018_kwi_09_1325,2
1,1,1,2,0.617,0.267,feedback,145,e,e,8,23,F,GabornFF_PAS,2018_kwi_09_1325,2
1,2,2,3,0.767,0.317,feedback,146,r,r,9,23,F,GabornFF_PAS,2018_kwi_09_1325,2
1,1,2,2,0.75,0.217,feedback,147,r,e,8,23,F,GabornFF_PAS,2018_kwi_09_1325,2
1,2,2,2,1.234,0.4,feedback,148,r,r,8,23,F,GabornFF_PAS,2018_kwi_09_1325,2
1,1,1,3,0.584,0.384,feedback,149,e,e,9,23,F,GabornFF_PAS,2018_kwi_09_1325,2
1,2,2,1,1.134,0.484,feedback,150,r,r,7,23,F,GabornFF_PAS,2018_kwi_09_1325,2
1,1,2,1,0.851,1.601,feedback,151,r,e,7,23,F,GabornFF_PAS,2018_kwi_09_1325,2
1,1,1,3,0.634,0.267,feedback,152,e,e,9,23,F,GabornFF_PAS,2018_kwi_09_1325,2
1,2,2,2,1.367,0.45,feedback,153,r,r,8,23,F,GabornFF_PAS,2018_kwi_09_1325,2
1,2,2,3,0.818,0.217,feedback,154,r,r,9,23,F,GabornFF_PAS,2018_kwi_09_1325,2
1,1,1,3,0.567,0.284,feedback,155,e,e,9,23,F,GabornFF_PAS,2018_kwi_09_1325,2
1,1,1,3,0.584,0.217,feedback,156,e,e,9,23,F,GabornFF_PAS,2018_kwi_09_1325,2
1,2,2,2,0.684,0.234,feedback,157,r,r,8,23,F,GabornFF_PAS,2018_kwi_09_1325,2
1,2,2,1,1.134,0.634,feedback,158,r,r,7,23,F,GabornFF_PAS,2018_kwi_09_1325,2
1,1,1,3,0.517,0.234,feedback,159,e,e,9,23,F,GabornFF_PAS,2018_kwi_09_1325,2
1,2,2,2,0.75,0.234,feedback,160,r,r,8,23,F,GabornFF_PAS,2018_kwi_09_1325,2
1,1,1,3,0.634,0.25,feedback,161,e,e,9,23,F,GabornFF_PAS,2018_kwi_09_1325,2
1,2,2,2,0.767,0.267,feedback,162,r,r,8,23,F,GabornFF_PAS,2018_kwi_09_1325,2
1,1,1,3,0.551,0.25,feedback,163,e,e,9,23,F,GabornFF_PAS,2018_kwi_09_1325,2
1,2,2,2,0.733,0.25,feedback,164,r,r,8,23,F,GabornFF_PAS,2018_kwi_09_1325,2
1,1,1,3,0.5,0.25,feedback,165,e,e,9,23,F,GabornFF_PAS,2018_kwi_09_1325,2
1,2,2,2,0.75,0.217,feedback,166,r,r,8,23,F,GabornFF_PAS,2018_kwi_09_1325,2
1,1,1,3,0.534,0.517,feedback,167,e,e,9,23,F,GabornFF_PAS,2018_kwi_09_1325,2
1,2,2,3,0.75,0.284,feedback,168,r,r,9,23,F,GabornFF_PAS,2018_kwi_09_1325,2
1,1,1,2,0.584,0.284,feedback,169,e,e,8,23,F,GabornFF_PAS,2018_kwi_09_1325,2
1,2,2,3,0.967,0.234,feedback,170,r,r,9,23,F,GabornFF_PAS,2018_kwi_09_1325,2
1,1,1,3,1.567,0.3,feedback,171,e,e,9,23,F,GabornFF_PAS,2018_kwi_09_1325,2
1,1,1,3,0.617,0.25,feedback,172,e,e,9,23,F,GabornFF_PAS,2018_kwi_09_1325,2
1,2,2,3,0.6,0.267,feedback,173,r,r,9,23,F,GabornFF_PAS,2018_kwi_09_1325,2
1,1,1,2,0.534,0.284,feedback,174,e,e,8,23,F,GabornFF_PAS,2018_kwi_09_1325,2
1,2,2,2,0.667,0.284,feedback,175,r,r,8,23,F,GabornFF_PAS,2018_kwi_09_1325,2
1,1,1,2,0.517,0.284,feedback,176,e,e,8,23,F,GabornFF_PAS,2018_kwi_09_1325,2
1,2,2,3,0.884,0.184,feedback,177,r,r,9,23,F,GabornFF_PAS,2018_kwi_09_1325,2
1,2,2,3,0.65,0.284,feedback,178,r,r,9,23,F,GabornFF_PAS,2018_kwi_09_1325,2
1,1,1,3,0.517,0.267,feedback,179,e,e,9,23,F,GabornFF_PAS,2018_kwi_09_1325,2
1,2,2,3,0.95,0.284,feedback,180,r,r,9,23,F,GabornFF_PAS,2018_kwi_09_1325,2
1,1,1,4,0.684,0.25,feedback,181,e,e,0,23,F,GabornFF_PAS,2018_kwi_09_1325,2
1,2,2,2,0.934,0.417,feedback,182,r,r,8,23,F,GabornFF_PAS,2018_kwi_09_1325,2
1,1,1,3,0.734,0.217,feedback,183,e,e,9,23,F,GabornFF_PAS,2018_kwi_09_1325,2
1,1,1,4,0.6,0.267,feedback,184,e,e,0,23,F,GabornFF_PAS,2018_kwi_09_1325,2
1,2,2,2,1.067,0.334,feedback,185,r,r,8,23,F,GabornFF_PAS,2018_kwi_09_1325,2
1,2,2,2,0.917,0.317,feedback,186,r,r,8,23,F,GabornFF_PAS,2018_kwi_09_1325,2
1,1,1,3,0.617,0.283,feedback,187,e,e,9,23,F,GabornFF_PAS,2018_kwi_09_1325,2
1,2,2,2,0.767,0.267,feedback,188,r,r,8,23,F,GabornFF_PAS,2018_kwi_09_1325,2
1,1,1,2,1.084,1.784,feedback,189,e,e,8,23,F,GabornFF_PAS,2018_kwi_09_1325,2
1,2,2,1,1.15,1,feedback,190,r,r,7,23,F,GabornFF_PAS,2018_kwi_09_1325,2
1,1,1,3,0.784,0.267,feedback,191,e,e,9,23,F,GabornFF_PAS,2018_kwi_09_1325,2
1,2,2,2,0.684,1,feedback,192,r,r,8,23,F,GabornFF_PAS,2018_kwi_09_1325,2
1,1,2,2,1.067,0.3,feedback,193,r,e,8,23,F,GabornFF_PAS,2018_kwi_09_1325,2
1,1,1,3,0.85,0.267,feedback,194,e,e,9,23,F,GabornFF_PAS,2018_kwi_09_1325,2
1,2,2,2,0.917,0.634,feedback,195,r,r,8,23,F,GabornFF_PAS,2018_kwi_09_1325,2
1,1,2,2,0.7,0.267,feedback,196,r,e,8,23,F,GabornFF_PAS,2018_kwi_09_1325,2
1,2,2,2,0.833,0.267,feedback,197,r,r,8,23,F,GabornFF_PAS,2018_kwi_09_1325,2
1,2,1,1,0.534,0.85,feedback,198,e,r,7,23,F,GabornFF_PAS,2018_kwi_09_1325,2
1,1,1,1,0.5,0.45,feedback,199,e,e,7,23,F,GabornFF_PAS,2018_kwi_09_1325,2
2,2,1,2,0.617,0.767,nofeedback,0,e,r,8,21,M,GabornFF_PAS,2018_kwi_13_0932,1
2,1,1,3,0.6,0.634,nofeedback,1,e,e,9,21,M,GabornFF_PAS,2018_kwi_13_0932,1
2,2,2,1,0.967,0.984,nofeedback,2,r,r,7,21,M,GabornFF_PAS,2018_kwi_13_0932,1
2,1,1,2,0.484,0.551,nofeedback,3,e,e,8,21,M,GabornFF_PAS,2018_kwi_13_0932,1
2,1,1,3,0.617,0.65,nofeedback,4,e,e,9,21,M,GabornFF_PAS,2018_kwi_13_0932,1
2,2,2,2,0.667,1.019,nofeedback,5,r,r,8,21,M,GabornFF_PAS,2018_kwi_13_0932,1
2,2,1,1,0.784,0.569,nofeedback,6,e,r,7,21,M,GabornFF_PAS,2018_kwi_13_0932,1
2,1,1,3,0.585,0.617,nofeedback,7,e,e,9,21,M,GabornFF_PAS,2018_kwi_13_0932,1
2,2,1,2,0.784,0.467,nofeedback,8,e,r,8,21,M,GabornFF_PAS,2018_kwi_13_0932,1
2,1,1,3,0.634,0.517,nofeedback,9,e,e,9,21,M,GabornFF_PAS,2018_kwi_13_0932,1
2,1,1,3,0.634,0.834,nofeedback,10,e,e,9,21,M,GabornFF_PAS,2018_kwi_13_0932,1
2,2,2,2,0.8,0.734,nofeedback,11,r,r,8,21,M,GabornFF_PAS,2018_kwi_13_0932,1
2,2,1,2,0.65,0.984,nofeedback,12,e,r,8,21,M,GabornFF_PAS,2018_kwi_13_0932,1
2,1,1,3,0.651,1.135,nofeedback,13,e,e,9,21,M,GabornFF_PAS,2018_kwi_13_0932,1
2,1,1,3,0.684,0.751,nofeedback,14,e,e,9,21,M,GabornFF_PAS,2018_kwi_13_0932,1
2,2,2,1,0.951,1.451,nofeedback,15,r,r,7,21,M,GabornFF_PAS,2018_kwi_13_0932,1
2,2,1,1,1.25,0.751,nofeedback,16,e,r,7,21,M,GabornFF_PAS,2018_kwi_13_0932,1
2,1,1,3,0.85,0.835,nofeedback,17,e,e,9,21,M,GabornFF_PAS,2018_kwi_13_0932,1
2,1,1,3,0.601,0.567,nofeedback,18,e,e,9,21,M,GabornFF_PAS,2018_kwi_13_0932,1
2,2,1,4,0.717,0.768,nofeedback,19,e,r,0,21,M,GabornFF_PAS,2018_kwi_13_0932,1
2,1,1,4,0.55,0.351,nofeedback,20,e,e,0,21,M,GabornFF_PAS,2018_kwi_13_0932,1
2,2,1,2,0.825,0.734,nofeedback,21,e,r,8,21,M,GabornFF_PAS,2018_kwi_13_0932,1
2,1,1,3,0.617,0.451,nofeedback,22,e,e,9,21,M,GabornFF_PAS,2018_kwi_13_0932,1
2,2,1,2,0.684,0.584,nofeedback,23,e,r,8,21,M,GabornFF_PAS,2018_kwi_13_0932,1
2,1,1,2,0.869,0.501,nofeedback,24,e,e,8,21,M,GabornFF_PAS,2018_kwi_13_0932,1
2,2,1,2,0.667,0.301,nofeedback,25,e,r,8,21,M,GabornFF_PAS,2018_kwi_13_0932,1
2,2,1,2,0.767,0.4,nofeedback,26,e,r,8,21,M,GabornFF_PAS,2018_kwi_13_0932,1
2,1,1,2,0.634,0.389,nofeedback,27,e,e,8,21,M,GabornFF_PAS,2018_kwi_13_0932,1
2,2,1,2,0.536,0.338,nofeedback,28,e,r,8,21,M,GabornFF_PAS,2018_kwi_13_0932,1
2,1,1,3,0.686,0.617,nofeedback,29,e,e,9,21,M,GabornFF_PAS,2018_kwi_13_0932,1
2,2,1,1,0.935,0.467,nofeedback,30,e,r,7,21,M,GabornFF_PAS,2018_kwi_13_0932,1
2,1,1,3,0.75,0.801,nofeedback,31,e,e,9,21,M,GabornFF_PAS,2018_kwi_13_0932,1
2,2,1,3,0.934,0.85,nofeedback,32,e,r,9,21,M,GabornFF_PAS,2018_kwi_13_0932,1
2,1,1,3,0.819,0.967,nofeedback,33,e,e,9,21,M,GabornFF_PAS,2018_kwi_13_0932,1
2,1,1,3,0.684,0.517,nofeedback,34,e,e,9,21,M,GabornFF_PAS,2018_kwi_13_0932,1
2,2,1,3,0.767,0.585,nofeedback,35,e,r,9,21,M,GabornFF_PAS,2018_kwi_13_0932,1
2,2,1,1,1.151,0.769,nofeedback,36,e,r,7,21,M,GabornFF_PAS,2018_kwi_13_0932,1
2,1,1,3,0.651,0.534,nofeedback,37,e,e,9,21,M,GabornFF_PAS,2018_kwi_13_0932,1
2,2,2,1,1.101,1.001,nofeedback,38,r,r,7,21,M,GabornFF_PAS,2018_kwi_13_0932,1
2,1,1,3,0.684,0.534,nofeedback,39,e,e,9,21,M,GabornFF_PAS,2018_kwi_13_0932,1
2,1,1,2,0.885,0.55,nofeedback,40,e,e,8,21,M,GabornFF_PAS,2018_kwi_13_0932,1
2,2,2,1,1.168,0.75,nofeedback,41,r,r,7,21,M,GabornFF_PAS,2018_kwi_13_0932,1
2,1,1,3,0.634,0.684,nofeedback,42,e,e,9,21,M,GabornFF_PAS,2018_kwi_13_0932,1
2,2,1,1,1.235,0.618,nofeedback,43,e,r,7,21,M,GabornFF_PAS,2018_kwi_13_0932,1
2,2,2,2,1.251,1.419,nofeedback,44,r,r,8,21,M,GabornFF_PAS,2018_kwi_13_0932,1
2,1,1,3,0.834,0.784,nofeedback,45,e,e,9,21,M,GabornFF_PAS,2018_kwi_13_0932,1
2,2,2,1,1.167,1.034,nofeedback,46,r,r,7,21,M,GabornFF_PAS,2018_kwi_13_0932,1
2,1,1,3,0.751,0.584,nofeedback,47,e,e,9,21,M,GabornFF_PAS,2018_kwi_13_0932,1
2,2,1,1,1.337,0.467,nofeedback,48,e,r,7,21,M,GabornFF_PAS,2018_kwi_13_0932,1
2,1,1,3,0.917,0.54,nofeedback,49,e,e,9,21,M,GabornFF_PAS,2018_kwi_13_0932,1
2,1,1,2,0.918,0.917,nofeedback,50,e,e,8,21,M,GabornFF_PAS,2018_kwi_13_0932,1
2,2,2,2,1.101,0.45,nofeedback,51,r,r,8,21,M,GabornFF_PAS,2018_kwi_13_0932,1
2,1,1,3,0.55,0.436,nofeedback,52,e,e,9,21,M,GabornFF_PAS,2018_kwi_13_0932,1
2,2,2,2,0.9,0.62,nofeedback,53,r,r,8,21,M,GabornFF_PAS,2018_kwi_13_0932,1
2,1,1,1,1.401,0.717,nofeedback,54,e,e,7,21,M,GabornFF_PAS,2018_kwi_13_0932,1
2,2,2,2,0.634,0.917,nofeedback,55,r,r,8,21,M,GabornFF_PAS,2018_kwi_13_0932,1
2,1,1,3,0.684,0.484,nofeedback,56,e,e,9,21,M,GabornFF_PAS,2018_kwi_13_0932,1
2,2,1,1,1.084,0.735,nofeedback,57,e,r,7,21,M,GabornFF_PAS,2018_kwi_13_0932,1
2,1,1,3,0.802,0.734,nofeedback,58,e,e,9,21,M,GabornFF_PAS,2018_kwi_13_0932,1
2,2,2,1,1.017,0.95,nofeedback,59,r,r,7,21,M,GabornFF_PAS,2018_kwi_13_0932,1
2,1,1,3,0.7,0.567,nofeedback,60,e,e,9,21,M,GabornFF_PAS,2018_kwi_13_0932,1
2,2,2,1,1.119,0.684,nofeedback,61,r,r,7,21,M,GabornFF_PAS,2018_kwi_13_0932,1
2,1,1,3,0.65,0.85,nofeedback,62,e,e,9,21,M,GabornFF_PAS,2018_kwi_13_0932,1
2,2,1,2,1.184,0.419,nofeedback,63,e,r,8,21,M,GabornFF_PAS,2018_kwi_13_0932,1
2,1,1,3,0.851,0.45,nofeedback,64,e,e,9,21,M,GabornFF_PAS,2018_kwi_13_0932,1
2,2,1,1,1.536,0.467,nofeedback,65,e,r,7,21,M,GabornFF_PAS,2018_kwi_13_0932,1
2,1,1,1,1.067,0.7,nofeedback,66,e,e,7,21,M,GabornFF_PAS,2018_kwi_13_0932,1
2,2,2,1,1.37,0.667,nofeedback,67,r,r,7,21,M,GabornFF_PAS,2018_kwi_13_0932,1
2,1,1,3,0.917,0.55,nofeedback,68,e,e,9,21,M,GabornFF_PAS,2018_kwi_13_0932,1
2,2,1,1,1.586,0.634,nofeedback,69,e,r,7,21,M,GabornFF_PAS,2018_kwi_13_0932,1
2,2,2,2,0.851,0.835,nofeedback,70,r,r,8,21,M,GabornFF_PAS,2018_kwi_13_0932,1
2,1,1,2,1.15,1.067,nofeedback,71,e,e,8,21,M,GabornFF_PAS,2018_kwi_13_0932,1
2,2,1,2,1.134,0.367,nofeedback,72,e,r,8,21,M,GabornFF_PAS,2018_kwi_13_0932,1
2,1,1,2,1.133,0.834,nofeedback,73,e,e,8,21,M,GabornFF_PAS,2018_kwi_13_0932,1
2,1,1,4,1.1,0.517,nofeedback,74,e,e,0,21,M,GabornFF_PAS,2018_kwi_13_0932,1
2,2,2,1,1.217,0.784,nofeedback,75,r,r,7,21,M,GabornFF_PAS,2018_kwi_13_0932,1
2,1,2,1,1.16,0.734,nofeedback,76,r,e,7,21,M,GabornFF_PAS,2018_kwi_13_0932,1
2,2,1,2,1.467,0.484,nofeedback,77,e,r,8,21,M,GabornFF_PAS,2018_kwi_13_0932,1
2,1,2,2,1.267,1.169,nofeedback,78,r,e,8,21,M,GabornFF_PAS,2018_kwi_13_0932,1
2,2,2,2,1.452,0.484,nofeedback,79,r,r,8,21,M,GabornFF_PAS,2018_kwi_13_0932,1
2,1,1,4,0.685,0.617,nofeedback,80,e,e,0,21,M,GabornFF_PAS,2018_kwi_13_0932,1
2,2,2,1,1.151,0.334,nofeedback,81,r,r,7,21,M,GabornFF_PAS,2018_kwi_13_0932,1
2,1,1,3,0.7,0.835,nofeedback,82,e,e,9,21,M,GabornFF_PAS,2018_kwi_13_0932,1
2,2,2,1,1.319,0.751,nofeedback,83,r,r,7,21,M,GabornFF_PAS,2018_kwi_13_0932,1
2,1,2,2,1.387,1.067,nofeedback,84,r,e,8,21,M,GabornFF_PAS,2018_kwi_13_0932,1
2,2,2,1,1.602,2.235,nofeedback,85,r,r,7,21,M,GabornFF_PAS,2018_kwi_13_0932,1
2,2,2,1,1.567,0.517,nofeedback,86,r,r,7,21,M,GabornFF_PAS,2018_kwi_13_0932,1
2,1,2,1,1.524,1.067,nofeedback,87,r,e,7,21,M,GabornFF_PAS,2018_kwi_13_0932,1
2,2,2,2,1.017,0.417,nofeedback,88,r,r,8,21,M,GabornFF_PAS,2018_kwi_13_0932,1
2,1,2,1,1.184,0.902,nofeedback,89,r,e,7,21,M,GabornFF_PAS,2018_kwi_13_0932,1
2,2,2,2,1.15,0.45,nofeedback,90,r,r,8,21,M,GabornFF_PAS,2018_kwi_13_0932,1
2,1,2,2,0.851,0.97,nofeedback,91,r,e,8,21,M,GabornFF_PAS,2018_kwi_13_0932,1
2,1,2,1,0.717,0.418,nofeedback,92,r,e,7,21,M,GabornFF_PAS,2018_kwi_13_0932,1
2,2,2,1,1.035,0.901,nofeedback,93,r,r,7,21,M,GabornFF_PAS,2018_kwi_13_0932,1
2,2,2,2,0.767,0.684,nofeedback,94,r,r,8,21,M,GabornFF_PAS,2018_kwi_13_0932,1
2,1,2,2,1.002,0.65,nofeedback,95,r,e,8,21,M,GabornFF_PAS,2018_kwi_13_0932,1
2,2,2,2,1.45,1.017,nofeedback,96,r,r,8,21,M,GabornFF_PAS,2018_kwi_13_0932,1
2,1,2,2,0.667,0.684,nofeedback,97,r,e,8,21,M,GabornFF_PAS,2018_kwi_13_0932,1
2,1,2,2,0.985,0.702,nofeedback,98,r,e,8,21,M,GabornFF_PAS,2018_kwi_13_0932,1
2,2,2,2,0.935,0.8,nofeedback,99,r,r,8,21,M,GabornFF_PAS,2018_kwi_13_0932,1
2,2,2,2,0.734,0.917,nofeedback,100,r,r,8,21,M,GabornFF_PAS,2018_kwi_13_0932,1
2,1,2,2,0.817,0.367,nofeedback,101,r,e,8,21,M,GabornFF_PAS,2018_kwi_13_0932,1
2,2,1,1,1.418,0.367,nofeedback,102,e,r,7,21,M,GabornFF_PAS,2018_kwi_13_0932,1
2,1,1,3,0.719,1.019,nofeedback,103,e,e,9,21,M,GabornFF_PAS,2018_kwi_13_0932,1
2,1,2,3,0.935,0.351,nofeedback,104,r,e,9,21,M,GabornFF_PAS,2018_kwi_13_0932,1
2,2,2,3,0.884,0.335,nofeedback,105,r,r,9,21,M,GabornFF_PAS,2018_kwi_13_0932,1
2,1,2,2,1.15,0.75,nofeedback,106,r,e,8,21,M,GabornFF_PAS,2018_kwi_13_0932,1
2,2,2,2,1.068,0.502,nofeedback,107,r,r,8,21,M,GabornFF_PAS,2018_kwi_13_0932,1
2,1,2,2,0.934,0.467,nofeedback,108,r,e,8,21,M,GabornFF_PAS,2018_kwi_13_0932,1
2,2,2,2,0.867,0.4,nofeedback,109,r,r,8,21,M,GabornFF_PAS,2018_kwi_13_0932,1
2,1,2,3,0.601,0.3,nofeedback,110,r,e,9,21,M,GabornFF_PAS,2018_kwi_13_0932,1
2,2,2,3,0.8,0.5,nofeedback,111,r,r,9,21,M,GabornFF_PAS,2018_kwi_13_0932,1
2,2,2,3,0.738,0.5,nofeedback,112,r,r,9,21,M,GabornFF_PAS,2018_kwi_13_0932,1
2,1,2,3,0.784,0.434,nofeedback,113,r,e,9,21,M,GabornFF_PAS,2018_kwi_13_0932,1
2,2,2,3,1,0.7,nofeedback,114,r,r,9,21,M,GabornFF_PAS,2018_kwi_13_0932,1
2,1,2,3,0.7,0.452,nofeedback,115,r,e,9,21,M,GabornFF_PAS,2018_kwi_13_0932,1
2,1,2,3,0.736,0.518,nofeedback,116,r,e,9,21,M,GabornFF_PAS,2018_kwi_13_0932,1
2,2,2,3,0.651,0.369,nofeedback,117,r,r,9,21,M,GabornFF_PAS,2018_kwi_13_0932,1
2,1,2,3,0.667,0.417,nofeedback,118,r,e,9,21,M,GabornFF_PAS,2018_kwi_13_0932,1
2,2,2,2,0.719,0.517,nofeedback,119,r,r,8,21,M,GabornFF_PAS,2018_kwi_13_0932,1
2,2,2,2,0.668,0.317,nofeedback,120,r,r,8,21,M,GabornFF_PAS,2018_kwi_13_0932,1
2,1,2,3,0.605,0.467,nofeedback,121,r,e,9,21,M,GabornFF_PAS,2018_kwi_13_0932,1
2,1,2,3,0.601,0.3,nofeedback,122,r,e,9,21,M,GabornFF_PAS,2018_kwi_13_0932,1
2,2,2,3,0.634,0.35,nofeedback,123,r,r,9,21,M,GabornFF_PAS,2018_kwi_13_0932,1
2,2,2,2,0.951,0.352,nofeedback,124,r,r,8,21,M,GabornFF_PAS,2018_kwi_13_0932,1
2,1,2,2,0.968,0.535,nofeedback,125,r,e,8,21,M,GabornFF_PAS,2018_kwi_13_0932,1
2,2,2,2,1,0.351,nofeedback,126,r,r,8,21,M,GabornFF_PAS,2018_kwi_13_0932,1
2,1,2,2,1.233,0.317,nofeedback,127,r,e,8,21,M,GabornFF_PAS,2018_kwi_13_0932,1
2,1,2,2,0.734,0.368,nofeedback,128,r,e,8,21,M,GabornFF_PAS,2018_kwi_13_0932,1
2,2,2,3,0.75,0.384,nofeedback,129,r,r,9,21,M,GabornFF_PAS,2018_kwi_13_0932,1
2,1,2,2,0.769,0.403,nofeedback,130,r,e,8,21,M,GabornFF_PAS,2018_kwi_13_0932,1
2,2,2,2,0.667,0.334,nofeedback,131,r,r,8,21,M,GabornFF_PAS,2018_kwi_13_0932,1
2,1,2,2,0.734,0.467,nofeedback,132,r,e,8,21,M,GabornFF_PAS,2018_kwi_13_0932,1
2,2,2,2,0.784,0.317,nofeedback,133,r,r,8,21,M,GabornFF_PAS,2018_kwi_13_0932,1
2,1,2,2,0.651,0.3,nofeedback,134,r,e,8,21,M,GabornFF_PAS,2018_kwi_13_0932,1
2,2,2,2,1.067,0.617,nofeedback,135,r,r,8,21,M,GabornFF_PAS,2018_kwi_13_0932,1
2,2,2,2,1,0.384,nofeedback,136,r,r,8,21,M,GabornFF_PAS,2018_kwi_13_0932,1
2,1,2,1,1.05,0.601,nofeedback,137,r,e,7,21,M,GabornFF_PAS,2018_kwi_13_0932,1
2,2,2,2,0.901,0.468,nofeedback,138,r,r,8,21,M,GabornFF_PAS,2018_kwi_13_0932,1
2,1,1,2,0.95,0.984,nofeedback,139,e,e,8,21,M,GabornFF_PAS,2018_kwi_13_0932,1
2,2,2,2,1.051,0.935,nofeedback,140,r,r,8,21,M,GabornFF_PAS,2018_kwi_13_0932,1
2,1,2,1,1.618,0.886,nofeedback,141,r,e,7,21,M,GabornFF_PAS,2018_kwi_13_0932,1
2,2,2,2,1.2,1.011,nofeedback,142,r,r,8,21,M,GabornFF_PAS,2018_kwi_13_0932,1
2,1,2,2,1.17,0.684,nofeedback,143,r,e,8,21,M,GabornFF_PAS,2018_kwi_13_0932,1
2,1,1,2,0.984,0.968,nofeedback,144,e,e,8,21,M,GabornFF_PAS,2018_kwi_13_0932,1
2,2,2,2,1.151,0.85,nofeedback,145,r,r,8,21,M,GabornFF_PAS,2018_kwi_13_0932,1
2,1,2,1,1.434,0.401,nofeedback,146,r,e,7,21,M,GabornFF_PAS,2018_kwi_13_0932,1
2,2,1,1,1.551,0.75,nofeedback,147,e,r,7,21,M,GabornFF_PAS,2018_kwi_13_0932,1
2,1,2,1,1.3,1.202,nofeedback,148,r,e,7,21,M,GabornFF_PAS,2018_kwi_13_0932,1
2,2,2,2,1.067,0.35,nofeedback,149,r,r,8,21,M,GabornFF_PAS,2018_kwi_13_0932,1
2,1,1,3,0.684,0.55,nofeedback,150,e,e,9,21,M,GabornFF_PAS,2018_kwi_13_0932,1
2,2,2,2,1.067,0.368,nofeedback,151,r,r,8,21,M,GabornFF_PAS,2018_kwi_13_0932,1
2,2,2,1,1,0.35,nofeedback,152,r,r,7,21,M,GabornFF_PAS,2018_kwi_13_0932,1
2,1,1,3,0.65,0.467,nofeedback,153,e,e,9,21,M,GabornFF_PAS,2018_kwi_13_0932,1
2,2,2,2,0.817,0.419,nofeedback,154,r,r,8,21,M,GabornFF_PAS,2018_kwi_13_0932,1
2,1,1,3,0.651,0.484,nofeedback,155,e,e,9,21,M,GabornFF_PAS,2018_kwi_13_0932,1
2,1,1,2,1.036,0.567,nofeedback,156,e,e,8,21,M,GabornFF_PAS,2018_kwi_13_0932,1
2,2,1,1,1,0.634,nofeedback,157,e,r,7,21,M,GabornFF_PAS,2018_kwi_13_0932,1
2,1,1,3,1.001,0.417,nofeedback,158,e,e,9,21,M,GabornFF_PAS,2018_kwi_13_0932,1
2,2,2,2,0.847,0.484,nofeedback,159,r,r,8,21,M,GabornFF_PAS,2018_kwi_13_0932,1
2,2,2,1,1.201,0.401,nofeedback,160,r,r,7,21,M,GabornFF_PAS,2018_kwi_13_0932,1
2,1,1,3,0.784,0.367,nofeedback,161,e,e,9,21,M,GabornFF_PAS,2018_kwi_13_0932,1
2,1,1,2,0.934,0.633,nofeedback,162,e,e,8,21,M,GabornFF_PAS,2018_kwi_13_0932,1
2,2,1,2,1.251,0.784,nofeedback,163,e,r,8,21,M,GabornFF_PAS,2018_kwi_13_0932,1
2,2,1,1,1.284,0.334,nofeedback,164,e,r,7,21,M,GabornFF_PAS,2018_kwi_13_0932,1
2,1,1,2,0.751,0.484,nofeedback,165,e,e,8,21,M,GabornFF_PAS,2018_kwi_13_0932,1
2,2,2,3,1.488,0.64,nofeedback,166,r,r,9,21,M,GabornFF_PAS,2018_kwi_13_0932,1
2,1,2,2,1.084,0.501,nofeedback,167,r,e,8,21,M,GabornFF_PAS,2018_kwi_13_0932,1
2,2,2,2,1.235,0.5,nofeedback,168,r,r,8,21,M,GabornFF_PAS,2018_kwi_13_0932,1
2,1,1,3,0.835,0.485,nofeedback,169,e,e,9,21,M,GabornFF_PAS,2018_kwi_13_0932,1
2,2,2,2,1.384,0.717,nofeedback,170,r,r,8,21,M,GabornFF_PAS,2018_kwi_13_0932,1
2,1,1,3,0.8,0.334,nofeedback,171,e,e,9,21,M,GabornFF_PAS,2018_kwi_13_0932,1
2,1,1,3,0.601,0.55,nofeedback,172,e,e,9,21,M,GabornFF_PAS,2018_kwi_13_0932,1
2,2,1,2,1.451,0.683,nofeedback,173,e,r,8,21,M,GabornFF_PAS,2018_kwi_13_0932,1
2,2,1,2,1.047,0.435,nofeedback,174,e,r,8,21,M,GabornFF_PAS,2018_kwi_13_0932,1
2,1,1,2,1.05,0.384,nofeedback,175,e,e,8,21,M,GabornFF_PAS,2018_kwi_13_0932,1
2,1,1,2,0.81,0.719,nofeedback,176,e,e,8,21,M,GabornFF_PAS,2018_kwi_13_0932,1
2,2,1,2,1.234,0.417,nofeedback,177,e,r,8,21,M,GabornFF_PAS,2018_kwi_13_0932,1
2,1,1,3,1.12,0.3,nofeedback,178,e,e,9,21,M,GabornFF_PAS,2018_kwi_13_0932,1
2,2,2,1,1.35,0.717,nofeedback,179,r,r,7,21,M,GabornFF_PAS,2018_kwi_13_0932,1
2,1,1,1,1.618,0.802,nofeedback,180,e,e,7,21,M,GabornFF_PAS,2018_kwi_13_0932,1
2,2,1,2,0.935,0.334,nofeedback,181,e,r,8,21,M,GabornFF_PAS,2018_kwi_13_0932,1
2,1,1,2,1.237,0.534,nofeedback,182,e,e,8,21,M,GabornFF_PAS,2018_kwi_13_0932,1
2,2,1,2,0.85,0.284,nofeedback,183,e,r,8,21,M,GabornFF_PAS,2018_kwi_13_0932,1
2,2,2,1,1.184,0.68,nofeedback,184,r,r,7,21,M,GabornFF_PAS,2018_kwi_13_0932,1
2,1,1,2,1.268,0.317,nofeedback,185,e,e,8,21,M,GabornFF_PAS,2018_kwi_13_0932,1
2,1,1,3,0.7,0.684,nofeedback,186,e,e,9,21,M,GabornFF_PAS,2018_kwi_13_0932,1
2,2,1,2,1.22,0.4,nofeedback,187,e,r,8,21,M,GabornFF_PAS,2018_kwi_13_0932,1
2,1,1,3,0.75,0.434,nofeedback,188,e,e,9,21,M,GabornFF_PAS,2018_kwi_13_0932,1
2,2,1,2,1.333,0.65,nofeedback,189,e,r,8,21,M,GabornFF_PAS,2018_kwi_13_0932,1
2,2,1,2,1.519,0.634,nofeedback,190,e,r,8,21,M,GabornFF_PAS,2018_kwi_13_0932,1
2,1,1,2,0.934,0.601,nofeedback,191,e,e,8,21,M,GabornFF_PAS,2018_kwi_13_0932,1
2,2,1,2,0.719,0.434,nofeedback,192,e,r,8,21,M,GabornFF_PAS,2018_kwi_13_0932,1
2,1,1,2,0.819,0.368,nofeedback,193,e,e,8,21,M,GabornFF_PAS,2018_kwi_13_0932,1
2,2,1,1,1.185,0.352,nofeedback,194,e,r,7,21,M,GabornFF_PAS,2018_kwi_13_0932,1
2,1,1,2,1.219,0.651,nofeedback,195,e,e,8,21,M,GabornFF_PAS,2018_kwi_13_0932,1
2,2,1,1,1.417,0.484,nofeedback,196,e,r,7,21,M,GabornFF_PAS,2018_kwi_13_0932,1
2,1,1,1,1.235,0.351,nofeedback,197,e,e,7,21,M,GabornFF_PAS,2018_kwi_13_0932,1
2,2,1,1,1.337,0.284,nofeedback,198,e,r,7,21,M,GabornFF_PAS,2018_kwi_13_0932,1
2,1,1,3,0.817,0.251,nofeedback,199,e,e,9,21,M,GabornFF_PAS,2018_kwi_13_0932,1
2,2,1,3,0.617,1.071,feedback,0,e,r,9,21,M,GabornFF_PAS,2018_kwi_13_0932,2
2,1,1,2,0.617,0.918,feedback,1,e,e,8,21,M,GabornFF_PAS,2018_kwi_13_0932,2
2,2,1,2,1.351,0.317,feedback,2,e,r,8,21,M,GabornFF_PAS,2018_kwi_13_0932,2
2,1,1,3,0.802,0.284,feedback,3,e,e,9,21,M,GabornFF_PAS,2018_kwi_13_0932,2
2,2,1,2,1.284,0.284,feedback,4,e,r,8,21,M,GabornFF_PAS,2018_kwi_13_0932,2
2,1,1,2,0.767,0.267,feedback,5,e,e,8,21,M,GabornFF_PAS,2018_kwi_13_0932,2
2,1,1,1,1.052,0.567,feedback,6,e,e,7,21,M,GabornFF_PAS,2018_kwi_13_0932,2
2,2,1,2,1.069,0.534,feedback,7,e,r,8,21,M,GabornFF_PAS,2018_kwi_13_0932,2
2,1,1,3,0.968,0.217,feedback,8,e,e,9,21,M,GabornFF_PAS,2018_kwi_13_0932,2
2,2,1,3,0.901,0.267,feedback,9,e,r,9,21,M,GabornFF_PAS,2018_kwi_13_0932,2
2,1,1,2,0.684,0.301,feedback,10,e,e,8,21,M,GabornFF_PAS,2018_kwi_13_0932,2
2,2,2,3,0.884,0.419,feedback,11,r,r,9,21,M,GabornFF_PAS,2018_kwi_13_0932,2
2,1,1,3,0.617,0.367,feedback,12,e,e,9,21,M,GabornFF_PAS,2018_kwi_13_0932,2
2,2,2,1,1.434,0.367,feedback,13,r,r,7,21,M,GabornFF_PAS,2018_kwi_13_0932,2
2,1,1,3,0.8,0.317,feedback,14,e,e,9,21,M,GabornFF_PAS,2018_kwi_13_0932,2
2,2,2,3,1.164,0.384,feedback,15,r,r,9,21,M,GabornFF_PAS,2018_kwi_13_0932,2
2,1,1,3,0.701,0.317,feedback,16,e,e,9,21,M,GabornFF_PAS,2018_kwi_13_0932,2
2,2,1,2,0.917,0.667,feedback,17,e,r,8,21,M,GabornFF_PAS,2018_kwi_13_0932,2
2,2,2,2,1.001,0.517,feedback,18,r,r,8,21,M,GabornFF_PAS,2018_kwi_13_0932,2
2,1,1,4,0.817,0.284,feedback,19,e,e,0,21,M,GabornFF_PAS,2018_kwi_13_0932,2
2,1,1,3,0.734,0.25,feedback,20,e,e,9,21,M,GabornFF_PAS,2018_kwi_13_0932,2
2,2,2,1,1.318,0.301,feedback,21,r,r,7,21,M,GabornFF_PAS,2018_kwi_13_0932,2
2,1,1,2,0.901,0.317,feedback,22,e,e,8,21,M,GabornFF_PAS,2018_kwi_13_0932,2
2,2,2,1,1.503,0.285,feedback,23,r,r,7,21,M,GabornFF_PAS,2018_kwi_13_0932,2
2,1,2,1,1.735,0.35,feedback,24,r,e,7,21,M,GabornFF_PAS,2018_kwi_13_0932,2
2,2,2,1,1.25,0.284,feedback,25,r,r,7,21,M,GabornFF_PAS,2018_kwi_13_0932,2
2,1,2,2,1.768,0.317,feedback,26,r,e,8,21,M,GabornFF_PAS,2018_kwi_13_0932,2
2,2,2,2,1.752,0.484,feedback,27,r,r,8,21,M,GabornFF_PAS,2018_kwi_13_0932,2
2,1,1,3,0.867,0.367,feedback,28,e,e,9,21,M,GabornFF_PAS,2018_kwi_13_0932,2
2,2,2,2,1.534,0.467,feedback,29,r,r,8,21,M,GabornFF_PAS,2018_kwi_13_0932,2
2,2,1,3,1.318,0.45,feedback,30,e,r,9,21,M,GabornFF_PAS,2018_kwi_13_0932,2
2,1,1,3,1.117,0.369,feedback,31,e,e,9,21,M,GabornFF_PAS,2018_kwi_13_0932,2
2,2,2,1,1.337,0.4,feedback,32,r,r,7,21,M,GabornFF_PAS,2018_kwi_13_0932,2
2,1,1,3,0.717,0.35,feedback,33,e,e,9,21,M,GabornFF_PAS,2018_kwi_13_0932,2
2,2,1,4,1.417,0.367,feedback,34,e,r,0,21,M,GabornFF_PAS,2018_kwi_13_0932,2
2,1,1,3,0.75,1.034,feedback,35,e,e,9,21,M,GabornFF_PAS,2018_kwi_13_0932,2
2,2,1,3,0.784,0.25,feedback,36,e,r,9,21,M,GabornFF_PAS,2018_kwi_13_0932,2
2,1,1,3,0.867,0.367,feedback,37,e,e,9,21,M,GabornFF_PAS,2018_kwi_13_0932,2
2,2,1,2,1.184,0.534,feedback,38,e,r,8,21,M,GabornFF_PAS,2018_kwi_13_0932,2
2,1,1,3,0.919,0.3,feedback,39,e,e,9,21,M,GabornFF_PAS,2018_kwi_13_0932,2
2,1,1,3,0.914,0.267,feedback,40,e,e,9,21,M,GabornFF_PAS,2018_kwi_13_0932,2
2,2,1,1,1.585,0.534,feedback,41,e,r,7,21,M,GabornFF_PAS,2018_kwi_13_0932,2
2,2,1,3,1.234,0.834,feedback,42,e,r,9,21,M,GabornFF_PAS,2018_kwi_13_0932,2
2,1,1,3,0.952,0.3,feedback,43,e,e,9,21,M,GabornFF_PAS,2018_kwi_13_0932,2
2,1,1,1,1.902,0.434,feedback,44,e,e,7,21,M,GabornFF_PAS,2018_kwi_13_0932,2
2,2,1,3,1.117,0.367,feedback,45,e,r,9,21,M,GabornFF_PAS,2018_kwi_13_0932,2
2,1,1,3,0.9,0.351,feedback,46,e,e,9,21,M,GabornFF_PAS,2018_kwi_13_0932,2
2,2,1,2,1.117,0.569,feedback,47,e,r,8,21,M,GabornFF_PAS,2018_kwi_13_0932,2
2,1,1,3,0.735,0.317,feedback,48,e,e,9,21,M,GabornFF_PAS,2018_kwi_13_0932,2
2,2,1,3,1.367,0.334,feedback,49,e,r,9,21,M,GabornFF_PAS,2018_kwi_13_0932,2
2,1,1,4,0.734,0.367,feedback,50,e,e,0,21,M,GabornFF_PAS,2018_kwi_13_0932,2
2,2,2,1,1.251,0.751,feedback,51,r,r,7,21,M,GabornFF_PAS,2018_kwi_13_0932,2
2,2,1,2,0.867,0.484,feedback,52,e,r,8,21,M,GabornFF_PAS,2018_kwi_13_0932,2
2,1,1,3,0.652,0.634,feedback,53,e,e,9,21,M,GabornFF_PAS,2018_kwi_13_0932,2
2,2,2,3,0.652,0.334,feedback,54,r,r,9,21,M,GabornFF_PAS,2018_kwi_13_0932,2
2,1,1,4,0.684,0.25,feedback,55,e,e,0,21,M,GabornFF_PAS,2018_kwi_13_0932,2
2,2,2,2,1.317,0.4,feedback,56,r,r,8,21,M,GabornFF_PAS,2018_kwi_13_0932,2
2,1,1,3,0.72,0.334,feedback,57,e,e,9,21,M,GabornFF_PAS,2018_kwi_13_0932,2
2,1,1,3,0.684,0.384,feedback,58,e,e,9,21,M,GabornFF_PAS,2018_kwi_13_0932,2
2,2,2,1,1.484,0.401,feedback,59,r,r,7,21,M,GabornFF_PAS,2018_kwi_13_0932,2
2,2,2,2,0.902,0.735,feedback,60,r,r,8,21,M,GabornFF_PAS,2018_kwi_13_0932,2
2,1,1,3,0.717,0.267,feedback,61,e,e,9,21,M,GabornFF_PAS,2018_kwi_13_0932,2
2,1,1,3,1.434,0.467,feedback,62,e,e,9,21,M,GabornFF_PAS,2018_kwi_13_0932,2
2,2,2,2,1.518,0.434,feedback,63,r,r,8,21,M,GabornFF_PAS,2018_kwi_13_0932,2
2,2,2,1,1.035,0.567,feedback,64,r,r,7,21,M,GabornFF_PAS,2018_kwi_13_0932,2
2,1,1,3,0.735,0.284,feedback,65,e,e,9,21,M,GabornFF_PAS,2018_kwi_13_0932,2
2,2,2,3,1.267,0.351,feedback,66,r,r,9,21,M,GabornFF_PAS,2018_kwi_13_0932,2
2,1,1,3,1.351,0.368,feedback,67,e,e,9,21,M,GabornFF_PAS,2018_kwi_13_0932,2
2,2,1,1,1.669,0.434,feedback,68,e,r,7,21,M,GabornFF_PAS,2018_kwi_13_0932,2
2,1,1,1,1.734,0.684,feedback,69,e,e,7,21,M,GabornFF_PAS,2018_kwi_13_0932,2
2,1,2,3,0.917,0.367,feedback,70,r,e,9,21,M,GabornFF_PAS,2018_kwi_13_0932,2
2,2,2,2,1.334,0.55,feedback,71,r,r,8,21,M,GabornFF_PAS,2018_kwi_13_0932,2
2,1,1,4,0.884,0.402,feedback,72,e,e,0,21,M,GabornFF_PAS,2018_kwi_13_0932,2
2,2,1,1,1.535,1.134,feedback,73,e,r,7,21,M,GabornFF_PAS,2018_kwi_13_0932,2
2,2,2,1,1.75,0.55,feedback,74,r,r,7,21,M,GabornFF_PAS,2018_kwi_13_0932,2
2,1,1,3,0.734,0.284,feedback,75,e,e,9,21,M,GabornFF_PAS,2018_kwi_13_0932,2
2,2,2,1,1.117,0.784,feedback,76,r,r,7,21,M,GabornFF_PAS,2018_kwi_13_0932,2
2,1,1,2,1.601,0.501,feedback,77,e,e,8,21,M,GabornFF_PAS,2018_kwi_13_0932,2
2,1,1,3,0.886,0.334,feedback,78,e,e,9,21,M,GabornFF_PAS,2018_kwi_13_0932,2
2,2,2,1,1.918,0.45,feedback,79,r,r,7,21,M,GabornFF_PAS,2018_kwi_13_0932,2
2,1,1,1,1.567,0.434,feedback,80,e,e,7,21,M,GabornFF_PAS,2018_kwi_13_0932,2
2,2,2,1,1.533,0.317,feedback,81,r,r,7,21,M,GabornFF_PAS,2018_kwi_13_0932,2
2,1,1,3,0.85,0.334,feedback,82,e,e,9,21,M,GabornFF_PAS,2018_kwi_13_0932,2
2,2,1,1,1.901,0.419,feedback,83,e,r,7,21,M,GabornFF_PAS,2018_kwi_13_0932,2
2,1,1,3,0.785,0.4,feedback,84,e,e,9,21,M,GabornFF_PAS,2018_kwi_13_0932,2
2,2,2,1,1.585,0.469,feedback,85,r,r,7,21,M,GabornFF_PAS,2018_kwi_13_0932,2
2,1,2,2,1.067,0.302,feedback,86,r,e,8,21,M,GabornFF_PAS,2018_kwi_13_0932,2
2,2,1,1,1.819,0.367,feedback,87,e,r,7,21,M,GabornFF_PAS,2018_kwi_13_0932,2
2,2,1,3,0.985,0.267,feedback,88,e,r,9,21,M,GabornFF_PAS,2018_kwi_13_0932,2
2,1,1,3,0.753,0.35,feedback,89,e,e,9,21,M,GabornFF_PAS,2018_kwi_13_0932,2
2,1,1,4,0.584,0.417,feedback,90,e,e,0,21,M,GabornFF_PAS,2018_kwi_13_0932,2
2,2,1,2,1.05,0.417,feedback,91,e,r,8,21,M,GabornFF_PAS,2018_kwi_13_0932,2
2,2,1,1,1.667,0.4,feedback,92,e,r,7,21,M,GabornFF_PAS,2018_kwi_13_0932,2
2,1,1,3,0.685,0.267,feedback,93,e,e,9,21,M,GabornFF_PAS,2018_kwi_13_0932,2
2,2,2,1,1.184,0.417,feedback,94,r,r,7,21,M,GabornFF_PAS,2018_kwi_13_0932,2
2,1,1,3,0.684,0.317,feedback,95,e,e,9,21,M,GabornFF_PAS,2018_kwi_13_0932,2
2,2,2,1,1.451,0.335,feedback,96,r,r,7,21,M,GabornFF_PAS,2018_kwi_13_0932,2
2,1,2,1,1.617,0.284,feedback,97,r,e,7,21,M,GabornFF_PAS,2018_kwi_13_0932,2
2,2,1,1,0.967,0.384,feedback,98,e,r,7,21,M,GabornFF_PAS,2018_kwi_13_0932,2
2,1,1,3,0.801,0.267,feedback,99,e,e,9,21,M,GabornFF_PAS,2018_kwi_13_0932,2
2,1,1,2,0.802,0.367,feedback,100,e,e,8,21,M,GabornFF_PAS,2018_kwi_13_0932,2
2,2,2,3,0.885,0.352,feedback,101,r,r,9,21,M,GabornFF_PAS,2018_kwi_13_0932,2
2,1,1,3,0.617,0.467,feedback,102,e,e,9,21,M,GabornFF_PAS,2018_kwi_13_0932,2
2,2,2,3,0.667,0.317,feedback,103,r,r,9,21,M,GabornFF_PAS,2018_kwi_13_0932,2
2,1,1,4,0.651,0.267,feedback,104,e,e,0,21,M,GabornFF_PAS,2018_kwi_13_0932,2
2,2,2,2,0.867,1.717,feedback,105,r,r,8,21,M,GabornFF_PAS,2018_kwi_13_0932,2
2,2,1,3,0.767,0.3,feedback,106,e,r,9,21,M,GabornFF_PAS,2018_kwi_13_0932,2
2,1,1,3,0.684,0.25,feedback,107,e,e,9,21,M,GabornFF_PAS,2018_kwi_13_0932,2
2,2,2,3,0.817,0.317,feedback,108,r,r,9,21,M,GabornFF_PAS,2018_kwi_13_0932,2
2,1,1,3,0.634,0.25,feedback,109,e,e,9,21,M,GabornFF_PAS,2018_kwi_13_0932,2
2,1,1,4,0.617,0.455,feedback,110,e,e,0,21,M,GabornFF_PAS,2018_kwi_13_0932,2
2,2,2,2,1.367,0.55,feedback,111,r,r,8,21,M,GabornFF_PAS,2018_kwi_13_0932,2
2,2,2,2,0.967,0.234,feedback,112,r,r,8,21,M,GabornFF_PAS,2018_kwi_13_0932,2
2,1,1,3,0.633,0.284,feedback,113,e,e,9,21,M,GabornFF_PAS,2018_kwi_13_0932,2
2,2,2,3,0.6,0.234,feedback,114,r,r,9,21,M,GabornFF_PAS,2018_kwi_13_0932,2
2,1,1,4,0.5,0.434,feedback,115,e,e,0,21,M,GabornFF_PAS,2018_kwi_13_0932,2
2,1,2,3,0.601,0.218,feedback,116,r,e,9,21,M,GabornFF_PAS,2018_kwi_13_0932,2
2,2,2,2,0.6,0.3,feedback,117,r,r,8,21,M,GabornFF_PAS,2018_kwi_13_0932,2
2,2,2,2,0.584,0.234,feedback,118,r,r,8,21,M,GabornFF_PAS,2018_kwi_13_0932,2
2,1,2,2,0.5,0.25,feedback,119,r,e,8,21,M,GabornFF_PAS,2018_kwi_13_0932,2
2,2,2,1,0.867,0.3,feedback,120,r,r,7,21,M,GabornFF_PAS,2018_kwi_13_0932,2
2,1,1,3,0.935,0.333,feedback,121,e,e,9,21,M,GabornFF_PAS,2018_kwi_13_0932,2
2,2,2,1,1.317,0.401,feedback,122,r,r,7,21,M,GabornFF_PAS,2018_kwi_13_0932,2
2,1,2,2,1.201,0.334,feedback,123,r,e,8,21,M,GabornFF_PAS,2018_kwi_13_0932,2
2,1,2,2,1.067,0.367,feedback,124,r,e,8,21,M,GabornFF_PAS,2018_kwi_13_0932,2
2,2,1,1,1.469,0.35,feedback,125,e,r,7,21,M,GabornFF_PAS,2018_kwi_13_0932,2
2,1,1,4,0.851,0.3,feedback,126,e,e,0,21,M,GabornFF_PAS,2018_kwi_13_0932,2
2,2,2,1,1.25,0.35,feedback,127,r,r,7,21,M,GabornFF_PAS,2018_kwi_13_0932,2
2,1,1,3,0.817,0.251,feedback,128,e,e,9,21,M,GabornFF_PAS,2018_kwi_13_0932,2
2,2,2,1,1.185,0.434,feedback,129,r,r,7,21,M,GabornFF_PAS,2018_kwi_13_0932,2
2,1,2,2,1.184,0.768,feedback,130,r,e,8,21,M,GabornFF_PAS,2018_kwi_13_0932,2
2,2,1,3,1.284,0.652,feedback,131,e,r,9,21,M,GabornFF_PAS,2018_kwi_13_0932,2
2,2,1,2,1.317,0.284,feedback,132,e,r,8,21,M,GabornFF_PAS,2018_kwi_13_0932,2
2,1,1,4,0.734,0.35,feedback,133,e,e,0,21,M,GabornFF_PAS,2018_kwi_13_0932,2
2,2,2,4,0.651,0.517,feedback,134,r,r,0,21,M,GabornFF_PAS,2018_kwi_13_0932,2
2,1,1,2,1.086,0.317,feedback,135,e,e,8,21,M,GabornFF_PAS,2018_kwi_13_0932,2
2,1,1,3,0.684,0.467,feedback,136,e,e,9,21,M,GabornFF_PAS,2018_kwi_13_0932,2
2,2,1,4,0.717,0.367,feedback,137,e,r,0,21,M,GabornFF_PAS,2018_kwi_13_0932,2
2,2,1,3,0.817,0.417,feedback,138,e,r,9,21,M,GabornFF_PAS,2018_kwi_13_0932,2
2,1,1,3,0.75,0.7,feedback,139,e,e,9,21,M,GabornFF_PAS,2018_kwi_13_0932,2
2,1,1,3,0.584,0.367,feedback,140,e,e,9,21,M,GabornFF_PAS,2018_kwi_13_0932,2
2,2,1,3,0.717,0.317,feedback,141,e,r,9,21,M,GabornFF_PAS,2018_kwi_13_0932,2
2,2,1,3,0.817,0.334,feedback,142,e,r,9,21,M,GabornFF_PAS,2018_kwi_13_0932,2
2,1,1,2,0.718,0.8,feedback,143,e,e,8,21,M,GabornFF_PAS,2018_kwi_13_0932,2
2,1,1,3,0.567,0.334,feedback,144,e,e,9,21,M,GabornFF_PAS,2018_kwi_13_0932,2
2,2,1,3,0.5,0.284,feedback,145,e,r,9,21,M,GabornFF_PAS,2018_kwi_13_0932,2
2,1,1,3,0.551,0.367,feedback,146,e,e,9,21,M,GabornFF_PAS,2018_kwi_13_0932,2
2,2,1,3,0.434,0.451,feedback,147,e,r,9,21,M,GabornFF_PAS,2018_kwi_13_0932,2
2,1,1,3,0.434,0.367,feedback,148,e,e,9,21,M,GabornFF_PAS,2018_kwi_13_0932,2
2,2,1,3,0.484,0.25,feedback,149,e,r,9,21,M,GabornFF_PAS,2018_kwi_13_0932,2
2,1,1,4,0.567,0.3,feedback,150,e,e,0,21,M,GabornFF_PAS,2018_kwi_13_0932,2
2,2,2,2,0.884,0.434,feedback,151,r,r,8,21,M,GabornFF_PAS,2018_kwi_13_0932,2
2,1,1,3,0.65,0.217,feedback,152,e,e,9,21,M,GabornFF_PAS,2018_kwi_13_0932,2
2,2,2,2,1.104,0.584,feedback,153,r,r,8,21,M,GabornFF_PAS,2018_kwi_13_0932,2
2,1,1,2,0.569,0.284,feedback,154,e,e,8,21,M,GabornFF_PAS,2018_kwi_13_0932,2
2,2,2,2,0.9,0.367,feedback,155,r,r,8,21,M,GabornFF_PAS,2018_kwi_13_0932,2
2,1,1,3,0.617,0.617,feedback,156,e,e,9,21,M,GabornFF_PAS,2018_kwi_13_0932,2
2,2,2,3,0.85,0.518,feedback,157,r,r,9,21,M,GabornFF_PAS,2018_kwi_13_0932,2
2,2,2,3,0.634,0.267,feedback,158,r,r,9,21,M,GabornFF_PAS,2018_kwi_13_0932,2
2,1,1,2,0.534,0.535,feedback,159,e,e,8,21,M,GabornFF_PAS,2018_kwi_13_0932,2
2,1,1,4,0.584,0.351,feedback,160,e,e,0,21,M,GabornFF_PAS,2018_kwi_13_0932,2
2,2,2,2,1.118,0.35,feedback,161,r,r,8,21,M,GabornFF_PAS,2018_kwi_13_0932,2
2,2,2,2,1.267,0.35,feedback,162,r,r,8,21,M,GabornFF_PAS,2018_kwi_13_0932,2
2,1,1,3,0.65,0.367,feedback,163,e,e,9,21,M,GabornFF_PAS,2018_kwi_13_0932,2
2,2,2,2,0.9,0.401,feedback,164,r,r,8,21,M,GabornFF_PAS,2018_kwi_13_0932,2
2,1,1,3,0.617,0.534,feedback,165,e,e,9,21,M,GabornFF_PAS,2018_kwi_13_0932,2
2,2,2,3,0.751,0.351,feedback,166,r,r,9,21,M,GabornFF_PAS,2018_kwi_13_0932,2
2,1,1,1,1.418,0.384,feedback,167,e,e,7,21,M,GabornFF_PAS,2018_kwi_13_0932,2
2,1,1,3,0.684,0.317,feedback,168,e,e,9,21,M,GabornFF_PAS,2018_kwi_13_0932,2
2,2,2,3,0.667,0.284,feedback,169,r,r,9,21,M,GabornFF_PAS,2018_kwi_13_0932,2
2,1,1,4,0.617,0.317,feedback,170,e,e,0,21,M,GabornFF_PAS,2018_kwi_13_0932,2
2,2,2,2,0.785,0.267,feedback,171,r,r,8,21,M,GabornFF_PAS,2018_kwi_13_0932,2
2,2,2,1,1.168,0.334,feedback,172,r,r,7,21,M,GabornFF_PAS,2018_kwi_13_0932,2
2,1,1,3,0.634,0.367,feedback,173,e,e,9,21,M,GabornFF_PAS,2018_kwi_13_0932,2
2,2,2,2,1.034,0.487,feedback,174,r,r,8,21,M,GabornFF_PAS,2018_kwi_13_0932,2
2,1,1,3,0.567,0.35,feedback,175,e,e,9,21,M,GabornFF_PAS,2018_kwi_13_0932,2
2,1,1,3,0.534,0.367,feedback,176,e,e,9,21,M,GabornFF_PAS,2018_kwi_13_0932,2
2,2,1,3,0.785,0.334,feedback,177,e,r,9,21,M,GabornFF_PAS,2018_kwi_13_0932,2
2,1,1,3,0.634,0.267,feedback,178,e,e,9,21,M,GabornFF_PAS,2018_kwi_13_0932,2
2,2,1,3,0.668,0.25,feedback,179,e,r,9,21,M,GabornFF_PAS,2018_kwi_13_0932,2
2,2,1,3,1.034,0.4,feedback,180,e,r,9,21,M,GabornFF_PAS,2018_kwi_13_0932,2
2,1,1,3,0.719,0.634,feedback,181,e,e,9,21,M,GabornFF_PAS,2018_kwi_13_0932,2
2,1,1,4,0.634,0.302,feedback,182,e,e,0,21,M,GabornFF_PAS,2018_kwi_13_0932,2
2,2,1,2,0.934,0.334,feedback,183,e,r,8,21,M,GabornFF_PAS,2018_kwi_13_0932,2
2,2,1,2,1.5,0.25,feedback,184,e,r,8,21,M,GabornFF_PAS,2018_kwi_13_0932,2
2,1,1,3,0.734,0.535,feedback,185,e,e,9,21,M,GabornFF_PAS,2018_kwi_13_0932,2
2,1,1,3,0.65,0.284,feedback,186,e,e,9,21,M,GabornFF_PAS,2018_kwi_13_0932,2
2,2,1,2,1.684,0.3,feedback,187,e,r,8,21,M,GabornFF_PAS,2018_kwi_13_0932,2
2,1,1,3,0.684,0.367,feedback,188,e,e,9,21,M,GabornFF_PAS,2018_kwi_13_0932,2
2,2,1,1,1.102,0.334,feedback,189,e,r,7,21,M,GabornFF_PAS,2018_kwi_13_0932,2
2,1,1,2,1.167,0.4,feedback,190,e,e,8,21,M,GabornFF_PAS,2018_kwi_13_0932,2
2,2,1,2,0.902,0.601,feedback,191,e,r,8,21,M,GabornFF_PAS,2018_kwi_13_0932,2
2,1,1,3,1.07,0.317,feedback,192,e,e,9,21,M,GabornFF_PAS,2018_kwi_13_0932,2
2,2,1,1,0.786,0.334,feedback,193,e,r,7,21,M,GabornFF_PAS,2018_kwi_13_0932,2
2,1,1,2,0.767,0.317,feedback,194,e,e,8,21,M,GabornFF_PAS,2018_kwi_13_0932,2
2,2,1,2,0.8,0.3,feedback,195,e,r,8,21,M,GabornFF_PAS,2018_kwi_13_0932,2
2,2,2,2,1.034,0.301,feedback,196,r,r,8,21,M,GabornFF_PAS,2018_kwi_13_0932,2
2,1,1,2,0.702,0.234,feedback,197,e,e,8,21,M,GabornFF_PAS,2018_kwi_13_0932,2
2,1,1,3,0.734,0.3,feedback,198,e,e,9,21,M,GabornFF_PAS,2018_kwi_13_0932,2
2,2,1,3,0.567,0.251,feedback,199,e,r,9,21,M,GabornFF_PAS,2018_kwi_13_0932,2
3,2,2,1,0.784,0.384,nofeedback,0,r,r,7,25,F,GabornFF_PAS,2018_kwi_13_0932,1
3,1,1,2,0.55,0.4,nofeedback,1,e,e,8,25,F,GabornFF_PAS,2018_kwi_13_0932,1
3,1,1,2,0.868,0.567,nofeedback,2,e,e,8,25,F,GabornFF_PAS,2018_kwi_13_0932,1
3,2,1,1,1.167,0.85,nofeedback,3,e,r,7,25,F,GabornFF_PAS,2018_kwi_13_0932,1
3,1,1,2,0.784,0.717,nofeedback,4,e,e,8,25,F,GabornFF_PAS,2018_kwi_13_0932,1
3,2,1,1,0.834,0.734,nofeedback,5,e,r,7,25,F,GabornFF_PAS,2018_kwi_13_0932,1
3,1,1,3,0.684,0.667,nofeedback,6,e,e,9,25,F,GabornFF_PAS,2018_kwi_13_0932,1
3,2,2,4,1.05,1.152,nofeedback,7,r,r,0,25,F,GabornFF_PAS,2018_kwi_13_0932,1
3,1,2,2,1.301,0.568,nofeedback,8,r,e,8,25,F,GabornFF_PAS,2018_kwi_13_0932,1
3,2,2,1,0.984,0.35,nofeedback,9,r,r,7,25,F,GabornFF_PAS,2018_kwi_13_0932,1
3,2,2,1,0.767,0.384,nofeedback,10,r,r,7,25,F,GabornFF_PAS,2018_kwi_13_0932,1
3,1,1,2,0.734,0.417,nofeedback,11,e,e,8,25,F,GabornFF_PAS,2018_kwi_13_0932,1
3,2,2,2,0.75,0.417,nofeedback,12,r,r,8,25,F,GabornFF_PAS,2018_kwi_13_0932,1
3,1,1,1,0.881,0.651,nofeedback,13,e,e,7,25,F,GabornFF_PAS,2018_kwi_13_0932,1
3,1,1,2,0.751,0.735,nofeedback,14,e,e,8,25,F,GabornFF_PAS,2018_kwi_13_0932,1
3,2,2,2,0.734,0.451,nofeedback,15,r,r,8,25,F,GabornFF_PAS,2018_kwi_13_0932,1
3,2,2,1,0.768,0.584,nofeedback,16,r,r,7,25,F,GabornFF_PAS,2018_kwi_13_0932,1
3,1,1,1,0.784,1.15,nofeedback,17,e,e,7,25,F,GabornFF_PAS,2018_kwi_13_0932,1
3,1,1,1,0.617,0.484,nofeedback,18,e,e,7,25,F,GabornFF_PAS,2018_kwi_13_0932,1
3,2,2,3,0.751,0.5,nofeedback,19,r,r,9,25,F,GabornFF_PAS,2018_kwi_13_0932,1
3,1,1,3,0.734,0.45,nofeedback,20,e,e,9,25,F,GabornFF_PAS,2018_kwi_13_0932,1
3,2,2,3,0.667,0.5,nofeedback,21,r,r,9,25,F,GabornFF_PAS,2018_kwi_13_0932,1
3,1,1,3,0.651,0.417,nofeedback,22,e,e,9,25,F,GabornFF_PAS,2018_kwi_13_0932,1
3,2,2,3,0.684,0.967,nofeedback,23,r,r,9,25,F,GabornFF_PAS,2018_kwi_13_0932,1
3,1,1,3,0.702,0.334,nofeedback,24,e,e,9,25,F,GabornFF_PAS,2018_kwi_13_0932,1
3,2,2,3,0.586,0.42,nofeedback,25,r,r,9,25,F,GabornFF_PAS,2018_kwi_13_0932,1
3,1,2,2,0.968,0.317,nofeedback,26,r,e,8,25,F,GabornFF_PAS,2018_kwi_13_0932,1
3,2,2,2,0.7,0.451,nofeedback,27,r,r,8,25,F,GabornFF_PAS,2018_kwi_13_0932,1
3,2,2,2,0.7,0.619,nofeedback,28,r,r,8,25,F,GabornFF_PAS,2018_kwi_13_0932,1
3,1,1,2,0.701,0.334,nofeedback,29,e,e,8,25,F,GabornFF_PAS,2018_kwi_13_0932,1
3,2,2,2,0.634,1,nofeedback,30,r,r,8,25,F,GabornFF_PAS,2018_kwi_13_0932,1
3,1,1,3,0.784,0.451,nofeedback,31,e,e,9,25,F,GabornFF_PAS,2018_kwi_13_0932,1
3,2,2,2,1.417,0.717,nofeedback,32,r,r,8,25,F,GabornFF_PAS,2018_kwi_13_0932,1
3,1,1,2,0.7,0.3,nofeedback,33,e,e,8,25,F,GabornFF_PAS,2018_kwi_13_0932,1
3,2,2,2,0.55,0.3,nofeedback,34,r,r,8,25,F,GabornFF_PAS,2018_kwi_13_0932,1
3,1,1,3,0.634,0.451,nofeedback,35,e,e,9,25,F,GabornFF_PAS,2018_kwi_13_0932,1
3,2,2,2,0.617,0.384,nofeedback,36,r,r,8,25,F,GabornFF_PAS,2018_kwi_13_0932,1
3,1,1,3,0.55,0.384,nofeedback,37,e,e,9,25,F,GabornFF_PAS,2018_kwi_13_0932,1
3,2,2,3,0.634,0.6,nofeedback,38,r,r,9,25,F,GabornFF_PAS,2018_kwi_13_0932,1
3,1,1,4,0.868,0.767,nofeedback,39,e,e,0,25,F,GabornFF_PAS,2018_kwi_13_0932,1
3,2,2,3,0.667,0.384,nofeedback,40,r,r,9,25,F,GabornFF_PAS,2018_kwi_13_0932,1
3,1,1,3,0.736,0.417,nofeedback,41,e,e,9,25,F,GabornFF_PAS,2018_kwi_13_0932,1
3,2,2,3,0.551,0.334,nofeedback,42,r,r,9,25,F,GabornFF_PAS,2018_kwi_13_0932,1
3,1,1,3,0.434,0.286,nofeedback,43,e,e,9,25,F,GabornFF_PAS,2018_kwi_13_0932,1
3,2,2,3,0.634,0.534,nofeedback,44,r,r,9,25,F,GabornFF_PAS,2018_kwi_13_0932,1
3,1,1,3,0.501,0.334,nofeedback,45,e,e,9,25,F,GabornFF_PAS,2018_kwi_13_0932,1
3,1,2,2,0.553,0.533,nofeedback,46,r,e,8,25,F,GabornFF_PAS,2018_kwi_13_0932,1
3,2,2,1,1.25,0.3,nofeedback,47,r,r,7,25,F,GabornFF_PAS,2018_kwi_13_0932,1
3,2,2,1,1.434,0.817,nofeedback,48,r,r,7,25,F,GabornFF_PAS,2018_kwi_13_0932,1
3,1,2,1,1.001,0.284,nofeedback,49,r,e,7,25,F,GabornFF_PAS,2018_kwi_13_0932,1
3,2,2,1,0.55,0.567,nofeedback,50,r,r,7,25,F,GabornFF_PAS,2018_kwi_13_0932,1
3,1,1,1,0.635,0.334,nofeedback,51,e,e,7,25,F,GabornFF_PAS,2018_kwi_13_0932,1
3,2,2,1,0.584,0.367,nofeedback,52,r,r,7,25,F,GabornFF_PAS,2018_kwi_13_0932,1
3,1,2,1,0.984,0.301,nofeedback,53,r,e,7,25,F,GabornFF_PAS,2018_kwi_13_0932,1
3,2,2,2,0.885,0.303,nofeedback,54,r,r,8,25,F,GabornFF_PAS,2018_kwi_13_0932,1
3,1,2,1,0.8,0.801,nofeedback,55,r,e,7,25,F,GabornFF_PAS,2018_kwi_13_0932,1
3,2,2,1,0.585,0.301,nofeedback,56,r,r,7,25,F,GabornFF_PAS,2018_kwi_13_0932,1
3,1,1,1,0.384,0.25,nofeedback,57,e,e,7,25,F,GabornFF_PAS,2018_kwi_13_0932,1
3,2,1,1,0.517,0.183,nofeedback,58,e,r,7,25,F,GabornFF_PAS,2018_kwi_13_0932,1
3,1,1,1,0.751,0.3,nofeedback,59,e,e,7,25,F,GabornFF_PAS,2018_kwi_13_0932,1
3,2,2,1,0.767,0.234,nofeedback,60,r,r,7,25,F,GabornFF_PAS,2018_kwi_13_0932,1
3,1,1,2,0.667,0.451,nofeedback,61,e,e,8,25,F,GabornFF_PAS,2018_kwi_13_0932,1
3,2,2,2,0.584,0.3,nofeedback,62,r,r,8,25,F,GabornFF_PAS,2018_kwi_13_0932,1
3,1,1,1,0.75,0.334,nofeedback,63,e,e,7,25,F,GabornFF_PAS,2018_kwi_13_0932,1
3,1,1,1,0.983,0.284,nofeedback,64,e,e,7,25,F,GabornFF_PAS,2018_kwi_13_0932,1
3,2,2,2,0.702,0.384,nofeedback,65,r,r,8,25,F,GabornFF_PAS,2018_kwi_13_0932,1
3,1,1,2,0.701,0.284,nofeedback,66,e,e,8,25,F,GabornFF_PAS,2018_kwi_13_0932,1
3,2,2,2,0.667,0.334,nofeedback,67,r,r,8,25,F,GabornFF_PAS,2018_kwi_13_0932,1
3,1,1,2,0.584,0.417,nofeedback,68,e,e,8,25,F,GabornFF_PAS,2018_kwi_13_0932,1
3,2,2,2,0.667,0.35,nofeedback,69,r,r,8,25,F,GabornFF_PAS,2018_kwi_13_0932,1
3,1,1,1,0.634,0.538,nofeedback,70,e,e,7,25,F,GabornFF_PAS,2018_kwi_13_0932,1
3,2,2,2,0.667,0.3,nofeedback,71,r,r,8,25,F,GabornFF_PAS,2018_kwi_13_0932,1
3,2,2,1,1.134,0.5,nofeedback,72,r,r,7,25,F,GabornFF_PAS,2018_kwi_13_0932,1
3,1,1,1,0.667,0.367,nofeedback,73,e,e,7,25,F,GabornFF_PAS,2018_kwi_13_0932,1
3,1,1,3,0.852,0.734,nofeedback,74,e,e,9,25,F,GabornFF_PAS,2018_kwi_13_0932,1
3,2,2,2,0.735,0.7,nofeedback,75,r,r,8,25,F,GabornFF_PAS,2018_kwi_13_0932,1
3,2,2,2,0.734,0.503,nofeedback,76,r,r,8,25,F,GabornFF_PAS,2018_kwi_13_0932,1
3,1,1,2,0.7,0.367,nofeedback,77,e,e,8,25,F,GabornFF_PAS,2018_kwi_13_0932,1
3,1,1,3,0.617,0.384,nofeedback,78,e,e,9,25,F,GabornFF_PAS,2018_kwi_13_0932,1
3,2,2,3,0.784,0.484,nofeedback,79,r,r,9,25,F,GabornFF_PAS,2018_kwi_13_0932,1
3,1,1,4,0.75,0.601,nofeedback,80,e,e,0,25,F,GabornFF_PAS,2018_kwi_13_0932,1
3,2,2,4,0.667,0.417,nofeedback,81,r,r,0,25,F,GabornFF_PAS,2018_kwi_13_0932,1
3,2,2,2,0.817,0.851,nofeedback,82,r,r,8,25,F,GabornFF_PAS,2018_kwi_13_0932,1
3,1,1,1,0.817,0.567,nofeedback,83,e,e,7,25,F,GabornFF_PAS,2018_kwi_13_0932,1
3,1,1,1,0.834,0.535,nofeedback,84,e,e,7,25,F,GabornFF_PAS,2018_kwi_13_0932,1
3,2,2,2,0.667,0.45,nofeedback,85,r,r,8,25,F,GabornFF_PAS,2018_kwi_13_0932,1
3,2,2,3,0.818,0.4,nofeedback,86,r,r,9,25,F,GabornFF_PAS,2018_kwi_13_0932,1
3,1,1,2,0.751,0.484,nofeedback,87,e,e,8,25,F,GabornFF_PAS,2018_kwi_13_0932,1
3,2,1,2,0.817,0.517,nofeedback,88,e,r,8,25,F,GabornFF_PAS,2018_kwi_13_0932,1
3,1,1,3,0.65,0.734,nofeedback,89,e,e,9,25,F,GabornFF_PAS,2018_kwi_13_0932,1
3,2,2,2,0.817,0.817,nofeedback,90,r,r,8,25,F,GabornFF_PAS,2018_kwi_13_0932,1
3,1,1,2,0.734,0.451,nofeedback,91,e,e,8,25,F,GabornFF_PAS,2018_kwi_13_0932,1
3,2,2,2,0.617,0.417,nofeedback,92,r,r,8,25,F,GabornFF_PAS,2018_kwi_13_0932,1
3,1,1,2,0.634,0.3,nofeedback,93,e,e,8,25,F,GabornFF_PAS,2018_kwi_13_0932,1
3,2,1,1,0.95,0.367,nofeedback,94,e,r,7,25,F,GabornFF_PAS,2018_kwi_13_0932,1
3,1,1,1,0.617,0.3,nofeedback,95,e,e,7,25,F,GabornFF_PAS,2018_kwi_13_0932,1
3,1,2,2,0.55,0.801,nofeedback,96,r,e,8,25,F,GabornFF_PAS,2018_kwi_13_0932,1
3,2,2,2,0.634,0.484,nofeedback,97,r,r,8,25,F,GabornFF_PAS,2018_kwi_13_0932,1
3,1,1,2,0.585,0.35,nofeedback,98,e,e,8,25,F,GabornFF_PAS,2018_kwi_13_0932,1
3,2,2,2,0.8,0.467,nofeedback,99,r,r,8,25,F,GabornFF_PAS,2018_kwi_13_0932,1
3,1,1,1,0.517,0.417,nofeedback,100,e,e,7,25,F,GabornFF_PAS,2018_kwi_13_0932,1
3,2,2,1,0.535,0.3,nofeedback,101,r,r,7,25,F,GabornFF_PAS,2018_kwi_13_0932,1
3,2,2,1,0.602,0.45,nofeedback,102,r,r,7,25,F,GabornFF_PAS,2018_kwi_13_0932,1
3,1,1,3,0.467,0.534,nofeedback,103,e,e,9,25,F,GabornFF_PAS,2018_kwi_13_0932,1
3,2,2,2,0.617,0.384,nofeedback,104,r,r,8,25,F,GabornFF_PAS,2018_kwi_13_0932,1
3,1,1,1,0.567,0.334,nofeedback,105,e,e,7,25,F,GabornFF_PAS,2018_kwi_13_0932,1
3,1,1,1,0.55,0.334,nofeedback,106,e,e,7,25,F,GabornFF_PAS,2018_kwi_13_0932,1
3,2,2,1,0.551,0.302,nofeedback,107,r,r,7,25,F,GabornFF_PAS,2018_kwi_13_0932,1
3,1,1,2,0.7,0.251,nofeedback,108,e,e,8,25,F,GabornFF_PAS,2018_kwi_13_0932,1
3,2,2,1,0.55,0.9,nofeedback,109,r,r,7,25,F,GabornFF_PAS,2018_kwi_13_0932,1
3,1,1,2,0.534,0.301,nofeedback,110,e,e,8,25,F,GabornFF_PAS,2018_kwi_13_0932,1
3,2,2,1,0.667,0.25,nofeedback,111,r,r,7,25,F,GabornFF_PAS,2018_kwi_13_0932,1
3,1,2,1,1.067,0.25,nofeedback,112,r,e,7,25,F,GabornFF_PAS,2018_kwi_13_0932,1
3,2,1,1,0.752,0.217,nofeedback,113,e,r,7,25,F,GabornFF_PAS,2018_kwi_13_0932,1
3,2,1,1,0.6,0.45,nofeedback,114,e,r,7,25,F,GabornFF_PAS,2018_kwi_13_0932,1
3,1,1,2,0.934,0.55,nofeedback,115,e,e,8,25,F,GabornFF_PAS,2018_kwi_13_0932,1
3,1,1,3,0.551,0.417,nofeedback,116,e,e,9,25,F,GabornFF_PAS,2018_kwi_13_0932,1
3,2,2,2,1.267,0.584,nofeedback,117,r,r,8,25,F,GabornFF_PAS,2018_kwi_13_0932,1
3,2,2,1,0.7,0.334,nofeedback,118,r,r,7,25,F,GabornFF_PAS,2018_kwi_13_0932,1
3,1,1,3,0.734,0.384,nofeedback,119,e,e,9,25,F,GabornFF_PAS,2018_kwi_13_0932,1
3,1,1,3,0.734,0.917,nofeedback,120,e,e,9,25,F,GabornFF_PAS,2018_kwi_13_0932,1
3,2,2,2,0.95,0.45,nofeedback,121,r,r,8,25,F,GabornFF_PAS,2018_kwi_13_0932,1
3,1,1,2,0.735,0.417,nofeedback,122,e,e,8,25,F,GabornFF_PAS,2018_kwi_13_0932,1
3,2,1,1,0.85,0.384,nofeedback,123,e,r,7,25,F,GabornFF_PAS,2018_kwi_13_0932,1
3,2,2,2,0.7,0.334,nofeedback,124,r,r,8,25,F,GabornFF_PAS,2018_kwi_13_0932,1
3,1,1,2,0.667,0.267,nofeedback,125,e,e,8,25,F,GabornFF_PAS,2018_kwi_13_0932,1
3,1,1,2,0.7,0.334,nofeedback,126,e,e,8,25,F,GabornFF_PAS,2018_kwi_13_0932,1
3,2,1,1,0.65,0.35,nofeedback,127,e,r,7,25,F,GabornFF_PAS,2018_kwi_13_0932,1
3,2,2,1,0.651,0.334,nofeedback,128,r,r,7,25,F,GabornFF_PAS,2018_kwi_13_0932,1
3,1,1,1,1.151,0.417,nofeedback,129,e,e,7,25,F,GabornFF_PAS,2018_kwi_13_0932,1
3,2,1,1,0.617,0.334,nofeedback,130,e,r,7,25,F,GabornFF_PAS,2018_kwi_13_0932,1
3,1,1,2,0.9,0.951,nofeedback,131,e,e,8,25,F,GabornFF_PAS,2018_kwi_13_0932,1
3,2,2,1,0.667,0.251,nofeedback,132,r,r,7,25,F,GabornFF_PAS,2018_kwi_13_0932,1
3,1,2,1,0.985,0.267,nofeedback,133,r,e,7,25,F,GabornFF_PAS,2018_kwi_13_0932,1
3,1,1,2,0.817,0.384,nofeedback,134,e,e,8,25,F,GabornFF_PAS,2018_kwi_13_0932,1
3,2,1,1,0.584,0.334,nofeedback,135,e,r,7,25,F,GabornFF_PAS,2018_kwi_13_0932,1
3,1,1,1,0.667,0.269,nofeedback,136,e,e,7,25,F,GabornFF_PAS,2018_kwi_13_0932,1
3,2,2,1,0.884,0.217,nofeedback,137,r,r,7,25,F,GabornFF_PAS,2018_kwi_13_0932,1
3,1,1,1,0.634,0.217,nofeedback,138,e,e,7,25,F,GabornFF_PAS,2018_kwi_13_0932,1
3,2,2,2,0.734,0.384,nofeedback,139,r,r,8,25,F,GabornFF_PAS,2018_kwi_13_0932,1
3,1,2,1,0.734,0.384,nofeedback,140,r,e,7,25,F,GabornFF_PAS,2018_kwi_13_0932,1
3,2,1,1,0.434,0.384,nofeedback,141,e,r,7,25,F,GabornFF_PAS,2018_kwi_13_0932,1
3,2,2,1,0.534,0.334,nofeedback,142,r,r,7,25,F,GabornFF_PAS,2018_kwi_13_0932,1
3,1,1,3,0.467,0.617,nofeedback,143,e,e,9,25,F,GabornFF_PAS,2018_kwi_13_0932,1
3,2,2,1,0.7,0.334,nofeedback,144,r,r,7,25,F,GabornFF_PAS,2018_kwi_13_0932,1
3,1,1,2,0.701,0.334,nofeedback,145,e,e,8,25,F,GabornFF_PAS,2018_kwi_13_0932,1
3,2,2,1,0.634,0.334,nofeedback,146,r,r,7,25,F,GabornFF_PAS,2018_kwi_13_0932,1
3,1,1,1,0.584,0.35,nofeedback,147,e,e,7,25,F,GabornFF_PAS,2018_kwi_13_0932,1
3,2,2,1,0.85,0.3,nofeedback,148,r,r,7,25,F,GabornFF_PAS,2018_kwi_13_0932,1
3,1,1,2,0.65,0.267,nofeedback,149,e,e,8,25,F,GabornFF_PAS,2018_kwi_13_0932,1
3,1,1,1,1.801,0.501,nofeedback,150,e,e,7,25,F,GabornFF_PAS,2018_kwi_13_0932,1
3,2,1,1,0.934,0.217,nofeedback,151,e,r,7,25,F,GabornFF_PAS,2018_kwi_13_0932,1
3,2,1,1,0.584,0.234,nofeedback,152,e,r,7,25,F,GabornFF_PAS,2018_kwi_13_0932,1
3,1,1,2,1.05,0.5,nofeedback,153,e,e,8,25,F,GabornFF_PAS,2018_kwi_13_0932,1
3,1,1,1,0.667,0.334,nofeedback,154,e,e,7,25,F,GabornFF_PAS,2018_kwi_13_0932,1
3,2,1,1,0.667,0.534,nofeedback,155,e,r,7,25,F,GabornFF_PAS,2018_kwi_13_0932,1
3,1,1,1,0.65,0.534,nofeedback,156,e,e,7,25,F,GabornFF_PAS,2018_kwi_13_0932,1
3,2,1,1,0.7,0.467,nofeedback,157,e,r,7,25,F,GabornFF_PAS,2018_kwi_13_0932,1
3,2,2,2,0.851,0.484,nofeedback,158,r,r,8,25,F,GabornFF_PAS,2018_kwi_13_0932,1
3,1,2,1,0.667,0.535,nofeedback,159,r,e,7,25,F,GabornFF_PAS,2018_kwi_13_0932,1
3,1,1,1,0.868,0.334,nofeedback,160,e,e,7,25,F,GabornFF_PAS,2018_kwi_13_0932,1
3,2,2,1,0.584,0.367,nofeedback,161,r,r,7,25,F,GabornFF_PAS,2018_kwi_13_0932,1
3,1,1,2,0.7,0.35,nofeedback,162,e,e,8,25,F,GabornFF_PAS,2018_kwi_13_0932,1
3,2,2,2,0.618,0.501,nofeedback,163,r,r,8,25,F,GabornFF_PAS,2018_kwi_13_0932,1
3,2,2,2,0.734,0.45,nofeedback,164,r,r,8,25,F,GabornFF_PAS,2018_kwi_13_0932,1
3,1,1,2,0.502,0.418,nofeedback,165,e,e,8,25,F,GabornFF_PAS,2018_kwi_13_0932,1
3,2,2,1,0.934,0.734,nofeedback,166,r,r,7,25,F,GabornFF_PAS,2018_kwi_13_0932,1
3,1,1,1,0.55,0.335,nofeedback,167,e,e,7,25,F,GabornFF_PAS,2018_kwi_13_0932,1
3,1,1,1,0.75,0.284,nofeedback,168,e,e,7,25,F,GabornFF_PAS,2018_kwi_13_0932,1
3,2,1,1,0.702,0.234,nofeedback,169,e,r,7,25,F,GabornFF_PAS,2018_kwi_13_0932,1
3,2,2,2,0.633,0.334,nofeedback,170,r,r,8,25,F,GabornFF_PAS,2018_kwi_13_0932,1
3,1,1,1,0.767,0.384,nofeedback,171,e,e,7,25,F,GabornFF_PAS,2018_kwi_13_0932,1
3,2,1,1,0.751,0.65,nofeedback,172,e,r,7,25,F,GabornFF_PAS,2018_kwi_13_0932,1
3,1,1,1,1.167,0.267,nofeedback,173,e,e,7,25,F,GabornFF_PAS,2018_kwi_13_0932,1
3,2,1,1,0.65,0.467,nofeedback,174,e,r,7,25,F,GabornFF_PAS,2018_kwi_13_0932,1
3,1,2,1,0.817,0.284,nofeedback,175,r,e,7,25,F,GabornFF_PAS,2018_kwi_13_0932,1
3,1,1,1,0.634,0.367,nofeedback,176,e,e,7,25,F,GabornFF_PAS,2018_kwi_13_0932,1
3,2,2,1,1.1,0.417,nofeedback,177,r,r,7,25,F,GabornFF_PAS,2018_kwi_13_0932,1
3,2,2,1,0.984,0.569,nofeedback,178,r,r,7,25,F,GabornFF_PAS,2018_kwi_13_0932,1
3,1,2,1,0.817,0.601,nofeedback,179,r,e,7,25,F,GabornFF_PAS,2018_kwi_13_0932,1
3,1,1,1,0.667,0.334,nofeedback,180,e,e,7,25,F,GabornFF_PAS,2018_kwi_13_0932,1
3,2,1,1,1.367,1.434,nofeedback,181,e,r,7,25,F,GabornFF_PAS,2018_kwi_13_0932,1
3,2,2,1,0.701,0.584,nofeedback,182,r,r,7,25,F,GabornFF_PAS,2018_kwi_13_0932,1
3,1,1,1,0.9,0.334,nofeedback,183,e,e,7,25,F,GabornFF_PAS,2018_kwi_13_0932,1
3,1,1,1,0.634,0.534,nofeedback,184,e,e,7,25,F,GabornFF_PAS,2018_kwi_13_0932,1
3,2,2,2,0.551,0.618,nofeedback,185,r,r,8,25,F,GabornFF_PAS,2018_kwi_13_0932,1
3,2,2,1,0.867,0.35,nofeedback,186,r,r,7,25,F,GabornFF_PAS,2018_kwi_13_0932,1
3,1,1,2,0.534,0.3,nofeedback,187,e,e,8,25,F,GabornFF_PAS,2018_kwi_13_0932,1
3,2,2,2,0.534,0.534,nofeedback,188,r,r,8,25,F,GabornFF_PAS,2018_kwi_13_0932,1
3,1,1,2,0.517,0.334,nofeedback,189,e,e,8,25,F,GabornFF_PAS,2018_kwi_13_0932,1
3,2,2,1,0.967,0.35,nofeedback,190,r,r,7,25,F,GabornFF_PAS,2018_kwi_13_0932,1
3,1,1,2,0.884,0.884,nofeedback,191,e,e,8,25,F,GabornFF_PAS,2018_kwi_13_0932,1
3,2,2,1,0.867,0.367,nofeedback,192,r,r,7,25,F,GabornFF_PAS,2018_kwi_13_0932,1
3,1,1,3,0.617,0.417,nofeedback,193,e,e,9,25,F,GabornFF_PAS,2018_kwi_13_0932,1
3,2,2,3,1,0.734,nofeedback,194,r,r,9,25,F,GabornFF_PAS,2018_kwi_13_0932,1
3,1,1,3,0.567,0.467,nofeedback,195,e,e,9,25,F,GabornFF_PAS,2018_kwi_13_0932,1
3,1,1,3,0.617,0.534,nofeedback,196,e,e,9,25,F,GabornFF_PAS,2018_kwi_13_0932,1
3,2,2,1,1.017,0.534,nofeedback,197,r,r,7,25,F,GabornFF_PAS,2018_kwi_13_0932,1
3,2,1,2,0.9,1.669,nofeedback,198,e,r,8,25,F,GabornFF_PAS,2018_kwi_13_0932,1
3,1,1,3,0.934,0.5,nofeedback,199,e,e,9,25,F,GabornFF_PAS,2018_kwi_13_0932,1
3,2,1,1,0.885,1.451,feedback,0,e,r,7,25,F,GabornFF_PAS,2018_kwi_13_0932,2
3,1,2,1,1.784,1.434,feedback,1,r,e,7,25,F,GabornFF_PAS,2018_kwi_13_0932,2
3,2,1,1,1.35,0.784,feedback,2,e,r,7,25,F,GabornFF_PAS,2018_kwi_13_0932,2
3,1,1,2,0.55,0.55,feedback,3,e,e,8,25,F,GabornFF_PAS,2018_kwi_13_0932,2
3,1,1,3,0.667,0.584,feedback,4,e,e,9,25,F,GabornFF_PAS,2018_kwi_13_0932,2
3,2,2,2,1.851,0.768,feedback,5,r,r,8,25,F,GabornFF_PAS,2018_kwi_13_0932,2
3,1,1,3,0.65,0.6,feedback,6,e,e,9,25,F,GabornFF_PAS,2018_kwi_13_0932,2
3,2,2,2,0.8,0.467,feedback,7,r,r,8,25,F,GabornFF_PAS,2018_kwi_13_0932,2
3,1,1,2,0.717,0.684,feedback,8,e,e,8,25,F,GabornFF_PAS,2018_kwi_13_0932,2
3,2,2,2,0.767,0.651,feedback,9,r,r,8,25,F,GabornFF_PAS,2018_kwi_13_0932,2
3,2,2,2,0.767,0.417,feedback,10,r,r,8,25,F,GabornFF_PAS,2018_kwi_13_0932,2
3,1,1,2,0.684,0.384,feedback,11,e,e,8,25,F,GabornFF_PAS,2018_kwi_13_0932,2
3,1,1,2,1.184,0.467,feedback,12,e,e,8,25,F,GabornFF_PAS,2018_kwi_13_0932,2
3,2,2,2,0.884,0.417,feedback,13,r,r,8,25,F,GabornFF_PAS,2018_kwi_13_0932,2
3,1,1,2,0.684,0.417,feedback,14,e,e,8,25,F,GabornFF_PAS,2018_kwi_13_0932,2
3,2,2,1,1.151,0.384,feedback,15,r,r,7,25,F,GabornFF_PAS,2018_kwi_13_0932,2
3,2,2,1,0.734,0.334,feedback,16,r,r,7,25,F,GabornFF_PAS,2018_kwi_13_0932,2
3,1,1,1,1,0.534,feedback,17,e,e,7,25,F,GabornFF_PAS,2018_kwi_13_0932,2
3,1,1,1,1.235,0.267,feedback,18,e,e,7,25,F,GabornFF_PAS,2018_kwi_13_0932,2
3,2,1,1,1.001,0.334,feedback,19,e,r,7,25,F,GabornFF_PAS,2018_kwi_13_0932,2
3,2,2,1,1.05,0.3,feedback,20,r,r,7,25,F,GabornFF_PAS,2018_kwi_13_0932,2
3,1,1,2,0.567,0.451,feedback,21,e,e,8,25,F,GabornFF_PAS,2018_kwi_13_0932,2
3,1,2,1,0.884,0.484,feedback,22,r,e,7,25,F,GabornFF_PAS,2018_kwi_13_0932,2
3,2,2,1,0.667,0.367,feedback,23,r,r,7,25,F,GabornFF_PAS,2018_kwi_13_0932,2
3,2,2,2,1.951,0.467,feedback,24,r,r,8,25,F,GabornFF_PAS,2018_kwi_13_0932,2
3,1,1,2,0.8,0.384,feedback,25,e,e,8,25,F,GabornFF_PAS,2018_kwi_13_0932,2
3,1,1,2,0.767,0.334,feedback,26,e,e,8,25,F,GabornFF_PAS,2018_kwi_13_0932,2
3,2,2,2,1.134,0.567,feedback,27,r,r,8,25,F,GabornFF_PAS,2018_kwi_13_0932,2
3,1,1,2,0.65,0.384,feedback,28,e,e,8,25,F,GabornFF_PAS,2018_kwi_13_0932,2
3,2,2,2,1.068,0.334,feedback,29,r,r,8,25,F,GabornFF_PAS,2018_kwi_13_0932,2
3,1,1,2,0.5,0.369,feedback,30,e,e,8,25,F,GabornFF_PAS,2018_kwi_13_0932,2
3,2,2,2,0.534,0.301,feedback,31,r,r,8,25,F,GabornFF_PAS,2018_kwi_13_0932,2
3,2,2,2,0.717,0.318,feedback,32,r,r,8,25,F,GabornFF_PAS,2018_kwi_13_0932,2
3,1,1,2,0.684,0.335,feedback,33,e,e,8,25,F,GabornFF_PAS,2018_kwi_13_0932,2
3,1,1,2,0.534,0.3,feedback,34,e,e,8,25,F,GabornFF_PAS,2018_kwi_13_0932,2
3,2,2,2,0.601,0.25,feedback,35,r,r,8,25,F,GabornFF_PAS,2018_kwi_13_0932,2
3,1,1,2,0.451,0.334,feedback,36,e,e,8,25,F,GabornFF_PAS,2018_kwi_13_0932,2
3,2,2,2,0.604,1.518,feedback,37,r,r,8,25,F,GabornFF_PAS,2018_kwi_13_0932,2
3,1,2,2,0.837,0.268,feedback,38,r,e,8,25,F,GabornFF_PAS,2018_kwi_13_0932,2
3,2,2,2,0.65,0.217,feedback,39,r,r,8,25,F,GabornFF_PAS,2018_kwi_13_0932,2
3,1,1,3,0.676,0.384,feedback,40,e,e,9,25,F,GabornFF_PAS,2018_kwi_13_0932,2
3,2,2,2,0.817,0.834,feedback,41,r,r,8,25,F,GabornFF_PAS,2018_kwi_13_0932,2
3,1,1,2,0.668,0.334,feedback,42,e,e,8,25,F,GabornFF_PAS,2018_kwi_13_0932,2
3,2,2,2,0.501,0.384,feedback,43,r,r,8,25,F,GabornFF_PAS,2018_kwi_13_0932,2
3,2,2,2,0.834,0.301,feedback,44,r,r,8,25,F,GabornFF_PAS,2018_kwi_13_0932,2
3,1,2,2,0.951,0.301,feedback,45,r,e,8,25,F,GabornFF_PAS,2018_kwi_13_0932,2
3,1,2,1,0.887,0.735,feedback,46,r,e,7,25,F,GabornFF_PAS,2018_kwi_13_0932,2
3,2,2,2,0.602,0.468,feedback,47,r,r,8,25,F,GabornFF_PAS,2018_kwi_13_0932,2
3,2,2,1,0.852,0.467,feedback,48,r,r,7,25,F,GabornFF_PAS,2018_kwi_13_0932,2
3,1,2,1,0.803,0.334,feedback,49,r,e,7,25,F,GabornFF_PAS,2018_kwi_13_0932,2
3,1,1,1,1.169,0.3,feedback,50,e,e,7,25,F,GabornFF_PAS,2018_kwi_13_0932,2
3,2,1,1,0.967,0.652,feedback,51,e,r,7,25,F,GabornFF_PAS,2018_kwi_13_0932,2
3,2,2,1,0.619,0.809,feedback,52,r,r,7,25,F,GabornFF_PAS,2018_kwi_13_0932,2
3,1,1,3,1.202,0.61,feedback,53,e,e,9,25,F,GabornFF_PAS,2018_kwi_13_0932,2
3,1,1,3,0.601,0.534,feedback,54,e,e,9,25,F,GabornFF_PAS,2018_kwi_13_0932,2
3,2,2,3,0.6,0.817,feedback,55,r,r,9,25,F,GabornFF_PAS,2018_kwi_13_0932,2
3,2,2,3,1.067,0.7,feedback,56,r,r,9,25,F,GabornFF_PAS,2018_kwi_13_0932,2
3,1,1,3,0.635,0.738,feedback,57,e,e,9,25,F,GabornFF_PAS,2018_kwi_13_0932,2
3,1,1,3,0.751,0.334,feedback,58,e,e,9,25,F,GabornFF_PAS,2018_kwi_13_0932,2
3,2,2,3,0.601,0.418,feedback,59,r,r,9,25,F,GabornFF_PAS,2018_kwi_13_0932,2
3,2,2,3,0.65,0.3,feedback,60,r,r,9,25,F,GabornFF_PAS,2018_kwi_13_0932,2
3,1,2,2,1.403,0.654,feedback,61,r,e,8,25,F,GabornFF_PAS,2018_kwi_13_0932,2
3,1,1,2,0.867,0.485,feedback,62,e,e,8,25,F,GabornFF_PAS,2018_kwi_13_0932,2
3,2,1,1,1.053,0.334,feedback,63,e,r,7,25,F,GabornFF_PAS,2018_kwi_13_0932,2
3,2,2,1,0.802,0.653,feedback,64,r,r,7,25,F,GabornFF_PAS,2018_kwi_13_0932,2
3,1,1,2,0.567,0.384,feedback,65,e,e,8,25,F,GabornFF_PAS,2018_kwi_13_0932,2
3,2,2,2,0.636,0.453,feedback,66,r,r,8,25,F,GabornFF_PAS,2018_kwi_13_0932,2
3,1,1,2,0.801,0.451,feedback,67,e,e,8,25,F,GabornFF_PAS,2018_kwi_13_0932,2
3,2,2,2,0.65,0.25,feedback,68,r,r,8,25,F,GabornFF_PAS,2018_kwi_13_0932,2
3,1,1,2,0.734,0.335,feedback,69,e,e,8,25,F,GabornFF_PAS,2018_kwi_13_0932,2
3,2,2,1,1.402,0.618,feedback,70,r,r,7,25,F,GabornFF_PAS,2018_kwi_13_0932,2
3,1,1,3,0.567,0.568,feedback,71,e,e,9,25,F,GabornFF_PAS,2018_kwi_13_0932,2
3,2,2,2,0.836,0.502,feedback,72,r,r,8,25,F,GabornFF_PAS,2018_kwi_13_0932,2
3,1,1,2,0.735,0.334,feedback,73,e,e,8,25,F,GabornFF_PAS,2018_kwi_13_0932,2
3,2,1,1,1.237,1.201,feedback,74,e,r,7,25,F,GabornFF_PAS,2018_kwi_13_0932,2
3,1,1,2,0.751,0.735,feedback,75,e,e,8,25,F,GabornFF_PAS,2018_kwi_13_0932,2
3,2,2,1,0.868,0.735,feedback,76,r,r,7,25,F,GabornFF_PAS,2018_kwi_13_0932,2
3,1,1,2,0.635,0.468,feedback,77,e,e,8,25,F,GabornFF_PAS,2018_kwi_13_0932,2
3,2,2,2,0.986,0.301,feedback,78,r,r,8,25,F,GabornFF_PAS,2018_kwi_13_0932,2
3,1,1,2,0.551,0.251,feedback,79,e,e,8,25,F,GabornFF_PAS,2018_kwi_13_0932,2
3,1,1,3,0.634,0.853,feedback,80,e,e,9,25,F,GabornFF_PAS,2018_kwi_13_0932,2
3,2,2,1,0.701,0.385,feedback,81,r,r,7,25,F,GabornFF_PAS,2018_kwi_13_0932,2
3,1,1,2,0.552,0.351,feedback,82,e,e,8,25,F,GabornFF_PAS,2018_kwi_13_0932,2
3,2,2,2,1.034,0.487,feedback,83,r,r,8,25,F,GabornFF_PAS,2018_kwi_13_0932,2
3,1,1,1,1.085,0.3,feedback,84,e,e,7,25,F,GabornFF_PAS,2018_kwi_13_0932,2
3,2,2,2,0.587,0.335,feedback,85,r,r,8,25,F,GabornFF_PAS,2018_kwi_13_0932,2
3,2,2,2,0.719,0.417,feedback,86,r,r,8,25,F,GabornFF_PAS,2018_kwi_13_0932,2
3,1,1,2,0.717,0.736,feedback,87,e,e,8,25,F,GabornFF_PAS,2018_kwi_13_0932,2
3,2,2,1,0.688,0.367,feedback,88,r,r,7,25,F,GabornFF_PAS,2018_kwi_13_0932,2
3,1,1,3,1.202,1.637,feedback,89,e,e,9,25,F,GabornFF_PAS,2018_kwi_13_0932,2
3,2,2,1,0.945,0.451,feedback,90,r,r,7,25,F,GabornFF_PAS,2018_kwi_13_0932,2
3,1,1,3,0.603,0.417,feedback,91,e,e,9,25,F,GabornFF_PAS,2018_kwi_13_0932,2
3,1,1,1,1.584,0.417,feedback,92,e,e,7,25,F,GabornFF_PAS,2018_kwi_13_0932,2
3,2,1,1,0.769,0.568,feedback,93,e,r,7,25,F,GabornFF_PAS,2018_kwi_13_0932,2
3,1,2,1,1.151,0.25,feedback,94,r,e,7,25,F,GabornFF_PAS,2018_kwi_13_0932,2
3,2,1,1,1.401,0.217,feedback,95,e,r,7,25,F,GabornFF_PAS,2018_kwi_13_0932,2
3,1,2,1,1.051,0.184,feedback,96,r,e,7,25,F,GabornFF_PAS,2018_kwi_13_0932,2
3,2,1,1,0.767,0.184,feedback,97,e,r,7,25,F,GabornFF_PAS,2018_kwi_13_0932,2
3,2,2,4,0.95,0.467,feedback,98,r,r,0,25,F,GabornFF_PAS,2018_kwi_13_0932,2
3,1,1,1,1.784,0.45,feedback,99,e,e,7,25,F,GabornFF_PAS,2018_kwi_13_0932,2
3,1,1,1,0.853,0.619,feedback,100,e,e,7,25,F,GabornFF_PAS,2018_kwi_13_0932,2
3,2,2,1,0.602,0.267,feedback,101,r,r,7,25,F,GabornFF_PAS,2018_kwi_13_0932,2
3,2,2,1,0.718,0.369,feedback,102,r,r,7,25,F,GabornFF_PAS,2018_kwi_13_0932,2
3,1,1,2,0.584,0.385,feedback,103,e,e,8,25,F,GabornFF_PAS,2018_kwi_13_0932,2
3,2,2,1,1.151,0.334,feedback,104,r,r,7,25,F,GabornFF_PAS,2018_kwi_13_0932,2
3,1,1,2,0.634,0.502,feedback,105,e,e,8,25,F,GabornFF_PAS,2018_kwi_13_0932,2
3,2,2,2,0.854,0.368,feedback,106,r,r,8,25,F,GabornFF_PAS,2018_kwi_13_0932,2
3,1,1,3,0.637,0.535,feedback,107,e,e,9,25,F,GabornFF_PAS,2018_kwi_13_0932,2
3,2,2,2,0.767,0.451,feedback,108,r,r,8,25,F,GabornFF_PAS,2018_kwi_13_0932,2
3,1,1,2,0.684,0.334,feedback,109,e,e,8,25,F,GabornFF_PAS,2018_kwi_13_0932,2
3,2,2,2,0.751,0.385,feedback,110,r,r,8,25,F,GabornFF_PAS,2018_kwi_13_0932,2
3,1,1,2,0.567,0.25,feedback,111,e,e,8,25,F,GabornFF_PAS,2018_kwi_13_0932,2
3,2,2,2,0.567,0.535,feedback,112,r,r,8,25,F,GabornFF_PAS,2018_kwi_13_0932,2
3,1,1,3,1.317,1.836,feedback,113,e,e,9,25,F,GabornFF_PAS,2018_kwi_13_0932,2
3,2,2,1,0.767,0.284,feedback,114,r,r,7,25,F,GabornFF_PAS,2018_kwi_13_0932,2
3,1,1,2,0.467,0.367,feedback,115,e,e,8,25,F,GabornFF_PAS,2018_kwi_13_0932,2
3,2,2,2,0.684,0.268,feedback,116,r,r,8,25,F,GabornFF_PAS,2018_kwi_13_0932,2
3,1,1,1,0.885,0.417,feedback,117,e,e,7,25,F,GabornFF_PAS,2018_kwi_13_0932,2
3,1,1,3,0.667,0.3,feedback,118,e,e,9,25,F,GabornFF_PAS,2018_kwi_13_0932,2
3,2,2,3,0.684,0.384,feedback,119,r,r,9,25,F,GabornFF_PAS,2018_kwi_13_0932,2
3,1,1,3,0.634,0.384,feedback,120,e,e,9,25,F,GabornFF_PAS,2018_kwi_13_0932,2
3,2,2,3,0.87,0.384,feedback,121,r,r,9,25,F,GabornFF_PAS,2018_kwi_13_0932,2
3,1,1,3,0.55,0.301,feedback,122,e,e,9,25,F,GabornFF_PAS,2018_kwi_13_0932,2
3,2,2,3,0.534,0.351,feedback,123,r,r,9,25,F,GabornFF_PAS,2018_kwi_13_0932,2
3,2,2,3,0.6,0.334,feedback,124,r,r,9,25,F,GabornFF_PAS,2018_kwi_13_0932,2
3,1,1,1,0.85,0.33,feedback,125,e,e,7,25,F,GabornFF_PAS,2018_kwi_13_0932,2
3,1,1,2,1.134,0.301,feedback,126,e,e,8,25,F,GabornFF_PAS,2018_kwi_13_0932,2
3,2,2,2,0.684,0.267,feedback,127,r,r,8,25,F,GabornFF_PAS,2018_kwi_13_0932,2
3,2,2,2,0.636,0.3,feedback,128,r,r,8,25,F,GabornFF_PAS,2018_kwi_13_0932,2
3,1,2,2,0.817,0.3,feedback,129,r,e,8,25,F,GabornFF_PAS,2018_kwi_13_0932,2
3,1,1,1,1.033,0.567,feedback,130,e,e,7,25,F,GabornFF_PAS,2018_kwi_13_0932,2
3,2,2,2,0.718,0.534,feedback,131,r,r,8,25,F,GabornFF_PAS,2018_kwi_13_0932,2
3,1,2,2,0.917,0.45,feedback,132,r,e,8,25,F,GabornFF_PAS,2018_kwi_13_0932,2
3,2,2,2,0.883,0.3,feedback,133,r,r,8,25,F,GabornFF_PAS,2018_kwi_13_0932,2
3,1,1,1,1.084,0.45,feedback,134,e,e,7,25,F,GabornFF_PAS,2018_kwi_13_0932,2
3,2,2,1,0.884,0.334,feedback,135,r,r,7,25,F,GabornFF_PAS,2018_kwi_13_0932,2
3,2,2,1,0.717,0.3,feedback,136,r,r,7,25,F,GabornFF_PAS,2018_kwi_13_0932,2
3,1,1,1,0.65,0.534,feedback,137,e,e,7,25,F,GabornFF_PAS,2018_kwi_13_0932,2
3,1,1,1,0.85,0.301,feedback,138,e,e,7,25,F,GabornFF_PAS,2018_kwi_13_0932,2
3,2,2,2,0.651,0.417,feedback,139,r,r,8,25,F,GabornFF_PAS,2018_kwi_13_0932,2
3,1,1,1,0.952,0.334,feedback,140,e,e,7,25,F,GabornFF_PAS,2018_kwi_13_0932,2
3,2,2,2,0.534,0.3,feedback,141,r,r,8,25,F,GabornFF_PAS,2018_kwi_13_0932,2
3,1,1,1,0.919,0.301,feedback,142,e,e,7,25,F,GabornFF_PAS,2018_kwi_13_0932,2
3,2,2,1,0.6,0.3,feedback,143,r,r,7,25,F,GabornFF_PAS,2018_kwi_13_0932,2
3,2,1,1,0.767,0.267,feedback,144,e,r,7,25,F,GabornFF_PAS,2018_kwi_13_0932,2
3,1,2,1,0.684,0.351,feedback,145,r,e,7,25,F,GabornFF_PAS,2018_kwi_13_0932,2
3,1,2,1,0.6,0.3,feedback,146,r,e,7,25,F,GabornFF_PAS,2018_kwi_13_0932,2
3,2,2,1,0.867,0.301,feedback,147,r,r,7,25,F,GabornFF_PAS,2018_kwi_13_0932,2
3,1,2,1,1.117,0.3,feedback,148,r,e,7,25,F,GabornFF_PAS,2018_kwi_13_0932,2
3,2,2,1,0.652,0.234,feedback,149,r,r,7,25,F,GabornFF_PAS,2018_kwi_13_0932,2
3,2,1,1,0.95,0.3,feedback,150,e,r,7,25,F,GabornFF_PAS,2018_kwi_13_0932,2
3,1,1,1,0.6,0.334,feedback,151,e,e,7,25,F,GabornFF_PAS,2018_kwi_13_0932,2
3,2,2,1,0.717,0.567,feedback,152,r,r,7,25,F,GabornFF_PAS,2018_kwi_13_0932,2
3,1,2,1,1.084,0.184,feedback,153,r,e,7,25,F,GabornFF_PAS,2018_kwi_13_0932,2
3,2,2,2,0.684,0.217,feedback,154,r,r,8,25,F,GabornFF_PAS,2018_kwi_13_0932,2
3,1,1,2,0.684,0.334,feedback,155,e,e,8,25,F,GabornFF_PAS,2018_kwi_13_0932,2
3,1,1,2,0.651,0.367,feedback,156,e,e,8,25,F,GabornFF_PAS,2018_kwi_13_0932,2
3,2,2,1,1.05,0.45,feedback,157,r,r,7,25,F,GabornFF_PAS,2018_kwi_13_0932,2
3,2,2,2,0.801,0.35,feedback,158,r,r,8,25,F,GabornFF_PAS,2018_kwi_13_0932,2
3,1,1,1,0.801,0.334,feedback,159,e,e,7,25,F,GabornFF_PAS,2018_kwi_13_0932,2
3,1,1,2,0.601,0.384,feedback,160,e,e,8,25,F,GabornFF_PAS,2018_kwi_13_0932,2
3,2,2,2,0.6,0.384,feedback,161,r,r,8,25,F,GabornFF_PAS,2018_kwi_13_0932,2
3,1,2,1,0.75,0.35,feedback,162,r,e,7,25,F,GabornFF_PAS,2018_kwi_13_0932,2
3,2,2,1,0.634,0.684,feedback,163,r,r,7,25,F,GabornFF_PAS,2018_kwi_13_0932,2
3,2,2,3,1.052,0.534,feedback,164,r,r,9,25,F,GabornFF_PAS,2018_kwi_13_0932,2
3,1,2,2,0.967,0.45,feedback,165,r,e,8,25,F,GabornFF_PAS,2018_kwi_13_0932,2
3,2,2,2,0.567,0.417,feedback,166,r,r,8,25,F,GabornFF_PAS,2018_kwi_13_0932,2
3,1,1,2,0.56,0.351,feedback,167,e,e,8,25,F,GabornFF_PAS,2018_kwi_13_0932,2
3,2,2,2,0.534,0.25,feedback,168,r,r,8,25,F,GabornFF_PAS,2018_kwi_13_0932,2
3,1,1,2,0.534,0.27,feedback,169,e,e,8,25,F,GabornFF_PAS,2018_kwi_13_0932,2
3,2,2,2,0.684,0.3,feedback,170,r,r,8,25,F,GabornFF_PAS,2018_kwi_13_0932,2
3,1,1,2,0.768,0.25,feedback,171,e,e,8,25,F,GabornFF_PAS,2018_kwi_13_0932,2
3,1,1,3,0.435,0.434,feedback,172,e,e,9,25,F,GabornFF_PAS,2018_kwi_13_0932,2
3,2,2,3,0.684,0.45,feedback,173,r,r,9,25,F,GabornFF_PAS,2018_kwi_13_0932,2
3,2,2,3,0.85,0.584,feedback,174,r,r,9,25,F,GabornFF_PAS,2018_kwi_13_0932,2
3,1,1,3,0.517,0.584,feedback,175,e,e,9,25,F,GabornFF_PAS,2018_kwi_13_0932,2
3,1,1,3,0.717,0.767,feedback,176,e,e,9,25,F,GabornFF_PAS,2018_kwi_13_0932,2
3,2,2,3,0.7,0.3,feedback,177,r,r,9,25,F,GabornFF_PAS,2018_kwi_13_0932,2
3,1,1,3,0.534,0.417,feedback,178,e,e,9,25,F,GabornFF_PAS,2018_kwi_13_0932,2
3,2,2,3,0.601,0.317,feedback,179,r,r,9,25,F,GabornFF_PAS,2018_kwi_13_0932,2
3,2,2,3,0.65,0.284,feedback,180,r,r,9,25,F,GabornFF_PAS,2018_kwi_13_0932,2
3,1,1,3,0.567,0.234,feedback,181,e,e,9,25,F,GabornFF_PAS,2018_kwi_13_0932,2
3,2,2,3,0.534,0.3,feedback,182,r,r,9,25,F,GabornFF_PAS,2018_kwi_13_0932,2
3,1,1,3,0.634,0.267,feedback,183,e,e,9,25,F,GabornFF_PAS,2018_kwi_13_0932,2
3,2,2,3,0.517,0.267,feedback,184,r,r,9,25,F,GabornFF_PAS,2018_kwi_13_0932,2
3,1,1,3,0.45,0.25,feedback,185,e,e,9,25,F,GabornFF_PAS,2018_kwi_13_0932,2
3,1,1,3,0.451,0.267,feedback,186,e,e,9,25,F,GabornFF_PAS,2018_kwi_13_0932,2
3,2,2,3,0.45,0.267,feedback,187,r,r,9,25,F,GabornFF_PAS,2018_kwi_13_0932,2
3,1,1,3,0.484,0.267,feedback,188,e,e,9,25,F,GabornFF_PAS,2018_kwi_13_0932,2
3,2,2,3,0.65,0.334,feedback,189,r,r,9,25,F,GabornFF_PAS,2018_kwi_13_0932,2
3,2,2,3,0.534,0.217,feedback,190,r,r,9,25,F,GabornFF_PAS,2018_kwi_13_0932,2
3,1,1,3,0.634,0.267,feedback,191,e,e,9,25,F,GabornFF_PAS,2018_kwi_13_0932,2
3,2,2,3,0.45,0.251,feedback,192,r,r,9,25,F,GabornFF_PAS,2018_kwi_13_0932,2
3,1,1,4,0.451,0.501,feedback,193,e,e,0,25,F,GabornFF_PAS,2018_kwi_13_0932,2
3,1,1,4,0.634,0.351,feedback,194,e,e,0,25,F,GabornFF_PAS,2018_kwi_13_0932,2
3,2,2,3,0.834,0.334,feedback,195,r,r,9,25,F,GabornFF_PAS,2018_kwi_13_0932,2
3,2,2,3,0.735,0.418,feedback,196,r,r,9,25,F,GabornFF_PAS,2018_kwi_13_0932,2
3,1,2,1,1.667,0.367,feedback,197,r,e,7,25,F,GabornFF_PAS,2018_kwi_13_0932,2
3,1,1,4,0.75,0.667,feedback,198,e,e,0,25,F,GabornFF_PAS,2018_kwi_13_0932,2
3,2,2,3,0.917,0.368,feedback,199,r,r,9,25,F,GabornFF_PAS,2018_kwi_13_0932,2
4,2,1,2,0.384,0.734,nofeedback,0,e,r,8,32,M,GabornFF_PAS,2018_kwi_16_0937,1
4,1,2,2,0.384,0.301,nofeedback,1,r,e,8,32,M,GabornFF_PAS,2018_kwi_16_0937,1
4,1,1,3,0.35,0.336,nofeedback,2,e,e,9,32,M,GabornFF_PAS,2018_kwi_16_0937,1
4,2,2,2,0.535,0.85,nofeedback,3,r,r,8,32,M,GabornFF_PAS,2018_kwi_16_0937,1
4,2,2,2,0.034,0.417,nofeedback,4,r,r,8,32,M,GabornFF_PAS,2018_kwi_16_0937,1
4,1,2,3,0.35,0.367,nofeedback,5,r,e,9,32,M,GabornFF_PAS,2018_kwi_16_0937,1
4,1,1,3,0.4,0.384,nofeedback,6,e,e,9,32,M,GabornFF_PAS,2018_kwi_16_0937,1
4,2,1,4,0.301,0.234,nofeedback,7,e,r,0,32,M,GabornFF_PAS,2018_kwi_16_0937,1
4,1,1,1,0.35,0.3,nofeedback,8,e,e,7,32,M,GabornFF_PAS,2018_kwi_16_0937,1
4,2,1,2,0.284,0.35,nofeedback,9,e,r,8,32,M,GabornFF_PAS,2018_kwi_16_0937,1
4,2,2,3,0.351,0.339,nofeedback,10,r,r,9,32,M,GabornFF_PAS,2018_kwi_16_0937,1
4,1,1,3,0.384,0.267,nofeedback,11,e,e,9,32,M,GabornFF_PAS,2018_kwi_16_0937,1
4,2,2,2,0.267,0.234,nofeedback,12,r,r,8,32,M,GabornFF_PAS,2018_kwi_16_0937,1
4,1,1,1,0.468,1.317,nofeedback,13,e,e,7,32,M,GabornFF_PAS,2018_kwi_16_0937,1
4,1,2,1,0.35,0.735,nofeedback,14,r,e,7,32,M,GabornFF_PAS,2018_kwi_16_0937,1
4,2,2,2,0.335,1.084,nofeedback,15,r,r,8,32,M,GabornFF_PAS,2018_kwi_16_0937,1
4,1,1,1,0.401,0.367,nofeedback,16,e,e,7,32,M,GabornFF_PAS,2018_kwi_16_0937,1
4,2,2,2,0.484,0.301,nofeedback,17,r,r,8,32,M,GabornFF_PAS,2018_kwi_16_0937,1
4,2,2,1,0.384,0.3,nofeedback,18,r,r,7,32,M,GabornFF_PAS,2018_kwi_16_0937,1
4,1,1,2,0.351,0.283,nofeedback,19,e,e,8,32,M,GabornFF_PAS,2018_kwi_16_0937,1
4,2,1,1,0.384,0.417,nofeedback,20,e,r,7,32,M,GabornFF_PAS,2018_kwi_16_0937,1
4,1,2,1,0.551,0.567,nofeedback,21,r,e,7,32,M,GabornFF_PAS,2018_kwi_16_0937,1
4,2,2,2,0.384,0.301,nofeedback,22,r,r,8,32,M,GabornFF_PAS,2018_kwi_16_0937,1
4,1,1,3,0.401,0.3,nofeedback,23,e,e,9,32,M,GabornFF_PAS,2018_kwi_16_0937,1
4,1,2,3,0.3,0.301,nofeedback,24,r,e,9,32,M,GabornFF_PAS,2018_kwi_16_0937,1
4,2,1,3,0.25,0.334,nofeedback,25,e,r,9,32,M,GabornFF_PAS,2018_kwi_16_0937,1
4,1,1,2,0.234,0.5,nofeedback,26,e,e,8,32,M,GabornFF_PAS,2018_kwi_16_0937,1
4,2,2,1,0.267,0.501,nofeedback,27,r,r,7,32,M,GabornFF_PAS,2018_kwi_16_0937,1
4,1,2,1,0.317,0.384,nofeedback,28,r,e,7,32,M,GabornFF_PAS,2018_kwi_16_0937,1
4,2,2,1,0.3,0.35,nofeedback,29,r,r,7,32,M,GabornFF_PAS,2018_kwi_16_0937,1
4,1,2,1,0.267,0.303,nofeedback,30,r,e,7,32,M,GabornFF_PAS,2018_kwi_16_0937,1
4,2,2,2,0.217,0.301,nofeedback,31,r,r,8,32,M,GabornFF_PAS,2018_kwi_16_0937,1
4,2,2,1,NaN,0.45,nofeedback,32,r,r,7,32,M,GabornFF_PAS,2018_kwi_16_0937,1
4,1,2,2,0.134,0.334,nofeedback,33,r,e,8,32,M,GabornFF_PAS,2018_kwi_16_0937,1
4,2,2,1,0.202,0.384,nofeedback,34,r,r,7,32,M,GabornFF_PAS,2018_kwi_16_0937,1
4,1,2,2,0.217,0.367,nofeedback,35,r,e,8,32,M,GabornFF_PAS,2018_kwi_16_0937,1
4,2,2,1,0.017,0.45,nofeedback,36,r,r,7,32,M,GabornFF_PAS,2018_kwi_16_0937,1
4,1,2,2,0.317,0.301,nofeedback,37,r,e,8,32,M,GabornFF_PAS,2018_kwi_16_0937,1
4,1,2,1,0.267,0.3,nofeedback,38,r,e,7,32,M,GabornFF_PAS,2018_kwi_16_0937,1
4,2,2,2,0.367,0.334,nofeedback,39,r,r,8,32,M,GabornFF_PAS,2018_kwi_16_0937,1
4,2,2,1,0.3,0.301,nofeedback,40,r,r,7,32,M,GabornFF_PAS,2018_kwi_16_0937,1
4,1,2,1,0.4,0.368,nofeedback,41,r,e,7,32,M,GabornFF_PAS,2018_kwi_16_0937,1
4,2,1,2,0.15,0.317,nofeedback,42,e,r,8,32,M,GabornFF_PAS,2018_kwi_16_0937,1
4,1,1,2,0.234,0.3,nofeedback,43,e,e,8,32,M,GabornFF_PAS,2018_kwi_16_0937,1
4,2,1,3,0.267,0.301,nofeedback,44,e,r,9,32,M,GabornFF_PAS,2018_kwi_16_0937,1
4,1,1,2,0.267,0.301,nofeedback,45,e,e,8,32,M,GabornFF_PAS,2018_kwi_16_0937,1
4,2,1,1,0.267,0.267,nofeedback,46,e,r,7,32,M,GabornFF_PAS,2018_kwi_16_0937,1
4,1,1,1,0.384,0.3,nofeedback,47,e,e,7,32,M,GabornFF_PAS,2018_kwi_16_0937,1
4,1,1,1,0.384,0.385,nofeedback,48,e,e,7,32,M,GabornFF_PAS,2018_kwi_16_0937,1
4,2,1,2,0.536,0.384,nofeedback,49,e,r,8,32,M,GabornFF_PAS,2018_kwi_16_0937,1
4,2,1,2,0.467,0.734,nofeedback,50,e,r,8,32,M,GabornFF_PAS,2018_kwi_16_0937,1
4,1,2,2,0.284,0.351,nofeedback,51,r,e,8,32,M,GabornFF_PAS,2018_kwi_16_0937,1
4,2,2,2,0.334,0.351,nofeedback,52,r,r,8,32,M,GabornFF_PAS,2018_kwi_16_0937,1
4,1,1,3,0.301,0.35,nofeedback,53,e,e,9,32,M,GabornFF_PAS,2018_kwi_16_0937,1
4,2,1,1,0.467,0.25,nofeedback,54,e,r,7,32,M,GabornFF_PAS,2018_kwi_16_0937,1
4,1,2,1,0.268,0.184,nofeedback,55,r,e,7,32,M,GabornFF_PAS,2018_kwi_16_0937,1
4,1,1,1,0.303,0.268,nofeedback,56,e,e,7,32,M,GabornFF_PAS,2018_kwi_16_0937,1
4,2,2,1,0.267,0.3,nofeedback,57,r,r,7,32,M,GabornFF_PAS,2018_kwi_16_0937,1
4,1,2,1,0.317,0.267,nofeedback,58,r,e,7,32,M,GabornFF_PAS,2018_kwi_16_0937,1
4,2,2,1,0.351,0.35,nofeedback,59,r,r,7,32,M,GabornFF_PAS,2018_kwi_16_0937,1
4,2,2,1,0.301,0.3,nofeedback,60,r,r,7,32,M,GabornFF_PAS,2018_kwi_16_0937,1
4,1,2,1,0.2,0.3,nofeedback,61,r,e,7,32,M,GabornFF_PAS,2018_kwi_16_0937,1
4,2,2,1,1.253,0.35,nofeedback,62,r,r,7,32,M,GabornFF_PAS,2018_kwi_16_0937,1
4,1,2,2,0.4,0.234,nofeedback,63,r,e,8,32,M,GabornFF_PAS,2018_kwi_16_0937,1
4,2,2,1,0.351,0.884,nofeedback,64,r,r,7,32,M,GabornFF_PAS,2018_kwi_16_0937,1
4,1,2,2,0.3,0.35,nofeedback,65,r,e,8,32,M,GabornFF_PAS,2018_kwi_16_0937,1
4,2,1,1,0.417,0.3,nofeedback,66,e,r,7,32,M,GabornFF_PAS,2018_kwi_16_0937,1
4,1,1,1,0.084,0.334,nofeedback,67,e,e,7,32,M,GabornFF_PAS,2018_kwi_16_0937,1
4,2,1,1,0.401,0.334,nofeedback,68,e,r,7,32,M,GabornFF_PAS,2018_kwi_16_0937,1
4,1,1,1,0.25,0.417,nofeedback,69,e,e,7,32,M,GabornFF_PAS,2018_kwi_16_0937,1
4,1,1,1,0.434,0.317,nofeedback,70,e,e,7,32,M,GabornFF_PAS,2018_kwi_16_0937,1
4,2,2,2,0.067,0.334,nofeedback,71,r,r,8,32,M,GabornFF_PAS,2018_kwi_16_0937,1
4,1,2,1,0.3,0.35,nofeedback,72,r,e,7,32,M,GabornFF_PAS,2018_kwi_16_0937,1
4,2,2,2,0.35,0.35,nofeedback,73,r,r,8,32,M,GabornFF_PAS,2018_kwi_16_0937,1
4,2,2,1,0.534,0.384,nofeedback,74,r,r,7,32,M,GabornFF_PAS,2018_kwi_16_0937,1
4,1,2,2,0.317,0.334,nofeedback,75,r,e,8,32,M,GabornFF_PAS,2018_kwi_16_0937,1
4,1,2,3,0.884,0.367,nofeedback,76,r,e,9,32,M,GabornFF_PAS,2018_kwi_16_0937,1
4,2,2,2,0.434,0.317,nofeedback,77,r,r,8,32,M,GabornFF_PAS,2018_kwi_16_0937,1
4,1,1,1,0.534,0.417,nofeedback,78,e,e,7,32,M,GabornFF_PAS,2018_kwi_16_0937,1
4,2,1,1,0.434,0.25,nofeedback,79,e,r,7,32,M,GabornFF_PAS,2018_kwi_16_0937,1
4,2,1,2,0.4,0.25,nofeedback,80,e,r,8,32,M,GabornFF_PAS,2018_kwi_16_0937,1
4,1,1,1,0.317,0.35,nofeedback,81,e,e,7,32,M,GabornFF_PAS,2018_kwi_16_0937,1
4,2,1,1,0.1,0.267,nofeedback,82,e,r,7,32,M,GabornFF_PAS,2018_kwi_16_0937,1
4,1,1,1,0.267,2.464,nofeedback,83,e,e,7,32,M,GabornFF_PAS,2018_kwi_16_0937,1
4,2,2,2,0.55,0.567,nofeedback,84,r,r,8,32,M,GabornFF_PAS,2018_kwi_16_0937,1
4,1,2,1,0.35,0.417,nofeedback,85,r,e,7,32,M,GabornFF_PAS,2018_kwi_16_0937,1
4,1,2,2,0.467,0.684,nofeedback,86,r,e,8,32,M,GabornFF_PAS,2018_kwi_16_0937,1
4,2,2,1,0.434,0.334,nofeedback,87,r,r,7,32,M,GabornFF_PAS,2018_kwi_16_0937,1
4,2,1,2,0.517,0.451,nofeedback,88,e,r,8,32,M,GabornFF_PAS,2018_kwi_16_0937,1
4,1,1,2,0.184,0.3,nofeedback,89,e,e,8,32,M,GabornFF_PAS,2018_kwi_16_0937,1
4,1,1,2,0.284,0.25,nofeedback,90,e,e,8,32,M,GabornFF_PAS,2018_kwi_16_0937,1
4,2,1,2,0.35,0.267,nofeedback,91,e,r,8,32,M,GabornFF_PAS,2018_kwi_16_0937,1
4,2,1,2,0.317,0.301,nofeedback,92,e,r,8,32,M,GabornFF_PAS,2018_kwi_16_0937,1
4,1,1,3,0.15,0.25,nofeedback,93,e,e,9,32,M,GabornFF_PAS,2018_kwi_16_0937,1
4,1,1,2,0.284,0.35,nofeedback,94,e,e,8,32,M,GabornFF_PAS,2018_kwi_16_0937,1
4,2,1,3,0.217,0.3,nofeedback,95,e,r,9,32,M,GabornFF_PAS,2018_kwi_16_0937,1
4,1,1,2,0.2,0.252,nofeedback,96,e,e,8,32,M,GabornFF_PAS,2018_kwi_16_0937,1
4,2,1,3,0.334,0.284,nofeedback,97,e,r,9,32,M,GabornFF_PAS,2018_kwi_16_0937,1
4,2,1,3,0.284,0.25,nofeedback,98,e,r,9,32,M,GabornFF_PAS,2018_kwi_16_0937,1
4,1,1,2,0.201,0.25,nofeedback,99,e,e,8,32,M,GabornFF_PAS,2018_kwi_16_0937,1
4,1,1,2,0.25,0.534,nofeedback,100,e,e,8,32,M,GabornFF_PAS,2018_kwi_16_0937,1
4,2,2,2,0.034,0.334,nofeedback,101,r,r,8,32,M,GabornFF_PAS,2018_kwi_16_0937,1
4,2,2,2,0.15,0.317,nofeedback,102,r,r,8,32,M,GabornFF_PAS,2018_kwi_16_0937,1
4,1,2,2,0.25,0.217,nofeedback,103,r,e,8,32,M,GabornFF_PAS,2018_kwi_16_0937,1
4,2,2,2,0.134,0.25,nofeedback,104,r,r,8,32,M,GabornFF_PAS,2018_kwi_16_0937,1
4,1,1,1,0.434,0.267,nofeedback,105,e,e,7,32,M,GabornFF_PAS,2018_kwi_16_0937,1
4,1,1,3,0.15,0.217,nofeedback,106,e,e,9,32,M,GabornFF_PAS,2018_kwi_16_0937,1
4,2,2,1,0.317,0.183,nofeedback,107,r,r,7,32,M,GabornFF_PAS,2018_kwi_16_0937,1
4,2,2,1,0.267,0.217,nofeedback,108,r,r,7,32,M,GabornFF_PAS,2018_kwi_16_0937,1
4,1,2,1,0.134,0.184,nofeedback,109,r,e,7,32,M,GabornFF_PAS,2018_kwi_16_0937,1
4,1,2,1,0.067,0.384,nofeedback,110,r,e,7,32,M,GabornFF_PAS,2018_kwi_16_0937,1
4,2,2,1,0.534,0.267,nofeedback,111,r,r,7,32,M,GabornFF_PAS,2018_kwi_16_0937,1
4,2,2,1,0.05,0.3,nofeedback,112,r,r,7,32,M,GabornFF_PAS,2018_kwi_16_0937,1
4,1,2,1,0.117,0.25,nofeedback,113,r,e,7,32,M,GabornFF_PAS,2018_kwi_16_0937,1
4,1,1,1,0.234,0.267,nofeedback,114,e,e,7,32,M,GabornFF_PAS,2018_kwi_16_0937,1
4,2,2,1,0.386,0.217,nofeedback,115,r,r,7,32,M,GabornFF_PAS,2018_kwi_16_0937,1
