Subj_idx,Stimulus,Response,Confidence,RT_dec,Accuracy,nbrA,CA,IA,prmt,mt,Apmt,EMGtrial,force,EMG,Gender,age,RT_conf,Block,Trial
1,2,1,2,1.018066406,0,5,1,4,901.3671875,116.6992188,0.33984375,I C I I I,1.259780377,1,F,20,NaN,1,1
1,1,1,2,0.690917969,1,1,1,0,525.390625,165.5273438,0.525390625,C,0.932192935,1,F,20,NaN,1,2
1,1,1,3,0.75,1,2,1,1,576.171875,173.828125,0.260742188,I C,0.95981793,1,F,20,NaN,1,3
1,1,1,3,0.697753906,1,2,2,0,447.7539063,250,0.349121094,C C,1.059130412,1,F,20,NaN,1,4
1,1,1,3,0.690917969,1,2,1,1,409.6679688,281.25,0.26171875,I C,1.043530415,1,F,20,NaN,1,5
1,1,1,1,1.314941406,1,6,6,0,1186.035156,128.90625,0.512207031,C C C C C C,1.174180392,1,F,20,NaN,1,6
1,2,2,4,0.567382813,1,1,1,0,455.5664063,111.8164063,0.455566406,C,1.719942649,1,F,20,NaN,1,7
1,1,1,3,0.642578125,1,NaN,NaN,NaN,NaN,NaN,NaN,NaN,NaN,0,F,20,NaN,1,8
1,2,2,4,0.555664063,1,1,1,0,451.171875,104.4921875,0.451171875,C,1.647042662,1,F,20,NaN,1,9
1,1,1,3,0.636230469,1,1,1,0,461.9140625,174.3164063,0.461914063,C,0.870717946,1,F,20,NaN,1,10
1,2,1,1,1.176757813,0,2,0,2,1025.390625,151.3671875,0.694335938,I I,1.23954288,1,F,20,NaN,1,11
1,2,2,4,0.509765625,1,1,1,0,362.7929688,146.9726563,0.362792969,C,1.351992714,1,F,20,NaN,1,12
1,1,1,4,0.577636719,1,1,1,0,395.9960938,181.640625,0.395996094,C,0.871355446,1,F,20,NaN,1,13
1,2,2,3,0.569824219,1,1,1,0,427.734375,142.0898438,0.427734375,C,1.052392768,1,F,20,NaN,1,14
1,2,2,4,0.589355469,1,1,1,0,462.890625,126.4648438,0.462890625,C,1.142405252,1,F,20,NaN,1,15
1,2,2,3,0.912597656,1,4,3,1,785.6445313,126.953125,0.386230469,C I C C,1.332117718,1,F,20,NaN,1,16
1,1,1,4,0.71484375,1,2,2,0,620.1171875,94.7265625,0.303710938,C C,1.226830382,1,F,20,NaN,1,17
1,1,1,2,1.183105469,1,2,2,0,953.125,229.9804688,0.70703125,C C,1.07368041,1,F,20,NaN,1,18
1,1,1,2,0.715820313,1,1,1,0,504.8828125,210.9375,0.504882813,C,0.881530444,1,F,20,NaN,1,19
1,1,1,3,0.693847656,1,1,1,0,329.5898438,364.2578125,0.329589844,C,0.876792945,1,F,20,NaN,1,20
1,2,2,4,0.490722656,1,1,1,0,336.9140625,153.8085938,0.336914063,C,1.216417739,1,F,20,NaN,1,21
1,2,2,3,0.649414063,1,1,1,0,507.8125,141.6015625,0.5078125,C,1.20820524,1,F,20,NaN,1,22
1,2,1,1,1.088867188,0,3,0,3,937.9882813,150.8789063,0.464355469,I I I,1.078280409,1,F,20,NaN,1,23
1,1,NaN,1,NaN,NaN,NaN,NaN,NaN,NaN,NaN,NaN,NaN,NaN,0,F,20,NaN,1,24
1,1,1,3,0.547851563,1,1,1,0,389.6484375,158.203125,0.389648438,C,1.033842917,1,F,20,NaN,1,25
1,1,1,1,0.711914063,1,1,1,0,538.5742188,173.3398438,0.538574219,C,0.988117925,1,F,20,NaN,1,26
1,1,1,1,0.730957031,1,1,1,0,621.5820313,109.375,0.621582031,C,0.863817947,1,F,20,NaN,1,27
1,2,2,4,0.518554688,1,1,1,0,414.0625,104.4921875,0.4140625,C,0.967917783,1,F,20,NaN,1,28
1,2,1,1,1.376464844,0,3,1,2,939.453125,437.0117188,0.350097656,C I I,1.084030408,1,F,20,NaN,1,29
1,2,2,2,0.901367188,1,3,2,1,827.1484375,74.21875,0.434082031,C I C,1.676842656,1,F,20,NaN,1,30
1,1,1,1,0.651367188,1,2,2,0,471.1914063,180.1757813,0.353515625,C C,0.924380437,1,F,20,NaN,1,31
1,2,2,3,1.016601563,1,2,2,0,883.3007813,133.3007813,0.533203125,C C,1.243305234,1,F,20,NaN,1,32
1,1,1,2,0.584472656,1,1,1,0,422.8515625,161.6210938,0.422851563,C,1.112017903,1,F,20,NaN,1,33
1,1,1,2,0.609863281,1,2,2,0,425.2929688,184.5703125,0.329101563,C C,0.921255437,1,F,20,NaN,1,34
1,1,1,1,0.685546875,1,1,1,0,563.4765625,122.0703125,0.563476563,C,0.988305425,1,F,20,NaN,1,35
1,1,1,1,1.026367188,1,3,3,0,928.7109375,97.65625,0.544921875,C C C,1.244855379,1,F,20,NaN,1,36
1,2,2,2,0.658691406,1,1,1,0,557.6171875,101.0742188,0.557617188,C,1.113280257,1,F,20,NaN,1,37
1,1,1,1,0.733398438,1,1,1,0,588.3789063,145.0195313,0.588378906,C,0.859492948,1,F,20,NaN,1,38
1,2,NaN,1,NaN,NaN,NaN,NaN,NaN,NaN,NaN,NaN,NaN,NaN,0,F,20,NaN,1,39
1,2,1,1,0.288574219,0,1,0,1,148.9257813,139.6484375,0.148925781,I,0.990980425,1,F,20,NaN,1,40
1,2,1,2,0.6640625,0,2,0,2,520.0195313,144.0429688,0.41796875,I I,0.871030446,1,F,20,NaN,1,41
1,2,2,3,0.658691406,1,2,2,0,553.2226563,105.46875,0.466796875,C C,1.196455242,1,F,20,NaN,1,42
1,1,1,2,0.571777344,1,1,1,0,426.2695313,145.5078125,0.426269531,C,0.997930423,1,F,20,NaN,1,43
1,2,2,4,0.471191406,1,1,1,0,372.0703125,99.12109375,0.372070313,C,1.535192682,1,F,20,NaN,1,44
1,1,1,2,0.561523438,1,1,1,0,366.2109375,195.3125,0.366210938,C,0.852055449,1,F,20,NaN,1,45
1,2,1,1,1.048339844,0,3,0,3,864.7460938,183.59375,0.581054688,I I I,1.290592871,1,F,20,NaN,1,46
1,2,2,4,0.503417969,1,1,1,0,409.6679688,93.75,0.409667969,C,1.592092671,1,F,20,NaN,1,47
1,1,1,2,0.494628906,1,2,2,0,317.8710938,176.7578125,0.196289063,C C,1.000130423,1,F,20,NaN,1,48
1,2,2,3,0.650878906,1,1,1,0,555.1757813,95.703125,0.555175781,C,1.079742763,1,F,20,NaN,1,49
1,1,1,3,0.501464844,1,1,1,0,369.6289063,131.8359375,0.369628906,C,1.105430404,1,F,20,NaN,1,50
1,2,2,4,0.554199219,1,1,1,0,418.9453125,135.2539063,0.418945313,C,1.202892741,1,F,20,NaN,1,51
1,1,1,1,0.568359375,1,1,1,0,394.53125,173.828125,0.39453125,C,0.841892951,1,F,20,NaN,1,52
1,1,1,1,0.97265625,1,2,2,0,810.0585938,162.5976563,0.556152344,C C,1.028992918,1,F,20,NaN,1,53
1,1,1,1,0.8125,1,2,1,1,682.1289063,130.3710938,0.56640625,I C,0.84625545,1,F,20,NaN,1,54
1,1,1,2,1.08203125,1,4,3,1,968.2617188,113.7695313,0.381835938,I C C C,1.027467918,1,F,20,NaN,1,55
1,1,1,1,0.759277344,1,1,1,0,635.2539063,124.0234375,0.635253906,C,0.971392928,1,F,20,NaN,1,56
1,2,2,3,0.584960938,1,1,1,0,487.7929688,97.16796875,0.487792969,C,1.418880202,1,F,20,NaN,1,57
1,1,1,1,0.576660156,1,1,1,0,452.1484375,124.5117188,0.452148438,C,0.857567948,1,F,20,NaN,1,58
1,2,2,2,0.538574219,1,1,1,0,397.9492188,140.625,0.397949219,C,1.130217754,1,F,20,NaN,1,59
1,2,2,4,0.510742188,1,1,1,0,393.0664063,117.6757813,0.393066406,C,1.204742741,1,F,20,NaN,1,60
1,2,2,3,0.865722656,1,2,2,0,735.8398438,129.8828125,0.4375,C C,1.931155111,1,F,20,NaN,1,61
1,1,1,1,0.498535156,1,1,1,0,331.0546875,167.4804688,0.331054688,C,1.18270539,1,F,20,NaN,1,62
1,2,2,4,0.515625,1,1,1,0,418.4570313,97.16796875,0.418457031,C,1.449880197,1,F,20,NaN,1,63
1,1,1,3,0.532226563,1,1,1,0,317.8710938,214.3554688,0.317871094,C,1.101230405,1,F,20,NaN,1,64
1,2,2,3,0.770996094,1,4,1,3,651.3671875,119.6289063,0.407226563,I I I C,0.970730283,1,F,20,NaN,1,65
1,2,1,1,0.56640625,0,1,0,1,309.5703125,256.8359375,0.309570313,I,1.01564292,1,F,20,NaN,1,66
1,2,2,4,0.563964844,1,1,1,0,440.4296875,123.5351563,0.440429688,C,1.124105255,1,F,20,NaN,1,67
1,1,1,1,0.661621094,1,3,3,0,545.8984375,115.7226563,0.331542969,C C C,0.945330433,1,F,20,NaN,1,68
1,1,1,1,0.639648438,1,2,2,0,524.9023438,114.7460938,0.452636719,C C,0.919730437,1,F,20,NaN,1,69
1,2,2,3,0.857421875,1,1,1,0,678.2226563,179.1992188,0.678222656,C,1.522492684,1,F,20,NaN,2,1
1,2,1,0,0.564453125,0,1,0,1,419.921875,144.53125,0.419921875,I,0.975167927,1,F,20,NaN,2,2
1,2,1,2,0.584472656,0,1,0,1,423.3398438,161.1328125,0.423339844,I,1.052317914,1,F,20,NaN,2,3
1,2,2,2,0.697753906,1,1,1,0,629.3945313,68.359375,0.629394531,C,1.286955226,1,F,20,NaN,2,4
1,2,2,4,0.525390625,1,1,1,0,440.9179688,84.47265625,0.440917969,C,1.536805181,1,F,20,NaN,2,5
1,1,1,3,0.669433594,1,1,1,0,456.0546875,213.3789063,0.456054688,C,0.976317927,1,F,20,NaN,2,6
1,1,1,3,0.631835938,1,1,1,0,492.1875,139.6484375,0.4921875,C,1.1278679,1,F,20,NaN,2,7
1,1,1,3,0.683105469,1,1,1,0,430.6640625,252.4414063,0.430664063,C,1.057030413,1,F,20,NaN,2,8
1,1,1,1,0.685058594,1,1,1,0,561.0351563,124.0234375,0.561035156,C,1.151217896,1,F,20,NaN,2,9
1,2,2,4,0.634765625,1,2,1,1,549.3164063,85.44921875,0.320800781,I C,1.076292764,1,F,20,NaN,2,10
1,1,1,2,0.524414063,1,1,1,0,418.9453125,105.46875,0.418945313,C,1.059530412,1,F,20,NaN,2,11
1,2,1,2,0.496582031,0,1,0,1,319.3359375,177.2460938,0.319335938,I,0.954355431,1,F,20,NaN,2,12
1,1,1,1,0.569335938,1,1,1,0,384.2773438,185.0585938,0.384277344,C,0.988230425,1,F,20,NaN,2,13
1,2,2,3,0.483886719,1,1,1,0,381.8359375,102.0507813,0.381835938,C,1.121292756,1,F,20,NaN,2,14
1,2,1,1,0.691894531,0,2,0,2,607.421875,84.47265625,0.422363281,I I,1.102930405,1,F,20,NaN,2,15
1,2,1,1,0.562011719,0,2,0,2,471.1914063,90.8203125,0.345703125,I I,1.134780399,1,F,20,NaN,2,16
1,2,2,4,0.567382813,1,1,1,0,481.9335938,85.44921875,0.481933594,C,1.458892695,1,F,20,NaN,2,17
1,1,1,3,0.944335938,1,2,2,0,737.7929688,206.5429688,0.303710938,C C,1.177067891,1,F,20,NaN,2,18
1,2,2,4,0.48828125,1,1,1,0,389.6484375,98.6328125,0.389648438,C,1.136280253,1,F,20,NaN,2,19
1,1,1,2,0.5390625,1,1,1,0,336.4257813,202.6367188,0.336425781,C,1.067892911,1,F,20,NaN,2,20
1,2,2,4,0.539550781,1,1,1,0,439.9414063,99.609375,0.439941406,C,1.043730269,1,F,20,NaN,2,21
1,1,1,4,0.536132813,1,1,1,0,410.6445313,125.4882813,0.410644531,C,0.852592949,1,F,20,NaN,2,22
1,2,2,4,0.525878906,1,1,1,0,409.1796875,116.6992188,0.409179688,C,0.918817792,1,F,20,NaN,2,23
1,1,1,4,0.396972656,1,1,1,0,305.6640625,91.30859375,0.305664063,C,1.027942918,1,F,20,NaN,2,24
1,1,1,4,0.541015625,1,1,1,0,400.8789063,140.1367188,0.400878906,C,1.068855411,1,F,20,NaN,2,25
1,1,1,3,0.474609375,1,1,1,0,365.234375,109.375,0.365234375,C,1.001530423,1,F,20,NaN,2,26
1,2,1,1,0.905273438,0,2,0,2,770.5078125,134.765625,0.461914063,I I,1.151517896,1,F,20,NaN,2,27
1,1,1,2,0.580566406,1,1,1,0,446.2890625,134.2773438,0.446289063,C,0.992017924,1,F,20,NaN,2,28
1,2,2,2,0.68359375,1,1,1,0,545.8984375,137.6953125,0.545898438,C,1.011430275,1,F,20,NaN,2,29
1,1,1,1,0.713867188,1,1,1,0,523.9257813,189.9414063,0.523925781,C,0.972017928,1,F,20,NaN,2,30
1,1,1,1,0.542480469,1,1,1,0,376.4648438,166.015625,0.376464844,C,0.916780438,1,F,20,NaN,2,31
1,1,1,1,0.633300781,1,1,1,0,532.2265625,101.0742188,0.532226563,C,0.925492936,1,F,20,NaN,2,32
1,2,2,4,0.521972656,1,1,1,0,386.71875,135.2539063,0.38671875,C,0.991767779,1,F,20,NaN,2,33
1,2,2,4,0.488769531,1,1,1,0,379.3945313,109.375,0.379394531,C,1.002355277,1,F,20,NaN,2,34
1,2,2,4,0.546875,1,1,1,0,430.1757813,116.6992188,0.430175781,C,0.942467788,1,F,20,NaN,2,35
1,1,1,1,0.620605469,1,2,2,0,507.3242188,113.28125,0.424316406,C C,1.060405412,1,F,20,NaN,2,36
1,2,2,4,0.609375,1,1,1,0,497.5585938,111.8164063,0.497558594,C,0.990830279,1,F,20,NaN,2,37
1,1,1,4,0.53515625,1,1,1,0,399.9023438,135.2539063,0.399902344,C,0.883630444,1,F,20,NaN,2,38
1,1,1,3,0.562988281,1,1,1,0,401.3671875,161.6210938,0.401367188,C,0.90544294,1,F,20,NaN,2,39
1,2,2,4,0.572753906,1,1,1,0,461.4257813,111.328125,0.461425781,C,0.994855278,1,F,20,NaN,2,40
1,2,1,0,0.847167969,0,1,0,1,664.0625,183.1054688,0.6640625,I,0.976067927,1,F,20,NaN,2,41
1,2,2,4,0.698242188,1,2,1,1,596.1914063,102.0507813,0.528320313,I C,0.98586778,1,F,20,NaN,2,42
1,1,1,1,0.734375,1,1,1,0,584.4726563,149.9023438,0.584472656,C,0.887992943,1,F,20,NaN,2,43
1,1,1,2,0.455078125,1,1,1,0,354.9804688,100.0976563,0.354980469,C,1.050467914,1,F,20,NaN,2,44
1,2,2,3,0.524414063,1,1,1,0,432.6171875,91.796875,0.432617188,C,1.158817749,1,F,20,NaN,2,45
1,1,1,1,0.4765625,1,1,1,0,301.7578125,174.8046875,0.301757813,C,1.106305404,1,F,20,NaN,2,46
1,2,2,4,0.556640625,1,2,1,1,483.8867188,72.75390625,0.372558594,I C,1.302105223,1,F,20,NaN,2,47
1,1,1,3,0.531738281,1,1,1,0,413.5742188,118.1640625,0.413574219,C,0.932305435,1,F,20,NaN,2,48
1,1,1,3,0.55078125,1,1,1,0,436.5234375,114.2578125,0.436523438,C,0.896180442,1,F,20,NaN,2,49
1,1,1,4,0.916992188,1,2,2,0,735.3515625,181.640625,0.466796875,C C,1.264992876,1,F,20,NaN,2,50
1,1,1,4,0.516601563,1,1,1,0,370.1171875,146.484375,0.370117188,C,1.044780415,1,F,20,NaN,2,51
1,2,2,4,0.49609375,1,1,1,0,375,121.09375,0.375,C,1.031267772,1,F,20,NaN,2,52
1,2,1,1,0.609375,0,1,0,1,479.4921875,129.8828125,0.479492188,I,1.156517895,1,F,20,NaN,2,53
1,2,2,1,0.729003906,1,1,1,0,635.2539063,93.75,0.635253906,C,1.157317749,1,F,20,NaN,2,54
1,2,2,4,0.882324219,1,3,3,0,760.2539063,122.0703125,0.416503906,C C C,1.511780186,1,F,20,NaN,2,55
1,1,1,3,0.630859375,1,1,1,0,480.9570313,149.9023438,0.480957031,C,1.061555412,1,F,20,NaN,2,56
1,2,1,1,0.557128906,0,1,0,1,422.8515625,134.2773438,0.422851563,I,0.980955426,1,F,20,NaN,2,57
1,1,1,2,0.94921875,1,2,1,1,869.6289063,79.58984375,0.422363281,I C,1.254680377,1,F,20,NaN,2,58
1,2,2,3,0.520996094,1,1,1,0,407.7148438,113.28125,0.407714844,C,1.164217748,1,F,20,NaN,2,59
1,1,1,2,0.552246094,1,1,1,0,341.3085938,210.9375,0.341308594,C,1.077792909,1,F,20,NaN,2,60
1,2,1,1,0.58984375,0,1,0,1,472.65625,117.1875,0.47265625,I,1.022480419,1,F,20,NaN,2,61
1,1,1,1,0.494628906,1,1,1,0,352.5390625,142.0898438,0.352539063,C,0.84786795,1,F,20,NaN,2,62
1,2,2,2,0.647949219,1,1,1,0,568.8476563,79.1015625,0.568847656,C,1.293342725,1,F,20,NaN,2,63
1,2,1,0,0.581054688,0,1,0,1,351.0742188,229.9804688,0.351074219,I,1.000280423,1,F,20,NaN,2,64
1,1,1,1,0.87109375,1,3,3,0,722.65625,148.4375,0.444824219,C C C,1.371480357,1,F,20,NaN,2,65
1,2,2,2,0.829101563,1,1,1,0,717.7734375,111.328125,0.717773438,C,0.916742792,1,F,20,NaN,2,66
1,2,1,1,0.659667969,0,2,0,2,452.1484375,207.5195313,0.322265625,I I,0.868380447,1,F,20,NaN,2,67
1,2,2,3,0.496582031,1,1,1,0,374.5117188,122.0703125,0.374511719,C,1.146405251,1,F,20,NaN,2,68
1,1,1,1,0.65234375,1,1,1,0,488.28125,164.0625,0.48828125,C,0.870880446,1,F,20,NaN,2,69
1,1,1,2,1.05859375,1,3,3,0,931.1523438,127.4414063,0.573242188,C C C,1.137930398,1,F,20,NaN,2,70
1,2,2,3,0.642578125,1,NaN,NaN,NaN,NaN,NaN,NaN,NaN,NaN,0,F,20,NaN,3,1
1,1,1,2,0.541015625,1,NaN,NaN,NaN,NaN,NaN,NaN,NaN,NaN,0,F,20,NaN,3,2
1,2,2,3,0.444335938,1,1,1,0,361.328125,83.0078125,0.361328125,C,1.195080242,1,F,20,NaN,3,3
1,2,2,1,0.766601563,1,2,2,0,579.5898438,187.0117188,0.353515625,C C,1.26434273,1,F,20,NaN,3,4
1,2,2,3,0.529296875,1,1,1,0,395.0195313,134.2773438,0.395019531,C,1.282867727,1,F,20,NaN,3,5
1,1,1,3,0.568847656,1,1,1,0,402.34375,166.5039063,0.40234375,C,0.842342951,1,F,20,NaN,3,6
1,1,1,1,0.864746094,1,3,3,0,771.484375,93.26171875,0.33984375,C C C,1.1291929,1,F,20,NaN,3,7
1,2,2,2,0.523925781,1,1,1,0,362.7929688,161.1328125,0.362792969,C,1.380767709,1,F,20,NaN,3,8
1,1,1,3,0.579101563,1,1,1,0,452.6367188,126.4648438,0.452636719,C,0.946855432,1,F,20,NaN,3,9
1,1,1,2,0.609375,1,1,1,0,504.8828125,104.4921875,0.504882813,C,1.006805422,1,F,20,NaN,3,10
1,1,1,1,0.876464844,1,2,2,0,788.0859375,88.37890625,0.506347656,C C,1.336542863,1,F,20,NaN,3,11
1,1,1,1,0.739746094,1,1,1,0,652.8320313,86.9140625,0.652832031,C,0.995867924,1,F,20,NaN,3,12
1,1,1,1,1.187011719,1,3,3,0,1041.503906,145.5078125,0.583984375,C C C,0.855842949,1,F,20,NaN,3,13
1,2,2,3,0.564941406,1,NaN,NaN,NaN,NaN,NaN,NaN,NaN,NaN,0,F,20,NaN,3,14
1,1,1,1,1.204589844,1,4,4,0,1101.074219,103.515625,0.368652344,C C C C,1.141080398,1,F,20,NaN,3,15
1,1,1,1,0.711914063,1,3,3,0,604.0039063,107.9101563,0.2265625,C C C,0.915580438,1,F,20,NaN,3,16
1,2,1,2,0.887695313,0,NaN,NaN,NaN,NaN,NaN,NaN,NaN,NaN,0,F,20,NaN,3,17
1,2,1,1,1.003417969,0,2,0,2,852.0507813,151.3671875,0.518554688,I I,1.113392903,1,F,20,NaN,3,18
1,2,2,3,0.483398438,1,NaN,NaN,NaN,NaN,NaN,NaN,NaN,NaN,0,F,20,NaN,3,19
1,2,2,3,0.598144531,1,NaN,NaN,NaN,NaN,NaN,NaN,NaN,NaN,0,F,20,NaN,3,20
1,1,1,2,0.487304688,1,1,1,0,353.515625,133.7890625,0.353515625,C,1.077992909,1,F,20,NaN,3,21
1,1,1,1,0.554199219,1,1,1,0,380.3710938,173.828125,0.380371094,C,1.034042917,1,F,20,NaN,3,22
1,2,2,3,0.508789063,1,NaN,NaN,NaN,NaN,NaN,NaN,NaN,NaN,0,F,20,NaN,3,23
1,1,1,1,0.924316406,1,3,3,0,821.7773438,102.5390625,0.297851563,C C C,1.262105376,1,F,20,NaN,3,24
1,2,2,3,0.458007813,1,NaN,NaN,NaN,NaN,NaN,NaN,NaN,NaN,0,F,20,NaN,3,25
1,1,1,2,0.571289063,1,2,2,0,477.5390625,93.75,0.408203125,C C,0.980942926,1,F,20,NaN,3,26
1,2,2,3,0.474121094,1,1,1,0,369.140625,104.9804688,0.369140625,C,1.243592734,1,F,20,NaN,3,27
1,2,1,0,0.443359375,0,1,0,1,184.0820313,259.2773438,0.184082031,I,0.883042944,1,F,20,NaN,3,28
1,2,1,0,0.646972656,0,1,0,1,550.2929688,96.6796875,0.550292969,I,0.892392942,1,F,20,NaN,3,29
1,1,2,3,0.689941406,0,NaN,NaN,NaN,NaN,NaN,NaN,NaN,NaN,0,F,20,NaN,3,30
1,2,2,3,0.581054688,1,NaN,NaN,NaN,NaN,NaN,NaN,NaN,NaN,0,F,20,NaN,3,31
1,2,1,1,0.873535156,0,1,0,1,722.65625,150.8789063,0.72265625,I,0.894805442,1,F,20,NaN,3,32
1,2,1,1,1.038085938,0,1,0,1,550.2929688,487.7929688,0.550292969,I,0.869605446,1,F,20,NaN,3,33
1,2,2,2,0.669921875,1,NaN,NaN,NaN,NaN,NaN,NaN,NaN,NaN,0,F,20,NaN,3,34
1,1,1,1,0.674804688,1,1,1,0,500.9765625,173.828125,0.500976563,C,1.103592904,1,F,20,NaN,3,35
1,2,2,2,0.575195313,1,1,1,0,470.2148438,104.9804688,0.470214844,C,1.089155261,1,F,20,NaN,3,36
1,1,1,1,0.898925781,1,2,1,1,796.3867188,102.5390625,0.470214844,I C,1.089867907,1,F,20,NaN,3,37
1,1,1,2,0.673828125,1,1,1,0,533.6914063,140.1367188,0.533691406,C,0.935167935,1,F,20,NaN,3,38
1,2,2,3,0.582519531,1,1,1,0,464.3554688,118.1640625,0.464355469,C,1.407342704,1,F,20,NaN,3,39
1,1,1,1,0.53125,1,1,1,0,314.9414063,216.3085938,0.314941406,C,0.894942942,1,F,20,NaN,3,40
1,1,1,1,0.605957031,1,1,1,0,462.4023438,143.5546875,0.462402344,C,0.84719295,1,F,20,NaN,3,41
1,1,1,1,1.018554688,1,2,2,0,901.8554688,116.6992188,0.596679688,C C,0.871130446,1,F,20,NaN,3,42
1,2,2,2,0.880859375,1,3,1,2,777.34375,103.515625,0.396972656,I I C,1.158292749,1,F,20,NaN,3,43
1,1,1,3,0.51953125,1,1,1,0,366.6992188,152.8320313,0.366699219,C,1.086355408,1,F,20,NaN,3,44
1,2,2,3,0.643066406,1,1,1,0,512.6953125,130.3710938,0.512695313,C,0.948730286,1,F,20,NaN,3,45
1,1,1,3,0.586425781,1,1,1,0,410.15625,176.2695313,0.41015625,C,0.95801793,1,F,20,NaN,3,46
1,2,2,3,0.47265625,1,1,1,0,359.8632813,112.7929688,0.359863281,C,1.166592747,1,F,20,NaN,3,47
1,1,1,2,0.650878906,1,1,1,0,496.09375,154.7851563,0.49609375,C,0.859805448,1,F,20,NaN,3,48
1,2,1,0,0.676757813,0,1,0,1,453.6132813,223.1445313,0.453613281,I,0.986817925,1,F,20,NaN,3,49
1,1,1,3,0.638671875,1,2,2,0,462.4023438,176.2695313,0.401367188,C C,0.85056795,1,F,20,NaN,3,50
1,2,2,3,0.594238281,1,1,1,0,454.1015625,140.1367188,0.454101563,C,1.309705222,1,F,20,NaN,3,51
1,2,2,4,0.600585938,1,1,1,0,427.2460938,173.3398438,0.427246094,C,1.289305226,1,F,20,NaN,3,52
1,1,1,2,0.731933594,1,1,1,0,487.3046875,244.6289063,0.487304688,C,0.878405445,1,F,20,NaN,3,53
1,2,2,3,0.724121094,1,1,1,0,623.046875,101.0742188,0.623046875,C,1.033355271,1,F,20,NaN,3,54
1,2,2,4,0.522949219,1,1,1,0,385.2539063,137.6953125,0.385253906,C,1.195255242,1,F,20,NaN,3,55
1,1,1,4,0.645019531,1,1,1,0,431.1523438,213.8671875,0.431152344,C,0.984130426,1,F,20,NaN,3,56
1,2,2,4,0.5546875,1,1,1,0,438.4765625,116.2109375,0.438476563,C,1.20791774,1,F,20,NaN,3,57
1,2,2,4,0.700195313,1,2,1,1,620.1171875,80.078125,0.313964844,I C,1.067192765,1,F,20,NaN,3,58
1,1,2,2,0.738769531,0,3,2,1,627.4414063,111.328125,0.428710938,C C I,0.92819279,1,F,20,NaN,3,59
1,2,2,2,0.543945313,1,1,1,0,376.953125,166.9921875,0.376953125,C,1.078642763,1,F,20,NaN,3,60
1,1,1,1,0.704589844,1,1,1,0,525.8789063,178.7109375,0.525878906,C,0.912230439,1,F,20,NaN,3,61
1,2,2,2,1.127929688,1,3,3,0,1033.691406,94.23828125,0.562011719,C C C,1.373355211,1,F,20,NaN,3,62
1,2,2,2,0.659667969,1,1,1,0,504.8828125,154.7851563,0.504882813,C,0.998317778,1,F,20,NaN,3,63
1,2,2,3,0.646484375,1,4,1,3,479.0039063,167.4804688,0.060058594,I I I C,1.176980246,1,F,20,NaN,3,64
1,1,2,1,1.405273438,0,6,2,4,1321.289063,83.984375,0.580566406,C C I I I I,1.514855185,1,F,20,NaN,3,65
1,2,2,2,0.889160156,1,2,1,1,760.7421875,128.4179688,0.6953125,I C,0.976255282,1,F,20,NaN,3,66
1,1,1,2,0.598144531,1,4,4,0,436.5234375,161.6210938,0.083496094,C C C C,1.100667905,1,F,20,NaN,3,67
1,2,1,0,0.667480469,0,2,0,2,558.59375,108.8867188,0.471679688,I I,0.949180432,1,F,20,NaN,3,68
1,1,1,1,0.571777344,1,1,1,0,457.5195313,114.2578125,0.457519531,C,0.996667924,1,F,20,NaN,3,69
1,1,1,1,0.62890625,1,1,1,0,384.765625,244.140625,0.384765625,C,0.988205425,1,F,20,NaN,3,70
1,1,1,0,0.915039063,1,NaN,NaN,NaN,NaN,NaN,NaN,NaN,NaN,0,F,20,NaN,4,1
1,2,2,3,0.509765625,1,1,1,0,354.9804688,154.7851563,0.354980469,C,1.510880186,1,F,20,NaN,4,2
1,2,1,1,0.586914063,0,2,0,2,457.03125,129.8828125,0.325683594,I I,1.049005414,1,F,20,NaN,4,3
1,2,2,2,0.904785156,1,3,2,1,810.0585938,94.7265625,0.303222656,I C C,1.362392712,1,F,20,NaN,4,4
1,2,1,1,1.051757813,0,2,0,2,910.15625,141.6015625,0.563476563,I I,0.984105426,1,F,20,NaN,4,5
1,2,2,2,0.525878906,1,NaN,NaN,NaN,NaN,NaN,NaN,NaN,NaN,0,F,20,NaN,4,6
1,1,1,3,0.837402344,1,NaN,NaN,NaN,NaN,NaN,NaN,NaN,NaN,0,F,20,NaN,4,7
1,1,1,4,0.582519531,1,NaN,NaN,NaN,NaN,NaN,NaN,NaN,NaN,0,F,20,NaN,4,8
1,1,1,2,0.555175781,1,2,2,0,431.640625,123.5351563,0.344726563,C C,0.916742938,1,F,20,NaN,4,9
1,1,1,2,0.889648438,1,2,2,0,794.921875,94.7265625,0.45703125,C C,1.117105402,1,F,20,NaN,4,10
1,2,1,0,0.686035156,0,3,0,3,501.4648438,184.5703125,0.060546875,I I I,0.932080435,1,F,20,NaN,4,11
1,1,1,3,0.677734375,1,3,2,1,523.4375,154.296875,0.075195313,I C C,0.892005442,1,F,20,NaN,4,12
1,2,2,4,0.513671875,1,1,1,0,378.4179688,135.2539063,0.378417969,C,1.102780259,1,F,20,NaN,4,13
1,1,1,3,0.596679688,1,1,1,0,367.6757813,229.0039063,0.367675781,C,0.874292945,1,F,20,NaN,4,14
1,1,1,3,0.592773438,1,1,1,0,407.7148438,185.0585938,0.407714844,C,0.890330443,1,F,20,NaN,4,15
1,2,1,1,0.824707031,0,2,1,1,698.7304688,125.9765625,0.556640625,C I,0.871380446,1,F,20,NaN,4,16
1,1,1,1,0.645507813,1,1,1,0,435.0585938,210.4492188,0.435058594,C,0.845905451,1,F,20,NaN,4,17
1,1,1,2,0.701171875,1,1,1,0,553.2226563,147.9492188,0.553222656,C,0.908630439,1,F,20,NaN,4,18
1,2,2,3,0.58203125,1,1,1,0,456.0546875,125.9765625,0.456054688,C,1.200592741,1,F,20,NaN,4,19
1,2,2,2,0.662597656,1,3,1,2,555.6640625,106.9335938,0.284179688,I I C,1.136192753,1,F,20,NaN,4,20
1,2,2,3,0.475585938,1,1,1,0,336.9140625,138.671875,0.336914063,C,1.413730203,1,F,20,NaN,4,21
1,1,1,4,0.504882813,1,1,1,0,338.8671875,166.015625,0.338867188,C,0.930880435,1,F,20,NaN,4,22
1,1,1,3,0.841796875,1,3,2,1,720.2148438,121.5820313,0.368652344,C I C,1.137480398,1,F,20,NaN,4,23
1,2,2,4,0.573730469,1,4,1,3,398.4375,175.2929688,0.270507813,I I C,1.128942754,1,F,20,NaN,4,24
1,1,1,3,0.598144531,1,3,3,0,446.7773438,151.3671875,0.216308594,C C C,0.940642934,1,F,20,NaN,4,25
1,2,1,1,0.774902344,0,3,0,3,606.4453125,168.4570313,0.359375,I I I,0.842442951,1,F,20,NaN,4,26
1,1,1,3,0.604492188,1,1,1,0,393.0664063,211.4257813,0.393066406,C,0.842455451,1,F,20,NaN,4,27
1,2,2,3,0.559082031,1,1,1,0,409.1796875,149.9023438,0.409179688,C,1.174980246,1,F,20,NaN,4,28
1,1,1,3,1.10546875,1,5,5,0,975.5859375,129.8828125,0.322265625,C C C C C,0.977230427,1,F,20,NaN,4,29
1,1,1,1,0.5859375,1,3,3,0,385.2539063,200.6835938,0.229003906,C C C,1.146342897,1,F,20,NaN,4,30
1,2,1,2,0.630859375,0,4,0,4,391.6015625,239.2578125,0.162597656,I I I I,1.037830416,1,F,20,NaN,4,31
1,1,1,3,0.626953125,1,2,2,0,280.2734375,346.6796875,0.125488281,C C,0.914742938,1,F,20,NaN,4,32
1,1,2,2,1.046386719,0,9,8,1,858.8867188,187.5,0.025390625,C C C C C C C C I,0.987892779,1,F,20,NaN,4,33
1,2,2,1,0.827636719,1,1,1,0,650.8789063,176.7578125,0.650878906,C,0.899167795,1,F,20,NaN,4,34
1,1,1,1,1.087890625,1,3,3,0,891.1132813,196.7773438,0.599121094,C C C,0.938092934,1,F,20,NaN,4,35
1,2,2,2,0.795898438,1,2,1,1,620.6054688,175.2929688,0.432617188,I C,0.909142794,1,F,20,NaN,4,36
1,1,1,1,0.602539063,1,1,1,0,429.1992188,173.3398438,0.429199219,C,0.929467936,1,F,20,NaN,4,37
1,1,2,1,0.697753906,0,2,0,2,588.8671875,108.8867188,0.362304688,I I,1.086817762,1,F,20,NaN,4,38
1,1,1,2,0.685546875,1,1,1,0,472.1679688,213.3789063,0.472167969,C,0.912192939,1,F,20,NaN,4,39
1,2,2,2,0.911621094,1,1,1,0,772.4609375,139.1601563,0.772460938,C,1.060630266,1,F,20,NaN,4,40
1,2,2,3,0.640136719,1,4,1,3,516.6015625,123.5351563,0.257324219,I I I C,0.920705291,1,F,20,NaN,4,41
1,1,1,3,0.56640625,1,3,3,0,450.1953125,116.2109375,0.219726563,C C C,0.967892929,1,F,20,NaN,4,42
1,2,1,0,0.663085938,0,1,0,1,539.0625,124.0234375,0.5390625,I,0.996205424,1,F,20,NaN,4,43
1,2,1,1,1.154296875,0,2,0,2,984.8632813,169.4335938,0.603027344,I I,0.844867951,1,F,20,NaN,4,44
1,1,1,2,0.683105469,1,1,1,0,479.9804688,203.125,0.479980469,C,0.90304294,1,F,20,NaN,4,45
1,2,2,4,0.515136719,1,1,1,0,392.578125,122.5585938,0.392578125,C,1.224592737,1,F,20,NaN,4,46
1,1,2,3,0.865234375,0,2,1,1,750.4882813,114.7460938,0.409179688,C I,1.180717745,1,F,20,NaN,4,47
1,2,2,4,0.569335938,1,1,1,0,427.2460938,142.0898438,0.427246094,C,1.105280258,1,F,20,NaN,4,48
1,1,1,4,0.789550781,1,2,2,0,621.5820313,167.96875,0.551757813,C C,1.107892904,1,F,20,NaN,4,49
1,2,2,4,0.609375,1,1,1,0,488.7695313,120.6054688,0.488769531,C,1.09923026,1,F,20,NaN,4,50
1,2,2,2,0.692382813,1,1,1,0,591.3085938,101.0742188,0.591308594,C,1.062455266,1,F,20,NaN,4,51
1,2,2,4,0.482910156,1,1,1,0,365.234375,117.6757813,0.365234375,C,1.030342772,1,F,20,NaN,4,52
1,1,1,4,0.575683594,1,1,1,0,407.7148438,167.96875,0.407714844,C,0.989205425,1,F,20,NaN,4,53
1,1,1,4,0.526855469,1,1,1,0,374.5117188,152.34375,0.374511719,C,1.087205407,1,F,20,NaN,4,54
1,1,1,2,0.655761719,1,1,1,0,544.921875,110.8398438,0.544921875,C,0.916867938,1,F,20,NaN,4,55
1,2,1,0,0.510253906,0,2,0,2,404.7851563,105.46875,0.310546875,I I,1.064667911,1,F,20,NaN,4,56
1,2,2,4,0.465332031,1,1,1,0,332.5195313,132.8125,0.332519531,C,1.027067772,1,F,20,NaN,4,57
1,1,1,3,0.606445313,1,2,2,0,516.6015625,89.84375,0.402832031,C C,0.967455429,1,F,20,NaN,4,58
1,1,1,3,0.616210938,1,1,1,0,512.6953125,103.515625,0.512695313,C,1.1292804,1,F,20,NaN,4,59
1,1,1,1,1.048828125,1,2,2,0,926.2695313,122.5585938,0.569824219,C C,1.021705419,1,F,20,NaN,4,60
1,1,1,2,0.640136719,1,1,1,0,475.5859375,164.5507813,0.475585938,C,1.112880403,1,F,20,NaN,4,61
1,1,1,1,0.688476563,1,2,2,0,464.3554688,224.1210938,0.354980469,C C,0.878030445,1,F,20,NaN,4,62
1,2,2,3,0.571777344,1,1,1,0,381.8359375,189.9414063,0.381835938,C,0.890642797,1,F,20,NaN,4,63
1,2,2,4,0.559082031,1,1,1,0,403.8085938,155.2734375,0.403808594,C,1.077692763,1,F,20,NaN,4,64
1,1,1,3,0.566894531,1,1,1,0,379.3945313,187.5,0.379394531,C,0.978480427,1,F,20,NaN,4,65
1,1,1,3,0.731445313,1,1,1,0,446.7773438,284.6679688,0.446777344,C,1.004117922,1,F,20,NaN,4,66
1,1,2,2,0.530761719,0,1,0,1,375,155.7617188,0.375,I,0.911442793,1,F,20,NaN,4,67
1,2,2,2,0.811035156,1,3,1,2,720.703125,90.33203125,0.361816406,I I C,1.009655276,1,F,20,NaN,4,68
1,2,1,1,0.557128906,0,1,0,1,400.390625,156.7382813,0.400390625,I,1.062105412,1,F,20,NaN,4,69
1,2,2,3,0.654296875,1,1,1,0,534.6679688,119.6289063,0.534667969,C,1.084417762,1,F,20,NaN,4,70
1,1,1,1,0.873535156,1,5,1,4,778.3203125,95.21484375,0.031738281,I I I I C,1.165192893,1,F,20,NaN,5,1
1,1,2,2,0.697753906,0,2,0,2,439.9414063,257.8125,0.321289063,I I,0.916255292,1,F,20,NaN,5,2
1,1,1,1,0.5625,1,1,1,0,414.5507813,147.9492188,0.414550781,C,0.892392942,1,F,20,NaN,5,3
1,2,1,0,0.460449219,0,1,0,1,300.2929688,160.15625,0.300292969,I,0.948742932,1,F,20,NaN,5,4
1,2,1,1,0.541015625,0,1,0,1,412.5976563,128.4179688,0.412597656,I,0.895555442,1,F,20,NaN,5,5
1,1,1,2,0.693847656,1,3,3,0,580.5664063,113.28125,0.322753906,C C C,0.988942925,1,F,20,NaN,5,6
1,1,2,1,1.041992188,0,NaN,NaN,NaN,NaN,NaN,NaN,NaN,NaN,0,F,20,NaN,5,7
1,1,1,2,0.649414063,1,NaN,NaN,NaN,NaN,NaN,NaN,NaN,NaN,0,F,20,NaN,5,8
1,2,2,3,0.504882813,1,NaN,NaN,NaN,NaN,NaN,NaN,NaN,NaN,0,F,20,NaN,5,9
1,1,1,2,0.620117188,1,1,1,0,454.1015625,166.015625,0.454101563,C,0.895942942,1,F,20,NaN,5,10
1,2,2,3,0.86328125,1,3,1,2,756.3476563,106.9335938,0.423339844,I C,0.968767783,1,F,20,NaN,5,11
1,1,1,2,0.573242188,1,1,1,0,456.5429688,116.6992188,0.456542969,C,0.929630436,1,F,20,NaN,5,12
1,2,2,3,0.597167969,1,1,1,0,478.515625,118.6523438,0.478515625,C,1.002880277,1,F,20,NaN,5,13
1,2,2,4,0.633789063,1,2,1,1,549.3164063,84.47265625,0.380371094,I C,1.142630252,1,F,20,NaN,5,14
1,1,1,3,0.5546875,1,1,1,0,352.0507813,202.6367188,0.352050781,C,0.957167931,1,F,20,NaN,5,15
1,2,2,4,0.471191406,1,1,1,0,352.0507813,119.140625,0.352050781,C,1.069255265,1,F,20,NaN,5,16
1,2,2,2,0.708007813,1,2,1,1,602.0507813,105.9570313,0.436523438,I C,1.110930257,1,F,20,NaN,5,17
1,1,1,2,0.956542969,1,2,2,0,868.1640625,88.37890625,0.550292969,C C,1.094517906,1,F,20,NaN,5,18
1,1,1,1,1.133789063,1,2,2,0,1031.25,102.5390625,0.619140625,C C,1.024905419,1,F,20,NaN,5,19
1,2,2,3,0.560058594,1,1,1,0,449.7070313,110.3515625,0.449707031,C,1.216867738,1,F,20,NaN,5,20
1,1,1,1,0.777832031,1,1,1,0,594.2382813,183.59375,0.594238281,C,0.865955447,1,F,20,NaN,5,21
1,1,1,1,0.729492188,1,1,1,0,548.828125,180.6640625,0.548828125,C,0.940967934,1,F,20,NaN,5,22
1,1,1,1,1.083007813,1,2,2,0,900.8789063,182.1289063,0.533203125,C C,0.85000545,1,F,20,NaN,5,23
1,1,1,1,0.592773438,1,1,1,0,438.4765625,154.296875,0.438476563,C,1.07021791,1,F,20,NaN,5,24
1,1,1,2,0.691894531,1,1,1,0,531.7382813,160.15625,0.531738281,C,1.01614292,1,F,20,NaN,5,25
1,2,2,3,0.524902344,1,1,1,0,410.15625,114.7460938,0.41015625,C,1.144680251,1,F,20,NaN,5,26
1,2,2,1,0.594238281,1,1,1,0,468.75,125.4882813,0.46875,C,0.915080292,1,F,20,NaN,5,27
1,1,1,2,0.587402344,1,1,1,0,447.7539063,139.6484375,0.447753906,C,1.026517918,1,F,20,NaN,5,28
1,2,2,2,0.823730469,1,2,1,1,722.1679688,101.5625,0.580078125,I C,1.048255269,1,F,20,NaN,5,29
1,1,1,1,0.761230469,1,2,2,0,594.2382813,166.9921875,0.493164063,C C,0.907792939,1,F,20,NaN,5,30
1,2,2,1,0.755371094,1,1,1,0,637.6953125,117.6757813,0.637695313,C,0.960517784,1,F,20,NaN,5,31
1,2,2,3,0.498046875,1,1,1,0,379.3945313,118.6523438,0.379394531,C,1.223955237,1,F,20,NaN,5,32
1,1,1,2,0.8203125,1,2,2,0,748.5351563,71.77734375,0.407226563,C C,1.364230358,1,F,20,NaN,5,33
1,2,2,2,0.581542969,1,NaN,NaN,NaN,NaN,NaN,NaN,NaN,NaN,0,F,20,NaN,5,34
1,1,1,3,0.530761719,1,1,1,0,355.46875,175.2929688,0.35546875,C,1.023992919,1,F,20,NaN,5,35
1,1,1,3,0.531738281,1,1,1,0,416.9921875,114.7460938,0.416992188,C,0.932592935,1,F,20,NaN,5,36
1,2,2,1,0.623535156,1,NaN,NaN,NaN,NaN,NaN,NaN,NaN,NaN,0,F,20,NaN,5,37
1,2,2,3,0.499511719,1,NaN,NaN,NaN,NaN,NaN,NaN,NaN,NaN,0,F,20,NaN,5,38
1,1,1,4,0.602539063,1,1,1,0,477.0507813,125.4882813,0.477050781,C,0.956142931,1,F,20,NaN,5,39
1,2,2,4,0.466796875,1,NaN,NaN,NaN,NaN,NaN,NaN,NaN,NaN,0,F,20,NaN,5,40
1,1,1,4,0.608886719,1,1,1,0,490.7226563,118.1640625,0.490722656,C,1.068292911,1,F,20,NaN,5,41
1,1,1,2,0.672851563,1,1,1,0,530.2734375,142.578125,0.530273438,C,0.865855447,1,F,20,NaN,5,42
1,2,1,1,0.520996094,0,1,0,1,322.7539063,198.2421875,0.322753906,I,0.934467935,1,F,20,NaN,5,43
1,2,2,3,0.524414063,1,NaN,NaN,NaN,NaN,NaN,NaN,NaN,NaN,0,F,20,NaN,5,44
1,2,2,3,0.506347656,1,NaN,NaN,NaN,NaN,NaN,NaN,NaN,NaN,0,F,20,NaN,5,45
1,2,2,4,0.538085938,1,NaN,NaN,NaN,NaN,NaN,NaN,NaN,NaN,0,F,20,NaN,5,46
1,2,2,2,0.953125,1,NaN,NaN,NaN,NaN,NaN,NaN,NaN,NaN,0,F,20,NaN,5,47
1,2,2,2,0.481445313,1,NaN,NaN,NaN,NaN,NaN,NaN,NaN,NaN,0,F,20,NaN,5,48
1,1,1,2,0.45703125,1,1,1,0,280.2734375,176.7578125,0.280273438,C,1.266455375,1,F,20,NaN,5,49
1,2,2,3,0.483398438,1,NaN,NaN,NaN,NaN,NaN,NaN,NaN,NaN,0,F,20,NaN,5,50
1,2,2,3,0.537109375,1,NaN,NaN,NaN,NaN,NaN,NaN,NaN,NaN,0,F,20,NaN,5,51
1,1,1,1,0.609863281,1,1,1,0,458.0078125,151.8554688,0.458007813,C,1.038855416,1,F,20,NaN,5,52
1,2,1,1,0.748046875,0,1,0,1,507.3242188,240.7226563,0.507324219,I,0.912730439,1,F,20,NaN,5,53
1,1,1,1,0.622070313,1,1,1,0,473.1445313,148.9257813,0.473144531,C,1.100967905,1,F,20,NaN,5,54
1,2,2,1,0.798828125,1,NaN,NaN,NaN,NaN,NaN,NaN,NaN,NaN,0,F,20,NaN,5,55
1,1,1,2,0.653808594,1,NaN,NaN,NaN,NaN,NaN,NaN,NaN,NaN,0,F,20,NaN,5,56
1,2,2,3,0.46875,1,1,1,0,375.4882813,93.26171875,0.375488281,C,1.329780218,1,F,20,NaN,5,57
1,1,1,1,0.582519531,1,3,3,0,414.5507813,167.96875,0.196777344,C C C,1.012192921,1,F,20,NaN,5,58
1,2,2,3,0.541992188,1,1,1,0,453.6132813,88.37890625,0.453613281,C,1.249792733,1,F,20,NaN,5,59
1,1,1,1,0.537597656,1,1,1,0,339.84375,197.7539063,0.33984375,C,1.059080412,1,F,20,NaN,5,60
1,2,1,0,0.522949219,0,1,0,1,438.4765625,84.47265625,0.438476563,I,1.180192891,1,F,20,NaN,5,61
1,1,1,1,0.668945313,1,1,1,0,571.7773438,97.16796875,0.571777344,C,1.035717917,1,F,20,NaN,5,62
1,2,2,4,0.502929688,1,1,1,0,382.8125,120.1171875,0.3828125,C,1.285817726,1,F,20,NaN,5,63
1,1,2,3,0.608886719,0,1,0,1,491.6992188,117.1875,0.491699219,I,1.157430249,1,F,20,NaN,5,64
1,1,1,1,0.461425781,1,1,1,0,309.0820313,152.34375,0.309082031,C,0.986067925,1,F,20,NaN,5,65
1,2,1,2,0.880371094,0,2,0,2,794.921875,85.44921875,0.484863281,I I,1.215730384,1,F,20,NaN,5,66
1,2,2,3,0.968261719,1,2,1,1,891.6015625,76.66015625,0.485839844,I C,1.427230201,1,F,20,NaN,5,67
1,2,1,1,0.753417969,0,1,0,1,620.6054688,132.8125,0.620605469,I,0.876480445,1,F,20,NaN,5,68
1,2,2,3,0.599121094,1,1,1,0,437.0117188,162.109375,0.437011719,C,0.937067789,1,F,20,NaN,5,69
1,2,2,3,0.550292969,1,1,1,0,413.0859375,137.2070313,0.413085938,C,1.074692764,1,F,20,NaN,5,70
1,1,1,1,0.775878906,1,NaN,NaN,NaN,NaN,NaN,NaN,NaN,NaN,0,F,20,NaN,6,1
1,2,1,1,0.509765625,0,NaN,NaN,NaN,NaN,NaN,NaN,NaN,NaN,0,F,20,NaN,6,2
1,2,2,2,0.549804688,1,NaN,NaN,NaN,NaN,NaN,NaN,NaN,NaN,0,F,20,NaN,6,3
1,1,1,2,0.641113281,1,NaN,NaN,NaN,NaN,NaN,NaN,NaN,NaN,0,F,20,NaN,6,4
1,1,1,2,0.503417969,1,NaN,NaN,NaN,NaN,NaN,NaN,NaN,NaN,0,F,20,NaN,6,5
1,1,1,1,0.646484375,1,NaN,NaN,NaN,NaN,NaN,NaN,NaN,NaN,0,F,20,NaN,6,6
1,1,1,1,0.930175781,1,NaN,NaN,NaN,NaN,NaN,NaN,NaN,NaN,0,F,20,NaN,6,7
1,2,1,1,1.070800781,0,NaN,NaN,NaN,NaN,NaN,NaN,NaN,NaN,0,F,20,NaN,6,8
1,1,1,1,0.580078125,1,NaN,NaN,NaN,NaN,NaN,NaN,NaN,NaN,0,F,20,NaN,6,9
1,2,2,2,0.659667969,1,1,1,0,548.3398438,111.328125,0.548339844,C,1.170980247,1,F,20,NaN,6,10
1,1,1,1,0.556152344,1,1,1,0,383.7890625,172.3632813,0.383789063,C,0.920880437,1,F,20,NaN,6,11
1,1,2,1,0.902832031,0,2,1,1,749.5117188,153.3203125,0.685058594,C I,1.142655252,1,F,20,NaN,6,12
1,1,1,1,0.774414063,1,1,1,0,632.8125,141.6015625,0.6328125,C,0.949967932,1,F,20,NaN,6,13
1,1,1,1,0.782714844,1,1,1,0,543.4570313,239.2578125,0.543457031,C,0.883742944,1,F,20,NaN,6,14
1,2,2,3,0.491699219,1,1,1,0,331.5429688,160.15625,0.331542969,C,1.293067725,1,F,20,NaN,6,15
1,2,2,3,0.587402344,1,1,1,0,445.8007813,141.6015625,0.445800781,C,1.016742774,1,F,20,NaN,6,16
1,1,1,2,0.6328125,1,1,1,0,424.3164063,208.4960938,0.424316406,C,0.859355448,1,F,20,NaN,6,17
1,1,1,2,1.003417969,1,2,2,0,884.765625,118.6523438,0.525390625,C C,1.155155395,1,F,20,NaN,6,18
1,1,1,2,1.188964844,1,3,3,0,890.625,298.3398438,0.429199219,C C C,1.029017918,1,F,20,NaN,6,19
1,2,2,3,0.46484375,1,NaN,NaN,NaN,NaN,NaN,NaN,NaN,NaN,0,F,20,NaN,6,20
1,1,1,2,0.693847656,1,NaN,NaN,NaN,NaN,NaN,NaN,NaN,NaN,0,F,20,NaN,6,21
1,2,2,4,0.418945313,1,NaN,NaN,NaN,NaN,NaN,NaN,NaN,NaN,0,F,20,NaN,6,22
1,2,2,4,0.431640625,1,NaN,NaN,NaN,NaN,NaN,NaN,NaN,NaN,0,F,20,NaN,6,23
1,1,1,1,0.889160156,1,NaN,NaN,NaN,NaN,NaN,NaN,NaN,NaN,0,F,20,NaN,6,24
1,1,1,1,1.107910156,1,NaN,NaN,NaN,NaN,NaN,NaN,NaN,NaN,0,F,20,NaN,6,25
1,1,1,1,0.910644531,1,2,2,0,643.5546875,267.0898438,0.360839844,C C,1.063892912,1,F,20,NaN,6,26
1,1,1,2,0.769042969,1,NaN,NaN,NaN,NaN,NaN,NaN,NaN,NaN,0,F,20,NaN,6,27
1,2,1,2,0.76171875,0,NaN,NaN,NaN,NaN,NaN,NaN,NaN,NaN,0,F,20,NaN,6,28
1,1,2,1,0.833007813,0,NaN,NaN,NaN,NaN,NaN,NaN,NaN,NaN,0,F,20,NaN,6,29
1,2,2,3,0.495605469,1,NaN,NaN,NaN,NaN,NaN,NaN,NaN,NaN,0,F,20,NaN,6,30
1,2,2,4,0.481933594,1,NaN,NaN,NaN,NaN,NaN,NaN,NaN,NaN,0,F,20,NaN,6,31
1,2,2,4,0.478515625,1,NaN,NaN,NaN,NaN,NaN,NaN,NaN,NaN,0,F,20,NaN,6,32
1,2,1,2,0.606445313,0,NaN,NaN,NaN,NaN,NaN,NaN,NaN,NaN,0,F,20,NaN,6,33
1,1,2,3,0.676269531,0,NaN,NaN,NaN,NaN,NaN,NaN,NaN,NaN,0,F,20,NaN,6,34
1,2,2,4,0.476074219,1,NaN,NaN,NaN,NaN,NaN,NaN,NaN,NaN,0,F,20,NaN,6,35
1,1,2,2,0.867675781,0,NaN,NaN,NaN,NaN,NaN,NaN,NaN,NaN,0,F,20,NaN,6,36
1,1,1,1,0.458984375,1,NaN,NaN,NaN,NaN,NaN,NaN,NaN,NaN,0,F,20,NaN,6,37
1,2,1,2,0.989257813,0,NaN,NaN,NaN,NaN,NaN,NaN,NaN,NaN,0,F,20,NaN,6,38
1,1,1,2,0.646972656,1,NaN,NaN,NaN,NaN,NaN,NaN,NaN,NaN,0,F,20,NaN,6,39
1,1,1,2,0.637207031,1,1,1,0,449.21875,187.9882813,0.44921875,C,0.945742933,1,F,20,NaN,6,40
1,2,2,1,0.706054688,1,NaN,NaN,NaN,NaN,NaN,NaN,NaN,NaN,0,F,20,NaN,6,41
1,2,2,3,0.5546875,1,NaN,NaN,NaN,NaN,NaN,NaN,NaN,NaN,0,F,20,NaN,6,42
1,1,2,1,0.694335938,0,NaN,NaN,NaN,NaN,NaN,NaN,NaN,NaN,0,F,20,NaN,6,43
1,1,1,2,1.08203125,1,NaN,NaN,NaN,NaN,NaN,NaN,NaN,NaN,0,F,20,NaN,6,44
1,1,1,1,0.520996094,1,1,1,0,330.5664063,190.4296875,0.330566406,C,1.068530411,1,F,20,NaN,6,45
1,2,1,1,0.733398438,0,1,0,1,531.7382813,201.6601563,0.531738281,I,0.983992926,1,F,20,NaN,6,46
1,2,2,4,0.540527344,1,NaN,NaN,NaN,NaN,NaN,NaN,NaN,NaN,0,F,20,NaN,6,47
1,2,2,4,0.495117188,1,NaN,NaN,NaN,NaN,NaN,NaN,NaN,NaN,0,F,20,NaN,6,48
1,1,1,1,0.866210938,1,1,1,0,603.0273438,263.1835938,0.603027344,C,1.001005423,1,F,20,NaN,6,49
1,2,2,2,0.591308594,1,NaN,NaN,NaN,NaN,NaN,NaN,NaN,NaN,0,F,20,NaN,6,50
1,2,2,4,0.517578125,1,NaN,NaN,NaN,NaN,NaN,NaN,NaN,NaN,0,F,20,NaN,6,51
1,2,2,4,0.597167969,1,NaN,NaN,NaN,NaN,NaN,NaN,NaN,NaN,0,F,20,NaN,6,52
1,1,1,1,0.690429688,1,NaN,NaN,NaN,NaN,NaN,NaN,NaN,NaN,0,F,20,NaN,6,53
1,2,1,1,1.16015625,0,1,0,1,364.2578125,795.8984375,0.364257813,I,0.84883045,1,F,20,NaN,6,54
1,2,2,4,0.499511719,1,2,1,1,368.6523438,130.859375,0.247558594,I C,1.126080255,1,F,20,NaN,6,55
1,1,2,1,0.7734375,0,NaN,NaN,NaN,NaN,NaN,NaN,NaN,NaN,0,F,20,NaN,6,56
1,1,1,1,0.848632813,1,1,1,0,664.0625,184.5703125,0.6640625,C,0.979267927,1,F,20,NaN,6,57
1,1,1,1,0.885742188,1,1,1,0,727.0507813,158.6914063,0.727050781,C,0.872980446,1,F,20,NaN,6,58
1,1,1,2,0.749511719,1,1,1,0,593.2617188,156.25,0.593261719,C,0.989442925,1,F,20,NaN,6,59
1,2,2,1,0.642089844,1,1,1,0,497.5585938,144.53125,0.497558594,C,0.904355294,1,F,20,NaN,6,60
1,2,2,2,0.607910156,1,2,1,1,479.4921875,128.4179688,0.204589844,I C,1.190080243,1,F,20,NaN,6,61
1,1,1,1,0.615234375,1,1,1,0,389.1601563,226.0742188,0.389160156,C,0.932042935,1,F,20,NaN,6,62
1,1,1,1,0.8671875,1,2,2,0,759.765625,107.421875,0.367675781,C C,1.118042902,1,F,20,NaN,6,63
1,2,2,3,0.543945313,1,1,1,0,367.1875,176.7578125,0.3671875,C,1.015905274,1,F,20,NaN,6,64
1,2,2,3,0.494628906,1,1,1,0,402.34375,92.28515625,0.40234375,C,1.103717759,1,F,20,NaN,6,65
1,2,1,1,0.61328125,0,3,0,3,476.0742188,137.2070313,0.245117188,I I I,1.152542896,1,F,20,NaN,6,66
1,1,1,1,0.454589844,1,1,1,0,301.7578125,152.8320313,0.301757813,C,0.977867927,1,F,20,NaN,6,67
1,2,2,2,0.545410156,1,1,1,0,353.515625,191.8945313,0.353515625,C,0.887055297,1,F,20,NaN,6,68
1,2,2,1,0.63671875,1,3,1,2,503.90625,132.8125,0.383789063,I I C,1.203305241,1,F,20,NaN,6,69
1,2,2,3,0.474121094,1,1,1,0,373.046875,101.0742188,0.373046875,C,1.238767735,1,F,20,NaN,6,70
1,2,2,1,0.671875,1,1,1,0,542.4804688,129.3945313,0.542480469,C,1.381142709,1,F,20,NaN,7,1
1,2,1,1,0.630859375,0,1,0,1,526.3671875,104.4921875,0.526367188,I,0.947680432,1,F,20,NaN,7,2
1,2,2,2,0.464355469,1,1,1,0,320.3125,144.0429688,0.3203125,C,1.415942703,1,F,20,NaN,7,3
1,2,2,3,0.486328125,1,1,1,0,341.796875,144.53125,0.341796875,C,1.590105172,1,F,20,NaN,7,4
1,2,2,3,0.478515625,1,1,1,0,346.6796875,131.8359375,0.346679688,C,1.234717735,1,F,20,NaN,7,5
1,1,1,3,0.701660156,1,1,1,0,541.015625,160.6445313,0.541015625,C,0.896692941,1,F,20,NaN,7,6
1,1,1,3,0.483886719,1,1,1,0,311.5234375,172.3632813,0.311523438,C,1.021817919,1,F,20,NaN,7,7
1,2,2,3,0.528808594,1,1,1,0,387.6953125,141.1132813,0.387695313,C,0.990355279,1,F,20,NaN,7,8
1,1,1,2,0.634277344,1,1,1,0,463.8671875,170.4101563,0.463867188,C,0.913880438,1,F,20,NaN,7,9
1,2,1,2,0.565917969,0,1,0,1,414.5507813,151.3671875,0.414550781,I,0.887992943,1,F,20,NaN,7,10
1,1,1,1,0.859863281,1,2,2,0,746.09375,113.7695313,0.402832031,C C,1.322017865,1,F,20,NaN,7,11
1,2,1,1,0.824707031,0,1,0,1,554.6875,270.0195313,0.5546875,I,0.892942942,1,F,20,NaN,7,12
1,2,NaN,0,NaN,NaN,NaN,NaN,NaN,NaN,NaN,NaN,NaN,NaN,0,F,20,NaN,7,13
1,1,2,0,0.5546875,0,2,1,1,457.5195313,97.16796875,0.318847656,C I,1.111317757,1,F,20,NaN,7,14
1,1,1,1,0.443847656,1,1,1,0,184.5703125,259.2773438,0.184570313,C,1.056980413,1,F,20,NaN,7,15
1,1,1,3,0.520996094,1,1,1,0,349.609375,171.3867188,0.349609375,C,0.973805428,1,F,20,NaN,7,16
1,1,1,2,0.530273438,1,1,1,0,311.5234375,218.75,0.311523438,C,0.941292933,1,F,20,NaN,7,17
1,1,1,2,0.610839844,1,1,1,0,387.6953125,223.1445313,0.387695313,C,0.968842929,1,F,20,NaN,7,18
1,1,2,1,0.5546875,0,1,0,1,384.765625,169.921875,0.384765625,I,1.114167757,1,F,20,NaN,7,19
1,1,2,1,0.810058594,0,1,0,1,641.1132813,168.9453125,0.641113281,I,1.003330277,1,F,20,NaN,7,20
1,2,1,1,0.487304688,0,1,0,1,298.828125,188.4765625,0.298828125,I,0.90558044,1,F,20,NaN,7,21
1,1,1,1,0.900390625,1,2,2,0,792.4804688,107.9101563,0.501953125,C C,1.151230396,1,F,20,NaN,7,22
1,2,1,0,0.811035156,0,1,0,1,660.6445313,150.390625,0.660644531,I,1.082442908,1,F,20,NaN,7,23
1,2,2,3,0.547363281,1,1,1,0,440.9179688,106.4453125,0.440917969,C,1.127092755,1,F,20,NaN,7,24
1,2,2,4,0.481933594,1,1,1,0,350.0976563,131.8359375,0.350097656,C,1.139992752,1,F,20,NaN,7,25
1,2,2,4,0.58203125,1,1,1,0,463.3789063,118.6523438,0.463378906,C,1.105480258,1,F,20,NaN,7,26
1,1,1,3,0.586914063,1,1,1,0,406.7382813,180.1757813,0.406738281,C,1.053455413,1,F,20,NaN,7,27
1,1,1,2,0.545898438,1,1,1,0,385.7421875,160.15625,0.385742188,C,1.022280419,1,F,20,NaN,7,28
1,2,1,2,0.581054688,0,1,0,1,333.0078125,248.046875,0.333007813,I,1.034480417,1,F,20,NaN,7,29
1,2,2,3,0.590332031,1,1,1,0,420.4101563,169.921875,0.420410156,C,0.968342783,1,F,20,NaN,7,30
1,1,1,1,0.649902344,1,1,1,0,344.2382813,305.6640625,0.344238281,C,1.164430394,1,F,20,NaN,7,31
1,1,1,1,0.4375,1,1,1,0,319.3359375,118.1640625,0.319335938,C,1.003142922,1,F,20,NaN,7,32
1,2,1,1,0.938964844,0,2,0,2,794.921875,144.0429688,0.449707031,I I,0.967642929,1,F,20,NaN,7,33
1,1,2,2,0.556640625,0,1,0,1,451.6601563,104.9804688,0.451660156,I,1.068280265,1,F,20,NaN,7,34
1,2,1,1,1.264160156,0,3,0,3,1095.214844,168.9453125,0.324707031,I I I,0.985542926,1,F,20,NaN,7,35
1,1,1,2,0.466796875,1,2,2,0,286.1328125,180.6640625,0.046386719,C C,1.036117917,1,F,20,NaN,7,36
1,2,2,1,0.579101563,1,2,1,1,430.6640625,148.4375,0.3359375,I C,1.019255274,1,F,20,NaN,7,37
1,2,1,1,0.717773438,0,3,0,3,518.0664063,199.7070313,0.319824219,I I I,0.935242935,1,F,20,NaN,7,38
1,1,1,1,0.727050781,1,3,3,0,622.5585938,104.4921875,0.465332031,C C C,0.990855425,1,F,20,NaN,7,39
1,2,2,3,0.610351563,1,1,1,0,486.8164063,123.5351563,0.486816406,C,1.022305273,1,F,20,NaN,7,40
1,1,2,2,0.599609375,0,1,0,1,476.0742188,123.5351563,0.476074219,I,1.068305265,1,F,20,NaN,7,41
1,2,1,1,0.686523438,0,1,0,1,559.5703125,126.953125,0.559570313,I,1.052730414,1,F,20,NaN,7,42
1,1,1,1,0.574707031,1,1,1,0,372.0703125,202.6367188,0.372070313,C,1.048417914,1,F,20,NaN,7,43
1,2,2,3,0.506347656,1,1,1,0,384.2773438,122.0703125,0.384277344,C,1.269405229,1,F,20,NaN,7,44
1,2,2,3,0.524902344,1,1,1,0,416.9921875,107.9101563,0.416992188,C,1.191030243,1,F,20,NaN,7,45
1,1,1,3,0.480957031,1,1,1,0,284.1796875,196.7773438,0.284179688,C,1.090192907,1,F,20,NaN,7,46
1,2,1,1,0.776855469,0,1,0,1,634.2773438,142.578125,0.634277344,I,0.941567933,1,F,20,NaN,7,47
1,1,2,2,0.588378906,0,1,0,1,474.609375,113.7695313,0.474609375,I,1.143380252,1,F,20,NaN,7,48
1,2,2,3,0.556152344,1,1,1,0,427.2460938,128.90625,0.427246094,C,1.135817753,1,F,20,NaN,7,49
1,2,2,3,0.576171875,1,1,1,0,423.3398438,152.8320313,0.423339844,C,1.15299275,1,F,20,NaN,7,50
1,1,1,2,0.5859375,1,1,1,0,399.4140625,186.5234375,0.399414063,C,0.954005431,1,F,20,NaN,7,51
1,2,2,3,0.623535156,1,1,1,0,533.203125,90.33203125,0.533203125,C,1.259142731,1,F,20,NaN,7,52
1,2,2,3,0.54296875,1,2,1,1,372.0703125,170.8984375,0.340820313,I C,1.156105249,1,F,20,NaN,7,53
1,1,1,0,0.604980469,1,2,2,0,462.890625,142.0898438,0.314453125,C C,1.011055421,1,F,20,NaN,7,54
1,2,2,3,0.688964844,1,2,1,1,545.8984375,143.0664063,0.501464844,I C,0.882792798,1,F,20,NaN,7,55
1,1,1,2,0.53515625,1,1,1,0,382.8125,152.34375,0.3828125,C,1.045342915,1,F,20,NaN,7,56
1,2,2,3,0.888183594,1,2,2,0,822.7539063,65.4296875,0.407226563,C C,1.719842649,1,F,20,NaN,7,57
1,1,1,3,0.735839844,1,2,2,0,504.3945313,231.4453125,0.39453125,C C,0.952755431,1,F,20,NaN,7,58
1,1,1,2,0.670898438,1,3,3,0,529.296875,141.6015625,0.345214844,C C C,0.994655424,1,F,20,NaN,7,59
1,2,1,1,0.656738281,0,1,0,1,416.9921875,239.7460938,0.416992188,I,1.076305409,1,F,20,NaN,7,60
1,1,1,1,0.556152344,1,1,1,0,388.671875,167.4804688,0.388671875,C,1.047655414,1,F,20,NaN,7,61
1,2,2,1,0.504882813,1,1,1,0,394.53125,110.3515625,0.39453125,C,1.215080239,1,F,20,NaN,7,62
1,1,1,1,0.665527344,1,1,1,0,516.6015625,148.9257813,0.516601563,C,0.950717932,1,F,20,NaN,7,63
1,2,2,2,0.607421875,1,1,1,0,470.703125,136.71875,0.470703125,C,0.98283028,1,F,20,NaN,7,64
1,2,2,3,0.575195313,1,1,1,0,455.5664063,119.6289063,0.455566406,C,1.164655248,1,F,20,NaN,7,65
1,1,2,0,0.752441406,0,3,2,1,643.5546875,108.8867188,0.385253906,C C I,0.975167782,1,F,20,NaN,7,66
1,2,1,2,0.534179688,0,2,0,2,434.0820313,100.0976563,0.3828125,I I,1.215242884,1,F,20,NaN,7,67
1,1,1,1,0.538085938,1,1,1,0,386.71875,151.3671875,0.38671875,C,1.077442909,1,F,20,NaN,7,68
1,1,1,3,0.497070313,1,1,1,0,337.890625,159.1796875,0.337890625,C,1.18515539,1,F,20,NaN,7,69
1,2,2,4,0.553710938,1,1,1,0,444.3359375,109.375,0.444335938,C,1.533030182,1,F,20,NaN,7,70
1,1,1,1,0.813964844,1,1,1,0,659.6679688,154.296875,0.659667969,C,1.005517922,1,F,20,NaN,8,1
1,2,2,3,0.62109375,1,1,1,0,508.3007813,112.7929688,0.508300781,C,1.216855238,1,F,20,NaN,8,2
1,1,1,2,0.520996094,1,1,1,0,369.140625,151.8554688,0.369140625,C,1.013355421,1,F,20,NaN,8,3
1,2,1,2,0.42578125,0,1,0,1,285.6445313,140.1367188,0.285644531,I,1.052367914,1,F,20,NaN,8,4
1,2,1,0,0.655761719,0,1,0,1,518.0664063,137.6953125,0.518066406,I,0.954517931,1,F,20,NaN,8,5
1,1,1,2,0.565429688,1,1,1,0,433.1054688,132.3242188,0.433105469,C,0.936405434,1,F,20,NaN,8,6
1,1,2,1,0.529296875,0,1,0,1,332.5195313,196.7773438,0.332519531,I,1.03799277,1,F,20,NaN,8,7
1,2,2,1,0.592773438,1,3,1,2,411.1328125,181.640625,0.2578125,I I C,1.091017761,1,F,20,NaN,8,8
1,1,1,1,0.637695313,1,3,3,0,515.625,122.0703125,0.224121094,C C C,1.042730415,1,F,20,NaN,8,9
1,2,1,1,0.53515625,0,1,0,1,374.0234375,161.1328125,0.374023438,I,0.975517927,1,F,20,NaN,8,10
1,2,2,3,0.516113281,1,1,1,0,406.7382813,109.375,0.406738281,C,1.651067661,1,F,20,NaN,8,11
1,1,1,1,0.653320313,1,2,2,0,530.7617188,122.5585938,0.438476563,C C,1.040130416,1,F,20,NaN,8,12
1,2,2,2,0.901855469,1,2,1,1,761.71875,140.1367188,0.41015625,I C,1.359530213,1,F,20,NaN,8,13
1,1,1,1,1.032714844,1,2,2,0,941.40625,91.30859375,0.608398438,C C,1.175117892,1,F,20,NaN,8,14
1,1,1,1,0.671386719,1,1,1,0,513.1835938,158.203125,0.513183594,C,1.051205414,1,F,20,NaN,8,15
1,2,2,2,0.598144531,1,1,1,0,466.3085938,131.8359375,0.466308594,C,1.054417768,1,F,20,NaN,8,16
1,2,2,2,1.036621094,1,2,2,0,927.2460938,109.375,0.53515625,C C,1.213992739,1,F,20,NaN,8,17
1,1,1,1,0.662597656,1,1,1,0,487.3046875,175.2929688,0.487304688,C,0.843767951,1,F,20,NaN,8,18
1,2,2,2,0.892089844,1,2,2,0,803.2226563,88.8671875,0.478515625,C C,1.462717695,1,F,20,NaN,8,19
1,1,1,2,0.565917969,1,1,1,0,420.8984375,145.0195313,0.420898438,C,1.021005419,1,F,20,NaN,8,20
1,2,2,1,0.646972656,1,1,1,0,533.6914063,113.28125,0.533691406,C,1.021105273,1,F,20,NaN,8,21
1,2,2,2,0.87890625,1,4,2,2,801.7578125,77.1484375,0.310546875,I I C C,1.134092753,1,F,20,NaN,8,22
1,2,2,1,0.676757813,1,1,1,0,548.3398438,128.4179688,0.548339844,C,1.071767764,1,F,20,NaN,8,23
1,2,1,1,0.485351563,0,3,0,3,360.8398438,124.5117188,0.174316406,I I I,1.029592918,1,F,20,NaN,8,24
1,2,1,1,1.104980469,0,2,0,2,971.6796875,133.3007813,0.579101563,I I,0.979967927,1,F,20,NaN,8,25
1,1,2,1,0.903320313,0,1,0,1,802.2460938,101.0742188,0.802246094,I,1.259730231,1,F,20,NaN,8,26
1,1,2,1,0.573730469,0,1,0,1,438.4765625,135.2539063,0.438476563,I,0.973980282,1,F,20,NaN,8,27
1,2,1,2,0.51171875,0,1,0,1,313.4765625,198.2421875,0.313476563,I,1.01613042,1,F,20,NaN,8,28
1,2,2,1,0.651855469,1,1,1,0,544.4335938,107.421875,0.544433594,C,1.145830251,1,F,20,NaN,8,29
1,1,2,1,0.70703125,0,1,0,1,585.4492188,121.5820313,0.585449219,I,1.143330252,1,F,20,NaN,8,30
1,2,1,2,0.717285156,0,1,0,1,584.4726563,132.8125,0.584472656,I,0.954255431,1,F,20,NaN,8,31
1,2,2,2,0.6484375,1,1,1,0,522.9492188,125.4882813,0.522949219,C,1.129180254,1,F,20,NaN,8,32
1,2,2,2,1.15234375,1,2,2,0,1074.21875,78.125,0.708007813,C C,1.603742669,1,F,20,NaN,8,33
1,1,1,2,0.814453125,1,3,2,1,660.6445313,153.8085938,0.221191406,C I C,1.18573039,1,F,20,NaN,8,34
1,2,1,1,0.729003906,0,1,0,1,598.6328125,130.3710938,0.598632813,I,1.088417907,1,F,20,NaN,8,35
1,1,1,1,0.627929688,1,1,1,0,462.4023438,165.5273438,0.462402344,C,0.947167932,1,F,20,NaN,8,36
1,1,1,1,0.637695313,1,1,1,0,519.0429688,118.6523438,0.519042969,C,1.047817914,1,F,20,NaN,8,37
1,1,1,1,0.816894531,1,2,2,0,619.140625,197.7539063,0.461425781,C C,0.853930449,1,F,20,NaN,8,38
1,2,2,2,0.747070313,1,1,1,0,598.1445313,148.9257813,0.598144531,C,0.964742784,1,F,20,NaN,8,39
1,2,1,1,0.902832031,0,1,0,1,726.0742188,176.7578125,0.726074219,I,0.90368044,1,F,20,NaN,8,40
1,2,2,3,0.767089844,1,2,1,1,640.625,126.4648438,0.513183594,I C,1.146430251,1,F,20,NaN,8,41
1,2,2,2,0.643066406,1,1,1,0,531.25,111.8164063,0.53125,C,1.26715523,1,F,20,NaN,8,42
1,1,1,1,0.564453125,1,3,3,0,406.25,158.203125,0.169921875,C C C,0.917230438,1,F,20,NaN,8,43
1,1,1,3,0.659667969,1,1,1,0,504.8828125,154.7851563,0.504882813,C,1.064780411,1,F,20,NaN,8,44
1,1,1,3,0.670898438,1,1,1,0,499.5117188,171.3867188,0.499511719,C,1.088267907,1,F,20,NaN,8,45
1,1,2,0,0.771972656,0,2,1,1,622.0703125,149.9023438,0.45703125,C I,1.031617772,1,F,20,NaN,8,46
1,1,1,3,0.477050781,1,2,2,0,308.1054688,168.9453125,0.0859375,C C,1.089305407,1,F,20,NaN,8,47
1,1,1,2,0.830566406,1,1,1,0,627.4414063,203.125,0.627441406,C,1.001405423,1,F,20,NaN,8,48
1,2,2,4,0.534179688,1,1,1,0,406.7382813,127.4414063,0.406738281,C,1.086955262,1,F,20,NaN,8,49
1,2,1,1,0.966796875,0,3,0,3,878.90625,87.890625,0.468261719,I I I,1.18720539,1,F,20,NaN,8,50
1,2,2,4,0.618164063,1,1,1,0,514.1601563,104.0039063,0.514160156,C,1.238605235,1,F,20,NaN,8,51
1,2,2,4,0.610839844,1,1,1,0,490.234375,120.6054688,0.490234375,C,1.112692757,1,F,20,NaN,8,52
1,2,2,2,0.747070313,1,1,1,0,622.5585938,124.5117188,0.622558594,C,1.03979277,1,F,20,NaN,8,53
1,1,1,1,0.711425781,1,1,1,0,532.7148438,178.7109375,0.532714844,C,0.973005428,1,F,20,NaN,8,54
1,2,2,3,0.717773438,1,2,1,1,607.421875,110.3515625,0.444335938,I C,1.080630263,1,F,20,NaN,8,55
1,2,2,3,0.614257813,1,1,1,0,478.515625,135.7421875,0.478515625,C,0.981392781,1,F,20,NaN,8,56
1,2,2,3,0.495117188,1,1,1,0,369.140625,125.9765625,0.369140625,C,0.944755287,1,F,20,NaN,8,57
1,2,1,0,0.594238281,0,1,0,1,417.4804688,176.7578125,0.417480469,I,0.873030446,1,F,20,NaN,8,58
1,1,1,1,0.701660156,1,1,1,0,550.78125,150.8789063,0.55078125,C,0.912367939,1,F,20,NaN,8,59
1,2,2,2,0.767089844,1,2,1,1,627.4414063,139.6484375,0.548828125,I C,0.903767794,1,F,20,NaN,8,60
1,1,1,1,0.730957031,1,1,1,0,478.0273438,252.9296875,0.478027344,C,0.855317949,1,F,20,NaN,8,61
1,2,2,3,0.494628906,1,1,1,0,371.5820313,123.046875,0.371582031,C,1.248292733,1,F,20,NaN,8,62
1,1,1,2,0.659179688,1,1,1,0,475.5859375,183.59375,0.475585938,C,0.944680433,1,F,20,NaN,8,63
1,1,1,1,0.645996094,1,1,1,0,466.3085938,179.6875,0.466308594,C,0.898992941,1,F,20,NaN,8,64
1,2,2,2,0.648925781,1,2,1,1,509.765625,139.1601563,0.308105469,I C,0.975517782,1,F,20,NaN,8,65
1,1,1,1,0.615234375,1,3,3,0,438.9648438,176.2695313,0.228027344,C C C,0.947955432,1,F,20,NaN,8,66
1,1,1,1,0.765625,1,1,1,0,620.1171875,145.5078125,0.620117188,C,0.870580446,1,F,20,NaN,8,67
1,1,1,1,0.638671875,1,1,1,0,467.7734375,170.8984375,0.467773438,C,0.925780436,1,F,20,NaN,8,68
1,1,1,2,0.540039063,1,1,1,0,305.6640625,234.375,0.305664063,C,1.150380396,1,F,20,NaN,8,69
1,1,1,1,0.711914063,1,1,1,0,460.4492188,251.4648438,0.460449219,C,1.013117921,1,F,20,NaN,8,70
1,2,2,3,0.858886719,1,1,1,0,743.1640625,115.7226563,0.743164063,C,1.269117729,1,F,20,NaN,9,1
1,2,2,4,0.555175781,1,1,1,0,402.8320313,152.34375,0.402832031,C,1.344042716,1,F,20,NaN,9,2
1,2,2,4,0.526855469,1,2,1,1,390.625,136.2304688,0.274414063,I C,0.991592779,1,F,20,NaN,9,3
1,1,1,0,0.653808594,1,1,1,0,402.8320313,250.9765625,0.402832031,C,0.861692948,1,F,20,NaN,9,4
1,2,1,2,0.546875,0,1,0,1,410.15625,136.71875,0.41015625,I,1.048992914,1,F,20,NaN,9,5
1,2,2,3,0.724609375,1,1,1,0,582.5195313,142.0898438,0.582519531,C,1.180742745,1,F,20,NaN,9,6
1,2,2,3,0.619140625,1,1,1,0,469.7265625,149.4140625,0.469726563,C,1.046505269,1,F,20,NaN,9,7
1,2,1,3,0.638671875,0,1,0,1,414.0625,224.609375,0.4140625,I,0.974605428,1,F,20,NaN,9,8
1,2,1,1,0.868164063,0,1,0,1,693.359375,174.8046875,0.693359375,I,0.877630445,1,F,20,NaN,9,9
1,1,2,4,0.779296875,0,1,0,1,630.859375,148.4375,0.630859375,I,0.917455292,1,F,20,NaN,9,10
1,1,1,4,0.736816406,1,1,1,0,555.1757813,181.640625,0.555175781,C,0.870130446,1,F,20,NaN,9,11
1,1,1,2,0.996582031,1,2,2,0,870.6054688,125.9765625,0.500976563,C C,1.001867923,1,F,20,NaN,9,12
1,1,1,3,0.659667969,1,1,1,0,540.0390625,119.6289063,0.540039063,C,1.209180386,1,F,20,NaN,9,13
1,1,1,2,0.926757813,1,2,2,0,804.6875,122.0703125,0.4375,C C,1.058342913,1,F,20,NaN,9,14
1,2,2,4,0.53125,1,1,1,0,395.9960938,135.2539063,0.395996094,C,1.355067714,1,F,20,NaN,9,15
1,1,1,1,0.760742188,1,3,3,0,620.6054688,140.1367188,0.358398438,C C C,1.043092915,1,F,20,NaN,9,16
1,2,2,4,0.556640625,1,1,1,0,429.6875,126.953125,0.4296875,C,1.222730237,1,F,20,NaN,9,17
1,2,2,4,0.544433594,1,1,1,0,421.3867188,123.046875,0.421386719,C,1.112392757,1,F,20,NaN,9,18
1,2,2,4,0.513183594,1,1,1,0,385.2539063,127.9296875,0.385253906,C,1.123617755,1,F,20,NaN,9,19
1,1,1,1,0.638671875,1,3,3,0,514.1601563,124.5117188,0.268066406,C C C,0.963805429,1,F,20,NaN,9,20
1,1,1,2,1.057128906,1,2,2,0,891.6015625,165.5273438,0.569824219,C C,1.001342923,1,F,20,NaN,9,21
1,2,2,3,0.555664063,1,1,1,0,436.0351563,119.6289063,0.436035156,C,1.213492739,1,F,20,NaN,9,22
1,1,1,1,0.843261719,1,1,1,0,705.5664063,137.6953125,0.705566406,C,1.18254289,1,F,20,NaN,9,23
1,1,1,3,0.642089844,1,1,1,0,520.9960938,121.09375,0.520996094,C,1.094742906,1,F,20,NaN,9,24
1,1,1,1,0.765136719,1,1,1,0,581.5429688,183.59375,0.581542969,C,0.954605431,1,F,20,NaN,9,25
1,2,2,4,0.592285156,1,1,1,0,453.125,139.1601563,0.453125,C,1.070667765,1,F,20,NaN,9,26
1,1,1,3,0.571289063,1,1,1,0,451.171875,120.1171875,0.451171875,C,1.07291791,1,F,20,NaN,9,27
1,2,1,1,0.666992188,0,1,0,1,449.7070313,217.2851563,0.449707031,I,0.920317937,1,F,20,NaN,9,28
1,2,2,4,0.538085938,1,1,1,0,421.3867188,116.6992188,0.421386719,C,1.203955241,1,F,20,NaN,9,29
1,1,1,3,0.954101563,1,5,5,0,852.0507813,102.0507813,0.336425781,C C C C C,0.914255438,1,F,20,NaN,9,30
1,1,1,2,0.970703125,1,2,2,0,871.5820313,99.12109375,0.54296875,C C,0.938505434,1,F,20,NaN,9,31
1,1,1,4,0.673828125,1,1,1,0,516.1132813,157.7148438,0.516113281,C,0.947080432,1,F,20,NaN,9,32
1,2,1,2,0.691894531,0,1,0,1,546.875,145.0195313,0.546875,I,1.000017923,1,F,20,NaN,9,33
1,2,2,4,0.673339844,1,1,1,0,536.6210938,136.71875,0.536621094,C,1.242392734,1,F,20,NaN,9,34
1,1,1,3,0.543945313,1,1,1,0,363.28125,180.6640625,0.36328125,C,1.051617914,1,F,20,NaN,9,35
1,1,1,1,0.811035156,1,1,1,0,620.1171875,190.9179688,0.620117188,C,1.031992917,1,F,20,NaN,9,36
1,1,1,2,0.806640625,1,1,1,0,620.6054688,186.0351563,0.620605469,C,0.924005437,1,F,20,NaN,9,37
1,2,1,2,0.795410156,0,2,0,2,662.109375,133.3007813,0.509765625,I I,1.044367915,1,F,20,NaN,9,38
1,1,1,3,0.935546875,1,3,2,1,868.1640625,67.3828125,0.583007813,C I C,1.019655419,1,F,20,NaN,9,39
1,2,2,3,0.830078125,1,1,1,0,725.0976563,104.9804688,0.725097656,C,1.244305234,1,F,20,NaN,9,40
1,2,1,1,0.824707031,0,1,0,1,656.7382813,167.96875,0.656738281,I,0.894180442,1,F,20,NaN,9,41
1,2,2,4,0.572265625,1,1,1,0,384.765625,187.5,0.384765625,C,1.165455248,1,F,20,NaN,9,42
1,1,1,4,0.579101563,1,1,1,0,409.1796875,169.921875,0.409179688,C,0.976030427,1,F,20,NaN,9,43
1,1,1,2,1.16796875,1,2,2,0,1090.820313,77.1484375,0.715820313,C C,1.307792868,1,F,20,NaN,9,44
1,1,1,1,0.995605469,1,2,2,0,868.1640625,127.4414063,0.446289063,C C,0.884017944,1,F,20,NaN,9,45
1,2,2,4,0.504882813,1,1,1,0,370.1171875,134.765625,0.370117188,C,1.156855249,1,F,20,NaN,9,46
1,1,2,2,0.913085938,0,2,0,2,843.75,69.3359375,0.485839844,I I,1.396267706,1,F,20,NaN,9,47
1,2,2,4,0.546386719,1,1,1,0,449.21875,97.16796875,0.44921875,C,1.4317302,1,F,20,NaN,9,48
1,1,1,3,0.586914063,1,2,2,0,472.65625,114.2578125,0.319335938,C C,0.95981793,1,F,20,NaN,9,49
1,2,1,1,0.689453125,0,1,0,1,501.953125,187.5,0.501953125,I,0.953180431,1,F,20,NaN,9,50
1,2,2,4,0.596191406,1,2,1,1,493.1640625,103.0273438,0.362792969,I C,1.019717774,1,F,20,NaN,9,51
1,1,2,3,0.832519531,0,2,0,2,742.6757813,89.84375,0.386230469,I I,1.082530263,1,F,20,NaN,9,52
1,2,2,1,0.622558594,1,NaN,NaN,NaN,NaN,NaN,NaN,NaN,NaN,0,F,20,NaN,9,53
1,2,1,0,0.521484375,0,2,0,2,367.6757813,153.8085938,0.265136719,I I,1.008730421,1,F,20,NaN,9,54
1,1,1,3,0.521484375,1,1,1,0,392.0898438,129.3945313,0.392089844,C,0.999817923,1,F,20,NaN,9,55
1,2,2,4,0.560546875,1,1,1,0,424.3164063,136.2304688,0.424316406,C,1.146567751,1,F,20,NaN,9,56
1,2,2,4,0.501464844,1,1,1,0,375,126.4648438,0.375,C,1.183642744,1,F,20,NaN,9,57
1,1,1,3,0.650390625,1,1,1,0,426.7578125,223.6328125,0.426757813,C,0.84878045,1,F,20,NaN,9,58
1,2,2,2,0.622070313,1,1,1,0,468.75,153.3203125,0.46875,C,0.918980292,1,F,20,NaN,9,59
1,1,1,1,0.919921875,1,2,2,0,769.53125,150.390625,0.469238281,C C,1.106830404,1,F,20,NaN,9,60
1,1,1,4,0.575683594,1,2,2,0,444.8242188,130.859375,0.213867188,C C,0.957667931,1,F,20,NaN,9,61
1,1,1,2,0.484863281,1,1,1,0,296.875,187.9882813,0.296875,C,1.047055415,1,F,20,NaN,9,62
1,2,2,1,0.654785156,1,1,1,0,507.3242188,147.4609375,0.507324219,C,0.98224278,1,F,20,NaN,9,63
1,2,2,3,0.578613281,1,1,1,0,471.6796875,106.9335938,0.471679688,C,1.195467742,1,F,20,NaN,9,64
1,2,1,1,0.545898438,0,1,0,1,328.6132813,217.2851563,0.328613281,I,0.901742941,1,F,20,NaN,9,65
1,2,2,4,0.708496094,1,1,1,0,591.3085938,117.1875,0.591308594,C,1.135505253,1,F,20,NaN,9,66
1,2,2,4,0.53125,1,1,1,0,410.15625,121.09375,0.41015625,C,1.225730237,1,F,20,NaN,9,67
1,2,2,4,0.67578125,1,3,1,2,579.5898438,96.19140625,0.315429688,I I C,1.313105221,1,F,20,NaN,9,68
1,1,1,1,0.573242188,1,2,2,0,381.8359375,191.40625,0.277832031,C C,0.976367927,1,F,20,NaN,9,69
1,1,2,0,0.728027344,0,2,1,1,622.5585938,105.46875,0.303710938,C I,0.92681779,1,F,20,NaN,9,70
1,1,1,1,0.84765625,1,1,1,0,709.9609375,137.6953125,0.709960938,C,1.189042889,1,F,20,NaN,10,1
1,1,2,3,0.645507813,0,1,0,1,527.8320313,117.6757813,0.527832031,I,1.252167732,1,F,20,NaN,10,2
1,2,2,3,0.494628906,1,1,1,0,363.28125,131.3476563,0.36328125,C,1.366905212,1,F,20,NaN,10,3
1,2,2,2,1.263671875,1,3,3,0,1096.679688,166.9921875,0.575683594,C C C,1.728592647,1,F,20,NaN,10,4
1,1,1,4,0.646484375,1,NaN,NaN,NaN,NaN,NaN,NaN,NaN,NaN,0,F,20,NaN,10,5
1,2,1,2,0.545410156,0,NaN,NaN,NaN,NaN,NaN,NaN,NaN,NaN,0,F,20,NaN,10,6
1,1,1,4,0.671386719,1,NaN,NaN,NaN,NaN,NaN,NaN,NaN,NaN,0,F,20,NaN,10,7
1,2,2,1,0.873535156,1,2,2,0,776.3671875,97.16796875,0.68359375,C C,1.15513025,1,F,20,NaN,10,8
1,1,2,3,0.520507813,0,1,0,1,415.0390625,105.46875,0.415039063,I,1.341380216,1,F,20,NaN,10,9
1,1,1,3,0.599609375,1,1,1,0,426.2695313,173.3398438,0.426269531,C,0.945642933,1,F,20,NaN,10,10
1,1,1,4,0.479492188,1,1,1,0,337.890625,141.6015625,0.337890625,C,1.066267911,1,F,20,NaN,10,11
1,1,1,1,0.685058594,1,1,1,0,574.21875,110.8398438,0.57421875,C,1.208192886,1,F,20,NaN,10,12
1,1,2,4,0.740234375,0,1,0,1,635.7421875,104.4921875,0.635742188,I,1.364417712,1,F,20,NaN,10,13
1,1,1,2,1.031738281,1,2,1,1,919.4335938,112.3046875,0.38671875,I C,1.050205414,1,F,20,NaN,10,14
1,2,2,4,0.634765625,1,1,1,0,537.109375,97.65625,0.537109375,C,1.584730173,1,F,20,NaN,10,15
1,2,2,4,0.487304688,1,1,1,0,390.625,96.6796875,0.390625,C,1.568980176,1,F,20,NaN,10,16
1,2,2,4,0.474609375,1,1,1,0,349.609375,125,0.349609375,C,1.15428025,1,F,20,NaN,10,17
1,1,1,3,0.536621094,1,1,1,0,395.9960938,140.625,0.395996094,C,0.934230435,1,F,20,NaN,10,18
1,1,1,3,0.918457031,1,2,2,0,826.171875,92.28515625,0.449707031,C C,1.07439291,1,F,20,NaN,10,19
1,1,1,4,0.606933594,1,1,1,0,481.9335938,125,0.481933594,C,0.907655439,1,F,20,NaN,10,20
1,1,1,4,0.616210938,1,1,1,0,472.1679688,144.0429688,0.472167969,C,0.911942939,1,F,20,NaN,10,21
1,2,2,4,0.877441406,1,4,1,3,802.734375,74.70703125,0.370117188,I I I C,1.652817661,1,F,20,NaN,10,22
1,1,1,2,0.520019531,1,2,2,0,402.8320313,117.1875,0.334960938,C C,1.116642902,1,F,20,NaN,10,23
1,2,2,4,0.59375,1,1,1,0,483.3984375,110.3515625,0.483398438,C,1.26159273,1,F,20,NaN,10,24
1,1,1,3,0.790527344,1,1,1,0,659.6679688,130.859375,0.659667969,C,0.948167932,1,F,20,NaN,10,25
1,2,2,4,0.52734375,1,1,1,0,431.640625,95.703125,0.431640625,C,1.280992727,1,F,20,NaN,10,26
1,2,2,4,0.515136719,1,1,1,0,408.203125,106.9335938,0.408203125,C,1.138705252,1,F,20,NaN,10,27
1,1,1,4,1.177734375,1,2,2,0,1085.9375,91.796875,0.758300781,C C,1.141505398,1,F,20,NaN,10,28
1,2,2,4,0.563964844,1,1,1,0,458.0078125,105.9570313,0.458007813,C,1.168267747,1,F,20,NaN,10,29
1,1,1,3,0.633789063,1,1,1,0,508.3007813,125.4882813,0.508300781,C,1.083430408,1,F,20,NaN,10,30
1,1,1,4,0.631347656,1,1,1,0,506.3476563,125,0.506347656,C,1.008942921,1,F,20,NaN,10,31
1,2,2,1,1.139160156,1,2,2,0,1024.414063,114.7460938,0.733398438,C C,1.169467747,1,F,20,NaN,10,32
1,1,2,0,0.556640625,0,1,0,1,438.9648438,117.6757813,0.438964844,I,1.349830215,1,F,20,NaN,10,33
1,2,1,2,0.6328125,0,1,0,1,516.6015625,116.2109375,0.516601563,I,0.979755427,1,F,20,NaN,10,34
1,2,2,1,0.749023438,1,1,1,0,652.8320313,96.19140625,0.652832031,C,1.128567754,1,F,20,NaN,10,35
1,2,2,4,0.553222656,1,1,1,0,442.8710938,110.3515625,0.442871094,C,1.260342731,1,F,20,NaN,10,36
1,1,1,4,0.604492188,1,1,1,0,455.078125,149.4140625,0.455078125,C,1.07313041,1,F,20,NaN,10,37
1,2,2,4,0.505859375,1,1,1,0,383.7890625,122.0703125,0.383789063,C,1.113130257,1,F,20,NaN,10,38
1,2,1,1,0.818847656,0,1,0,1,623.5351563,195.3125,0.623535156,I,0.862417948,1,F,20,NaN,10,39
1,2,2,3,0.713378906,1,2,1,1,630.3710938,83.0078125,0.358886719,I C,1.366767712,1,F,20,NaN,10,40
1,1,1,2,0.711425781,1,1,1,0,509.765625,201.6601563,0.509765625,C,0.908342939,1,F,20,NaN,10,41
1,1,1,1,0.725585938,1,1,1,0,536.6210938,188.9648438,0.536621094,C,0.90343044,1,F,20,NaN,10,42
1,1,2,1,0.741699219,0,1,0,1,581.0546875,160.6445313,0.581054688,I,1.061730266,1,F,20,NaN,10,43
1,2,2,3,0.703125,1,1,1,0,555.6640625,147.4609375,0.555664063,C,1.033567771,1,F,20,NaN,10,44
1,1,1,1,0.65234375,1,1,1,0,486.328125,166.015625,0.486328125,C,0.955467931,1,F,20,NaN,10,45
1,2,2,4,0.63671875,1,1,1,0,497.0703125,139.6484375,0.497070313,C,0.960530284,1,F,20,NaN,10,46
1,1,1,1,0.600585938,1,1,1,0,446.7773438,153.8085938,0.446777344,C,0.950967932,1,F,20,NaN,10,47
1,1,2,1,0.561035156,0,1,0,1,446.2890625,114.7460938,0.446289063,I,1.15471775,1,F,20,NaN,10,48
1,2,2,4,0.566894531,1,1,1,0,461.9140625,104.9804688,0.461914063,C,1.087717762,1,F,20,NaN,10,49
1,2,2,4,0.572265625,1,1,1,0,435.546875,136.71875,0.435546875,C,0.920780291,1,F,20,NaN,10,50
1,1,1,4,0.500976563,1,1,1,0,371.5820313,129.3945313,0.371582031,C,0.999105423,1,F,20,NaN,10,51
1,2,1,1,0.73046875,0,1,0,1,609.375,121.09375,0.609375,I,0.966567929,1,F,20,NaN,10,52
1,1,1,1,0.55078125,1,1,1,0,421.875,128.90625,0.421875,C,1.003992922,1,F,20,NaN,10,53
1,2,2,3,0.635253906,1,1,1,0,499.5117188,135.7421875,0.499511719,C,1.079205263,1,F,20,NaN,10,54
1,1,1,4,0.528808594,1,1,1,0,400.390625,128.4179688,0.400390625,C,1.176167891,1,F,20,NaN,10,55
1,1,1,4,0.710449219,1,1,1,0,610.8398438,99.609375,0.610839844,C,1.148130396,1,F,20,NaN,10,56
1,1,1,4,0.812011719,1,2,2,0,713.3789063,98.6328125,0.381347656,C C,1.061942912,1,F,20,NaN,10,57
1,1,1,1,0.907714844,1,4,4,0,764.6484375,143.0664063,0.342773438,C C C C,0.893455442,1,F,20,NaN,10,58
1,2,2,4,0.538574219,1,1,1,0,400.8789063,137.6953125,0.400878906,C,0.909392793,1,F,20,NaN,10,59
1,2,2,2,0.660644531,1,1,1,0,537.5976563,123.046875,0.537597656,C,0.942280288,1,F,20,NaN,10,60
1,1,1,4,0.81640625,1,2,2,0,719.2382813,97.16796875,0.372070313,C C,1.009092921,1,F,20,NaN,10,61
1,2,1,4,0.801757813,0,2,0,2,662.109375,139.6484375,0.244140625,I I,0.974417928,1,F,20,NaN,10,62
1,1,1,3,0.571777344,1,1,1,0,406.7382813,165.0390625,0.406738281,C,0.858767948,1,F,20,NaN,10,63
1,2,2,3,0.5234375,1,1,1,0,387.6953125,135.7421875,0.387695313,C,1.191405243,1,F,20,NaN,10,64
1,1,1,1,0.597167969,1,1,1,0,381.8359375,215.3320313,0.381835938,C,0.973867928,1,F,20,NaN,10,65
1,1,1,4,0.596679688,1,1,1,0,433.1054688,163.5742188,0.433105469,C,1.067017911,1,F,20,NaN,10,66
1,1,1,1,0.57421875,1,1,1,0,422.3632813,151.8554688,0.422363281,C,0.992705424,1,F,20,NaN,10,67
1,1,1,3,0.559570313,1,1,1,0,415.0390625,144.53125,0.415039063,C,0.987717925,1,F,20,NaN,10,68
1,1,1,1,0.913574219,1,1,1,0,739.7460938,173.828125,0.739746094,C,0.84821795,1,F,20,NaN,10,69
1,2,2,3,0.490234375,1,1,1,0,342.2851563,147.9492188,0.342285156,C,1.171705247,1,F,20,NaN,10,70
2,1,2,2,0.662597656,0,NaN,NaN,NaN,NaN,NaN,NaN,NaN,NaN,0,H,20,NaN,1,1
2,2,2,1,0.714355469,1,NaN,NaN,NaN,NaN,NaN,NaN,NaN,NaN,0,H,20,NaN,1,2
2,1,1,2,0.916503906,1,1,1,0,620.1171875,296.3867188,0.620117188,C,1.07169291,1,H,20,NaN,1,3
2,2,2,2,0.873046875,1,NaN,NaN,NaN,NaN,NaN,NaN,NaN,NaN,0,H,20,NaN,1,4
2,2,2,1,0.990234375,1,1,1,0,879.3945313,110.8398438,0.879394531,C,1.086505262,1,H,20,NaN,1,5
2,2,2,1,0.861328125,1,1,1,0,728.515625,132.8125,0.728515625,C,0.92924279,1,H,20,NaN,1,6
2,1,1,2,0.966796875,1,NaN,NaN,NaN,NaN,NaN,NaN,NaN,NaN,0,H,20,NaN,1,7
2,2,2,2,1.085449219,1,2,2,0,947.265625,138.1835938,0.742675781,C C,1.190630243,1,H,20,NaN,1,8
2,1,2,2,0.90234375,0,1,0,1,745.1171875,157.2265625,0.745117188,I,1.033642771,1,H,20,NaN,1,9
2,2,2,1,1.157714844,1,2,1,1,1020.019531,137.6953125,0.500488281,I C,1.09694276,1,H,20,NaN,1,10
2,2,2,1,0.9140625,1,1,1,0,771.9726563,142.0898438,0.771972656,C,0.978230281,1,H,20,NaN,1,11
2,2,2,3,1.383789063,1,2,1,1,1198.730469,185.0585938,0.755371094,I C,1.015330275,1,H,20,NaN,1,12
2,1,1,2,0.830566406,1,2,2,0,685.546875,145.0195313,0.620117188,C C,0.929442936,1,H,20,NaN,1,13
2,1,1,1,1.408203125,1,NaN,NaN,NaN,NaN,NaN,NaN,NaN,NaN,0,H,20,NaN,1,14
2,1,2,1,1.418457031,0,5,3,2,1262.695313,155.7617188,0.680664063,C C C I I,0.967742783,1,H,20,NaN,1,15
2,1,1,1,1.309570313,1,NaN,NaN,NaN,NaN,NaN,NaN,NaN,NaN,0,H,20,NaN,1,16
2,2,1,3,1.430175781,0,NaN,NaN,NaN,NaN,NaN,NaN,NaN,NaN,0,H,20,NaN,1,17
2,1,1,3,0.802734375,1,1,1,0,704.5898438,98.14453125,0.704589844,C,1.044580415,1,H,20,NaN,1,18
2,2,NaN,4,NaN,NaN,NaN,NaN,NaN,NaN,NaN,NaN,NaN,NaN,0,H,20,NaN,1,19
2,2,NaN,2,NaN,NaN,NaN,NaN,NaN,NaN,NaN,NaN,NaN,NaN,0,H,20,NaN,1,20
2,1,1,3,0.62109375,1,1,1,0,532.2265625,88.8671875,0.532226563,C,1.111292903,1,H,20,NaN,1,21
2,1,1,1,1.009277344,1,1,1,0,810.546875,198.7304688,0.810546875,C,1.055692913,1,H,20,NaN,1,22
2,1,1,3,0.704101563,1,1,1,0,539.5507813,164.5507813,0.539550781,C,1.088255407,1,H,20,NaN,1,23
2,2,2,1,0.921386719,1,1,1,0,777.8320313,143.5546875,0.777832031,C,1.044430269,1,H,20,NaN,1,24
2,2,2,3,0.665527344,1,1,1,0,568.359375,97.16796875,0.568359375,C,1.270067729,1,H,20,NaN,1,25
2,1,1,3,0.620605469,1,1,1,0,480.9570313,139.6484375,0.480957031,C,0.894692942,1,H,20,NaN,1,26
2,1,1,1,0.974609375,1,1,1,0,854.4921875,120.1171875,0.854492188,C,1.062692912,1,H,20,NaN,1,27
2,1,2,1,0.937988281,0,1,0,1,827.6367188,110.3515625,0.827636719,I,1.064105266,1,H,20,NaN,1,28
2,2,2,2,0.6875,1,1,1,0,576.6601563,110.8398438,0.576660156,C,0.998217778,1,H,20,NaN,1,29
2,2,2,1,0.809570313,1,1,1,0,692.8710938,116.6992188,0.692871094,C,1.144780251,1,H,20,NaN,1,30
2,2,2,2,0.780273438,1,1,1,0,643.5546875,136.71875,0.643554688,C,1.182330245,1,H,20,NaN,1,31
2,1,1,2,0.668457031,1,1,1,0,575.1953125,93.26171875,0.575195313,C,0.948455432,1,H,20,NaN,1,32
2,1,1,3,0.603027344,1,1,1,0,461.9140625,141.1132813,0.461914063,C,0.921280437,1,H,20,NaN,1,33
2,2,2,1,1.195800781,1,2,2,0,1089.355469,106.4453125,0.810058594,C C,1.268992729,1,H,20,NaN,1,34
2,2,2,1,0.810058594,1,1,1,0,703.6132813,106.4453125,0.703613281,C,1.188742744,1,H,20,NaN,1,35
2,1,1,1,1.05078125,1,1,1,0,945.3125,105.46875,0.9453125,C,0.931505435,1,H,20,NaN,1,36
2,2,2,4,0.677246094,1,1,1,0,612.3046875,64.94140625,0.612304688,C,1.723255148,1,H,20,NaN,1,37
2,2,1,1,1.060546875,0,1,0,1,963.3789063,97.16796875,0.963378906,I,1.004530422,1,H,20,NaN,1,38
2,1,1,1,1.212890625,1,1,1,0,1073.730469,139.1601563,1.073730469,C,0.90456794,1,H,20,NaN,1,39
2,2,2,1,0.901367188,1,1,1,0,780.2734375,121.09375,0.780273438,C,0.92624279,1,H,20,NaN,1,40
2,2,2,1,1.244628906,1,1,1,0,1044.433594,200.1953125,1.044433594,C,1.004155277,1,H,20,NaN,1,41
2,2,2,1,1.300292969,1,1,1,0,1168.457031,131.8359375,1.168457031,C,1.219442738,1,H,20,NaN,1,42
2,1,1,2,0.983398438,1,2,1,1,804.1992188,179.1992188,0.640136719,I C,0.805317958,1,H,20,NaN,1,43
2,1,1,1,1.26953125,1,2,2,0,1152.34375,117.1875,1.038085938,C C,0.971267928,1,H,20,NaN,1,44
2,2,1,1,1.35546875,0,1,0,1,1083.984375,271.484375,1.083984375,I,0.984480426,1,H,20,NaN,1,45
2,1,2,1,1.4375,0,1,0,1,1337.402344,100.0976563,1.337402344,I,NaN,1,H,20,NaN,1,46
2,1,NaN,4,NaN,NaN,NaN,NaN,NaN,NaN,NaN,NaN,NaN,NaN,0,H,20,NaN,1,47
2,2,1,2,0.730957031,0,NaN,NaN,NaN,NaN,NaN,NaN,NaN,NaN,0,H,20,NaN,1,48
2,2,2,1,0.852050781,1,1,1,0,737.7929688,114.2578125,0.737792969,C,1.168692747,1,H,20,NaN,1,49
2,1,1,1,0.917480469,1,NaN,NaN,NaN,NaN,NaN,NaN,NaN,NaN,0,H,20,NaN,1,50
2,2,2,2,0.891113281,1,1,1,0,781.7382813,109.375,0.781738281,C,1.21060524,1,H,20,NaN,1,51
2,2,2,2,0.984863281,1,1,1,0,831.5429688,153.3203125,0.831542969,C,1.300142724,1,H,20,NaN,1,52
2,1,1,1,0.735839844,1,1,1,0,624.5117188,111.328125,0.624511719,C,0.899592941,1,H,20,NaN,1,53
2,2,2,3,0.825683594,1,1,1,0,761.2304688,64.453125,0.761230469,C,1.387467708,1,H,20,NaN,1,54
2,2,2,2,0.998535156,1,1,1,0,872.0703125,126.4648438,0.872070313,C,0.990592779,1,H,20,NaN,1,55
2,1,1,3,0.613769531,1,1,1,0,509.765625,104.0039063,0.509765625,C,0.853192949,1,H,20,NaN,1,56
2,1,1,3,0.672363281,1,1,1,0,554.6875,117.6757813,0.5546875,C,0.838442952,1,H,20,NaN,1,57
2,2,2,3,0.637207031,1,1,1,0,553.7109375,83.49609375,0.553710938,C,1.193130243,1,H,20,NaN,1,58
2,2,1,1,1.163574219,0,1,0,1,1070.3125,93.26171875,1.0703125,I,0.871842946,1,H,20,NaN,1,59
2,1,2,2,1.48046875,0,1,0,1,1385.253906,95.21484375,1.385253906,I,NaN,1,H,20,NaN,1,60
2,2,2,3,0.689453125,1,1,1,0,563.9648438,125.4882813,0.563964844,C,1.016705274,1,H,20,NaN,1,61
2,1,2,3,1.000976563,0,1,0,1,895.0195313,105.9570313,0.895019531,I,0.853517803,1,H,20,NaN,1,62
2,1,2,1,1.334472656,0,1,0,1,1243.164063,91.30859375,1.243164063,I,1.065892765,1,H,20,NaN,1,63
2,2,2,1,1.189941406,1,1,1,0,1081.054688,108.8867188,1.081054688,C,1.100080259,1,H,20,NaN,1,64
2,2,1,1,0.884277344,0,1,0,1,785.15625,99.12109375,0.78515625,I,0.925405436,1,H,20,NaN,1,65
2,2,2,2,1.38671875,1,1,1,0,1261.71875,125,1.26171875,C,0.98735528,1,H,20,NaN,1,66
2,2,2,2,0.936035156,1,1,1,0,778.3203125,157.7148438,0.778320313,C,0.8705053,1,H,20,NaN,1,67
2,1,1,0,0.91015625,1,2,1,1,764.1601563,145.9960938,0.794433594,C,0.803567958,1,H,20,NaN,1,68
2,2,2,1,0.733398438,1,1,1,0,657.2265625,76.171875,0.657226563,C,1.285342726,1,H,20,NaN,1,69
2,1,2,2,0.888183594,0,1,0,1,733.3984375,154.7851563,0.733398438,I,1.115055257,1,H,20,NaN,2,1
2,2,2,2,0.754882813,1,1,1,0,644.0429688,110.8398438,0.644042969,C,1.011242775,1,H,20,NaN,2,2
2,2,2,1,0.863769531,1,1,1,0,757.8125,105.9570313,0.7578125,C,0.988192779,1,H,20,NaN,2,3
2,2,2,3,1.019042969,1,1,1,0,856.4453125,162.5976563,0.856445313,C,0.847355305,1,H,20,NaN,2,4
2,2,2,4,0.591308594,1,1,1,0,503.90625,87.40234375,0.50390625,C,1.329692718,1,H,20,NaN,2,5
2,1,1,4,1.216796875,1,2,2,0,1122.070313,94.7265625,0.786621094,C C,0.946830432,1,H,20,NaN,2,6
2,1,1,4,0.704101563,1,NaN,NaN,NaN,NaN,NaN,NaN,NaN,NaN,0,H,20,NaN,2,7
2,2,2,3,0.741210938,1,1,1,0,606.9335938,134.2773438,0.606933594,C,0.959792784,1,H,20,NaN,2,8
2,2,2,3,0.962402344,1,2,2,0,825.1953125,137.2070313,0.595703125,C C,1.108942758,1,H,20,NaN,2,9
2,2,2,4,0.814941406,1,1,1,0,690.4296875,124.5117188,0.690429688,C,1.089630261,1,H,20,NaN,2,10
2,2,2,4,0.646484375,1,1,1,0,513.1835938,133.3007813,0.513183594,C,0.918980292,1,H,20,NaN,2,11
2,1,2,4,0.799316406,0,1,0,1,686.0351563,113.28125,0.686035156,I,0.975255282,1,H,20,NaN,2,12
2,2,2,3,1.149414063,1,3,3,0,1025.390625,124.0234375,0.506347656,C C C,0.890355297,1,H,20,NaN,2,13
2,2,2,3,0.914550781,1,1,1,0,778.8085938,135.7421875,0.778808594,C,0.8750053,1,H,20,NaN,2,14
2,1,1,3,1.045898438,1,1,1,0,904.296875,141.6015625,0.904296875,C,0.862655448,1,H,20,NaN,2,15
2,2,2,2,1.165039063,1,2,2,0,1051.269531,113.7695313,0.797363281,C C,0.884880298,1,H,20,NaN,2,16
2,2,1,1,1.325683594,0,1,0,1,1222.167969,103.515625,1.222167969,I,1.027880418,1,H,20,NaN,2,17
2,1,2,2,0.769042969,0,1,0,1,652.8320313,116.2109375,0.652832031,I,1.052017768,1,H,20,NaN,2,18
2,1,1,4,1.486328125,1,3,3,0,1404.785156,81.54296875,0.834472656,C C C,NaN,1,H,20,NaN,2,19
2,2,2,3,1.303710938,1,3,3,0,1209.472656,94.23828125,0.603027344,C C C,1.129017754,1,H,20,NaN,2,20
2,1,1,4,0.849121094,1,1,1,0,713.3789063,135.7421875,0.713378906,C,1.224830383,1,H,20,NaN,2,21
2,2,2,4,0.56640625,1,1,1,0,438.9648438,127.4414063,0.438964844,C,0.906367794,1,H,20,NaN,2,22
2,1,1,4,0.546875,1,1,1,0,417.4804688,129.3945313,0.417480469,C,0.899742941,1,H,20,NaN,2,23
2,1,1,4,0.774902344,1,1,1,0,650.8789063,124.0234375,0.650878906,C,0.860192948,1,H,20,NaN,2,24
2,2,2,4,0.646972656,1,1,1,0,549.8046875,97.16796875,0.549804688,C,1.028242772,1,H,20,NaN,2,25
2,2,1,3,0.863769531,0,1,0,1,696.2890625,167.4804688,0.696289063,I,0.882730444,1,H,20,NaN,2,26
2,1,1,4,0.558105469,1,1,1,0,437.0117188,121.09375,0.437011719,C,0.944605433,1,H,20,NaN,2,27
2,1,1,4,0.480957031,1,1,1,0,367.6757813,113.28125,0.367675781,C,1.032067917,1,H,20,NaN,2,28
2,1,1,4,0.475097656,1,1,1,0,358.8867188,116.2109375,0.358886719,C,0.931605435,1,H,20,NaN,2,29
2,1,1,4,0.5078125,1,1,1,0,393.5546875,114.2578125,0.393554688,C,0.929180436,1,H,20,NaN,2,30
2,1,1,3,0.732421875,1,1,1,0,610.8398438,121.5820313,0.610839844,C,1.036180417,1,H,20,NaN,2,31
2,1,NaN,0,NaN,NaN,NaN,NaN,NaN,NaN,NaN,NaN,NaN,NaN,0,H,20,NaN,2,32
2,2,2,2,0.703125,1,1,1,0,607.9101563,95.21484375,0.607910156,C,1.305830223,1,H,20,NaN,2,33
2,2,2,1,0.868652344,1,1,1,0,733.8867188,134.765625,0.733886719,C,0.822242809,1,H,20,NaN,2,34
2,1,1,3,0.806640625,1,1,1,0,683.59375,123.046875,0.68359375,C,0.981555426,1,H,20,NaN,2,35
2,2,2,3,0.959960938,1,2,2,0,867.1875,92.7734375,0.672851563,C C,0.911067793,1,H,20,NaN,2,36
2,1,1,2,1.143554688,1,1,1,0,966.3085938,177.2460938,0.966308594,C,0.901317941,1,H,20,NaN,2,37
2,1,1,3,1.069335938,1,1,1,0,940.4296875,128.90625,0.940429688,C,0.886555443,1,H,20,NaN,2,38
2,2,2,3,1.158203125,1,2,2,0,1051.269531,106.9335938,0.778320313,C C,0.894030296,1,H,20,NaN,2,39
2,2,2,3,0.712890625,1,1,1,0,603.0273438,109.8632813,0.603027344,C,0.852655304,1,H,20,NaN,2,40
2,2,2,2,1.218261719,1,2,2,0,1110.351563,107.9101563,0.823242188,C C,0.826017808,1,H,20,NaN,2,41
2,2,2,2,0.822753906,1,1,1,0,677.2460938,145.5078125,0.677246094,C,1.007442776,1,H,20,NaN,2,42
2,1,1,3,0.861816406,1,2,1,1,666.9921875,194.8242188,0.706542969,C,0.951717932,1,H,20,NaN,2,43
2,1,1,2,0.808105469,1,1,1,0,636.71875,171.3867188,0.63671875,C,0.839455452,1,H,20,NaN,2,44
2,1,1,1,0.769042969,1,1,1,0,664.5507813,104.4921875,0.664550781,C,0.84776795,1,H,20,NaN,2,45
2,2,2,2,0.914550781,1,1,1,0,741.6992188,172.8515625,0.741699219,C,0.92615529,1,H,20,NaN,2,46
2,2,2,3,0.678222656,1,1,1,0,576.171875,102.0507813,0.576171875,C,0.955055285,1,H,20,NaN,2,47
2,2,1,3,0.958984375,0,1,0,1,774.4140625,184.5703125,0.774414063,I,0.939567934,1,H,20,NaN,2,48
2,1,1,4,0.58203125,1,1,1,0,483.3984375,98.6328125,0.483398438,C,1.110192903,1,H,20,NaN,2,49
2,1,1,1,0.972167969,1,1,1,0,778.3203125,193.8476563,0.778320313,C,0.811767957,1,H,20,NaN,2,50
2,1,1,4,0.767578125,1,1,1,0,574.7070313,192.8710938,0.574707031,C,0.787280461,1,H,20,NaN,2,51
2,2,2,2,1.057617188,1,1,1,0,924.8046875,132.8125,0.924804688,C,0.827542808,1,H,20,NaN,2,52
2,2,2,1,1.29296875,1,2,2,0,1176.757813,116.2109375,0.925292969,C C,1.022517773,1,H,20,NaN,2,53
2,2,2,2,0.647460938,1,1,1,0,544.4335938,103.0273438,0.544433594,C,1.128780254,1,H,20,NaN,2,54
2,1,1,3,0.803710938,1,1,1,0,710.9375,92.7734375,0.7109375,C,0.953442931,1,H,20,NaN,2,55
2,1,1,4,0.559082031,1,2,1,1,415.5273438,143.5546875,0.352539063,I C,0.826892954,1,H,20,NaN,2,56
2,2,2,1,0.559570313,1,1,1,0,477.5390625,82.03125,0.477539063,C,1.189130243,1,H,20,NaN,2,57
2,1,1,4,0.642089844,1,1,1,0,517.0898438,125,0.517089844,C,0.954330431,1,H,20,NaN,2,58
2,2,2,1,1.007324219,1,1,1,0,913.0859375,94.23828125,0.913085938,C,1.220967738,1,H,20,NaN,2,59
2,2,1,1,1.071289063,0,2,0,2,974.1210938,97.16796875,0.665527344,I I,1.1285179,1,H,20,NaN,2,60
2,1,1,2,0.83203125,1,1,1,0,696.7773438,135.2539063,0.696777344,C,0.982405426,1,H,20,NaN,2,61
2,1,1,3,0.69921875,1,1,1,0,591.796875,107.421875,0.591796875,C,1.048517914,1,H,20,NaN,2,62
2,1,2,2,0.709960938,0,1,0,1,575.6835938,134.2773438,0.575683594,I,0.98235528,1,H,20,NaN,2,63
2,2,2,2,0.66796875,1,1,1,0,567.8710938,100.0976563,0.567871094,C,1.064205266,1,H,20,NaN,2,64
2,2,1,1,0.665039063,0,1,1,0,NaN,NaN,NaN,I,1.059430412,0,H,20,NaN,2,65
2,1,1,4,0.866699219,1,1,1,0,736.8164063,129.8828125,0.736816406,C,0.934355435,1,H,20,NaN,2,66
2,1,1,4,0.627929688,1,1,1,0,545.8984375,82.03125,0.545898438,C,1.029605418,1,H,20,NaN,2,67
2,1,1,2,1.006835938,1,1,1,0,898.9257813,107.9101563,0.898925781,C,0.986692925,1,H,20,NaN,2,68
2,1,1,4,0.577636719,1,1,1,0,469.2382813,108.3984375,0.469238281,C,0.949917932,1,H,20,NaN,2,69
2,2,2,1,1.25,1,2,2,0,1144.042969,105.9570313,0.85546875,C C,0.999492777,1,H,20,NaN,2,70
2,2,1,2,0.678222656,0,1,0,1,568.359375,109.8632813,0.568359375,I,1.229317882,1,H,20,NaN,3,1
2,1,1,1,0.687011719,1,1,1,0,579.1015625,107.9101563,0.579101563,C,1.310355367,1,H,20,NaN,3,2
2,2,2,3,0.725097656,1,1,1,0,604.0039063,121.09375,0.604003906,C,1.145942751,1,H,20,NaN,3,3
2,2,2,2,0.737792969,1,1,1,0,646.484375,91.30859375,0.646484375,C,0.987717779,1,H,20,NaN,3,4
2,2,2,1,0.865234375,1,1,1,0,766.6015625,98.6328125,0.766601563,C,1.017730274,1,H,20,NaN,3,5
2,2,2,4,0.784667969,1,1,1,0,660.15625,124.5117188,0.66015625,C,0.856792803,1,H,20,NaN,3,6
2,1,2,1,0.884765625,0,1,0,1,765.625,119.140625,0.765625,I,0.959242785,1,H,20,NaN,3,7
2,1,2,1,0.815917969,0,1,0,1,709.9609375,105.9570313,0.709960938,I,0.948867786,1,H,20,NaN,3,8
2,1,2,1,0.649414063,0,1,0,1,555.6640625,93.75,0.555664063,I,0.997880278,1,H,20,NaN,3,9
2,2,2,3,0.614746094,1,1,1,0,546.875,67.87109375,0.546875,C,1.222992737,1,H,20,NaN,3,10
2,1,2,2,0.757324219,0,1,0,1,646.9726563,110.3515625,0.646972656,I,1.028905272,1,H,20,NaN,3,11
2,2,2,1,1.173828125,1,1,1,0,1019.53125,154.296875,1.01953125,C,0.890192797,1,H,20,NaN,3,12
2,1,2,1,1.369140625,0,1,0,1,1250,119.140625,1.25,I,1.128517754,1,H,20,NaN,3,13
2,2,2,2,1.28515625,1,1,1,0,1144.042969,141.1132813,1.144042969,C,1.03981777,1,H,20,NaN,3,14
2,2,NaN,1,NaN,NaN,NaN,NaN,NaN,NaN,NaN,NaN,NaN,NaN,0,H,20,NaN,3,15
2,2,2,1,0.695800781,1,1,1,0,583.984375,111.8164063,0.583984375,C,0.992805279,1,H,20,NaN,3,16
2,2,1,1,1.474121094,0,1,0,1,1338.378906,135.7421875,1.338378906,I,NaN,1,H,20,NaN,3,17
2,1,1,3,0.810058594,1,1,1,0,702.1484375,107.9101563,0.702148438,C,0.868892946,1,H,20,NaN,3,18
2,2,2,4,0.6640625,1,1,1,0,576.6601563,87.40234375,0.576660156,C,0.940605288,1,H,20,NaN,3,19
2,2,2,2,0.993652344,1,1,1,0,896.484375,97.16796875,0.896484375,C,1.017055274,1,H,20,NaN,3,20
2,2,2,2,0.855957031,1,1,1,0,756.3476563,99.609375,0.756347656,C,0.824280309,1,H,20,NaN,3,21
2,2,1,1,1.404785156,0,NaN,NaN,NaN,NaN,NaN,NaN,NaN,NaN,0,H,20,NaN,3,22
2,2,2,3,1.34765625,1,3,3,0,1158.203125,189.453125,0.64453125,C C C,1.015305275,1,H,20,NaN,3,23
2,2,2,2,0.729003906,1,NaN,NaN,NaN,NaN,NaN,NaN,NaN,NaN,0,H,20,NaN,3,24
2,2,2,4,0.911132813,1,NaN,NaN,NaN,NaN,NaN,NaN,NaN,NaN,0,H,20,NaN,3,25
2,2,2,3,0.943359375,1,NaN,NaN,NaN,NaN,NaN,NaN,NaN,NaN,0,H,20,NaN,3,26
2,2,NaN,0,NaN,NaN,NaN,NaN,NaN,NaN,NaN,NaN,NaN,NaN,0,H,20,NaN,3,27
2,1,1,3,0.776367188,1,1,1,0,592.2851563,184.0820313,0.592285156,C,1.068592911,1,H,20,NaN,3,28
2,1,1,2,0.951171875,1,1,1,0,750.9765625,200.1953125,0.750976563,C,0.987655425,1,H,20,NaN,3,29
2,2,2,2,0.905761719,1,1,1,0,793.9453125,111.8164063,0.793945313,C,1.205105241,1,H,20,NaN,3,30
2,2,2,3,0.833496094,1,1,1,0,706.0546875,127.4414063,0.706054688,C,0.922605291,1,H,20,NaN,3,31
2,2,2,1,1.197753906,1,1,1,0,1062.988281,134.765625,1.062988281,C,0.8729428,1,H,20,NaN,3,32
2,1,1,4,0.611816406,1,1,1,0,458.984375,152.8320313,0.458984375,C,0.972567928,1,H,20,NaN,3,33
2,2,2,3,0.784667969,1,1,1,0,702.1484375,82.51953125,0.702148438,C,0.980417781,1,H,20,NaN,3,34
2,1,1,3,0.916503906,1,1,1,0,772.9492188,143.5546875,0.772949219,C,0.915455438,1,H,20,NaN,3,35
2,2,2,2,0.869628906,1,1,1,0,735.3515625,134.2773438,0.735351563,C,0.821492809,1,H,20,NaN,3,36
2,2,2,1,1.056640625,1,1,1,0,968.2617188,88.37890625,0.968261719,C,0.978780281,1,H,20,NaN,3,37
2,1,1,1,1.055175781,1,1,1,0,913.5742188,141.6015625,0.913574219,C,0.979630427,1,H,20,NaN,3,38
2,1,2,1,0.720214844,0,1,0,1,623.046875,97.16796875,0.623046875,I,1.059755267,1,H,20,NaN,3,39
2,2,1,1,0.930664063,0,1,0,1,753.4179688,177.2460938,0.753417969,I,0.79229296,1,H,20,NaN,3,40
2,1,1,2,0.930175781,1,1,1,0,800.2929688,129.8828125,0.800292969,C,1.025680418,1,H,20,NaN,3,41
2,1,2,3,0.864257813,0,1,0,1,769.0429688,95.21484375,0.769042969,I,1.240455234,1,H,20,NaN,3,42
2,1,2,1,0.972167969,0,1,0,1,890.1367188,82.03125,0.890136719,I,1.016292774,1,H,20,NaN,3,43
2,1,1,1,1.285644531,1,1,1,0,1182.617188,103.0273438,1.182617188,C,1.092655406,1,H,20,NaN,3,44
2,2,2,2,0.748046875,1,1,1,0,663.5742188,84.47265625,0.663574219,C,1.006155276,1,H,20,NaN,3,45
2,2,1,1,1.334960938,0,1,0,1,1216.796875,118.1640625,1.216796875,I,1.285167872,1,H,20,NaN,3,46
2,2,2,2,1.118164063,1,2,2,0,988.28125,129.8828125,0.766601563,C C,1.163730248,1,H,20,NaN,3,47
2,1,1,4,0.768066406,1,2,2,0,606.4453125,161.6210938,0.498046875,C C,1.18309289,1,H,20,NaN,3,48
2,1,1,4,0.912597656,1,1,1,0,785.15625,127.4414063,0.78515625,C,1.07144291,1,H,20,NaN,3,49
2,1,1,4,0.572753906,1,1,1,0,440.9179688,131.8359375,0.440917969,C,1.221255383,1,H,20,NaN,3,50
2,2,1,4,1.358398438,0,1,0,1,1157.226563,201.171875,1.157226563,I,1.122805401,1,H,20,NaN,3,51
2,2,2,4,0.872558594,1,1,1,0,774.9023438,97.65625,0.774902344,C,0.971317782,1,H,20,NaN,3,52
2,2,2,4,0.668945313,1,1,1,0,594.2382813,74.70703125,0.594238281,C,1.028867772,1,H,20,NaN,3,53
2,1,1,4,0.556640625,1,1,1,0,418.9453125,137.6953125,0.418945313,C,1.033755417,1,H,20,NaN,3,54
2,2,2,4,0.9296875,1,1,1,0,557.1289063,372.5585938,0.557128906,C,0.844830305,1,H,20,NaN,3,55
2,1,2,2,1.033203125,0,1,0,1,924.3164063,108.8867188,0.924316406,I,1.051167768,1,H,20,NaN,3,56
2,1,1,4,0.649902344,1,1,1,0,476.0742188,173.828125,0.476074219,C,1.084692908,1,H,20,NaN,3,57
2,1,2,1,1.182128906,0,1,0,1,1081.542969,100.5859375,1.081542969,I,0.954330285,1,H,20,NaN,3,58
2,1,1,4,0.5234375,1,1,1,0,375.9765625,147.4609375,0.375976563,C,1.305067868,1,H,20,NaN,3,59
2,1,1,3,0.446777344,1,1,1,0,318.8476563,127.9296875,0.318847656,C,1.051042914,1,H,20,NaN,3,60
2,1,1,3,0.726074219,1,1,1,0,575.1953125,150.8789063,0.575195313,C,0.996192924,1,H,20,NaN,3,61
2,1,1,3,0.452148438,1,1,1,0,317.3828125,134.765625,0.317382813,C,0.989942925,1,H,20,NaN,3,62
2,1,1,4,0.608398438,1,1,1,0,414.0625,194.3359375,0.4140625,C,0.868355447,1,H,20,NaN,3,63
2,1,1,2,1.369628906,1,1,1,0,1249.023438,120.6054688,1.249023438,C,1.000467923,1,H,20,NaN,3,64
2,2,2,3,0.685546875,1,1,1,0,593.75,91.796875,0.59375,C,0.972455282,1,H,20,NaN,3,65
2,2,NaN,0,NaN,NaN,NaN,NaN,NaN,NaN,NaN,NaN,NaN,NaN,0,H,20,NaN,3,66
2,2,2,3,0.895996094,1,1,1,0,808.59375,87.40234375,0.80859375,C,1.296905224,1,H,20,NaN,3,67
2,2,2,3,0.701660156,1,1,1,0,628.90625,72.75390625,0.62890625,C,1.104217759,1,H,20,NaN,3,68
2,2,2,2,0.900390625,1,1,1,0,816.40625,83.984375,0.81640625,C,1.174855246,1,H,20,NaN,3,69
2,2,2,2,0.645507813,1,1,1,0,555.6640625,89.84375,0.555664063,C,1.192192743,1,H,20,NaN,3,70
2,1,2,2,0.796875,0,4,1,3,642.578125,154.296875,0.346679688,C I I I,1.54173018,1,H,20,NaN,4,1
2,2,2,2,0.688476563,1,1,1,0,611.8164063,76.66015625,0.611816406,C,1.04009277,1,H,20,NaN,4,2
2,2,1,2,0.740722656,0,1,0,1,625.4882813,115.234375,0.625488281,I,1.137505398,1,H,20,NaN,4,3
2,1,2,1,0.856933594,0,1,0,1,758.3007813,98.6328125,0.758300781,I,1.019917774,1,H,20,NaN,4,4
2,2,2,3,0.571289063,1,1,1,0,476.5625,94.7265625,0.4765625,C,0.936767789,1,H,20,NaN,4,5
2,2,2,3,1.471679688,1,1,1,0,511.2304688,960.4492188,0.511230469,C,NaN,1,H,20,NaN,4,6
2,2,2,1,0.962402344,1,1,1,0,834.9609375,127.4414063,0.834960938,C,1.045642769,1,H,20,NaN,4,7
2,2,2,4,0.543457031,1,1,1,0,447.7539063,95.703125,0.447753906,C,0.960742784,1,H,20,NaN,4,8
2,2,2,4,0.782226563,1,1,1,0,687.9882813,94.23828125,0.687988281,C,1.04064277,1,H,20,NaN,4,9
2,2,1,3,0.716796875,0,1,0,1,557.1289063,159.6679688,0.557128906,I,1.069780411,1,H,20,NaN,4,10
2,1,1,4,0.520507813,1,1,1,0,434.5703125,85.9375,0.434570313,C,1.276942873,1,H,20,NaN,4,11
2,1,1,4,0.466796875,1,1,1,0,364.2578125,102.5390625,0.364257813,C,1.003017922,1,H,20,NaN,4,12
2,2,2,1,1.117675781,1,1,1,0,1039.550781,78.125,1.039550781,C,1.197142742,1,H,20,NaN,4,13
2,2,2,1,0.693847656,1,1,1,0,597.1679688,96.6796875,0.597167969,C,1.025705273,1,H,20,NaN,4,14
2,2,1,3,0.647949219,0,1,0,1,534.6679688,113.28125,0.534667969,I,0.970717928,1,H,20,NaN,4,15
2,2,2,1,0.712402344,1,1,1,0,603.515625,108.8867188,0.603515625,C,0.995630278,1,H,20,NaN,4,16
2,1,1,2,0.831054688,1,1,1,0,665.5273438,165.5273438,0.665527344,C,0.969692928,1,H,20,NaN,4,17
2,1,2,1,0.739746094,0,2,0,2,631.8359375,107.9101563,0.463867188,I I,0.971480282,1,H,20,NaN,4,18
2,1,1,1,0.565429688,1,1,1,0,386.2304688,179.1992188,0.386230469,C,0.981305426,1,H,20,NaN,4,19
2,2,2,2,0.686035156,1,1,1,0,574.7070313,111.328125,0.574707031,C,0.825067809,1,H,20,NaN,4,20
2,2,2,1,0.766601563,1,1,1,0,663.5742188,103.0273438,0.663574219,C,0.888192797,1,H,20,NaN,4,21
2,1,1,4,0.611328125,1,1,1,0,489.2578125,122.0703125,0.489257813,C,0.874767945,1,H,20,NaN,4,22
2,1,2,1,1.233886719,0,4,2,2,1124.511719,109.375,0.67578125,C C I I,1.010205275,1,H,20,NaN,4,23
2,1,2,1,0.812011719,0,4,0,4,701.171875,110.8398438,0.361816406,I I I I,1.21113024,1,H,20,NaN,4,24
2,1,1,4,0.534179688,1,1,1,0,423.828125,110.3515625,0.423828125,C,0.994717924,1,H,20,NaN,4,25
2,2,1,4,1.121582031,0,4,0,4,1003.417969,118.1640625,0.34765625,I I I I,1.049517914,1,H,20,NaN,4,26
2,2,2,1,0.630859375,1,1,1,0,534.6679688,96.19140625,0.534667969,C,1.203105241,1,H,20,NaN,4,27
2,1,1,4,0.569824219,1,1,1,0,467.7734375,102.0507813,0.467773438,C,1.068030411,1,H,20,NaN,4,28
2,1,1,4,0.588378906,1,1,1,0,491.6992188,96.6796875,0.491699219,C,1.23884288,1,H,20,NaN,4,29
2,1,1,3,0.759277344,1,1,1,0,598.1445313,161.1328125,0.598144531,C,1.332367864,1,H,20,NaN,4,30
2,2,1,3,0.801757813,0,1,0,1,704.1015625,97.65625,0.704101563,I,1.385505354,1,H,20,NaN,4,31
2,2,1,4,0.513183594,0,1,0,1,402.34375,110.8398438,0.40234375,I,1.103467904,1,H,20,NaN,4,32
2,2,1,1,1.016113281,0,1,0,1,936.5234375,79.58984375,0.936523438,I,1.227342882,1,H,20,NaN,4,33
2,2,1,1,1.082519531,0,1,0,1,1018.554688,63.96484375,1.018554688,I,1.503705333,1,H,20,NaN,4,34
2,2,1,1,1.057128906,0,1,0,1,957.5195313,99.609375,0.957519531,I,1.1309679,1,H,20,NaN,4,35
2,2,2,2,0.768066406,1,1,1,0,672.3632813,95.703125,0.672363281,C,0.969055283,1,H,20,NaN,4,36
2,2,1,4,0.563964844,0,1,0,1,474.609375,89.35546875,0.474609375,I,1.18583039,1,H,20,NaN,4,37
2,1,2,2,0.836914063,0,1,0,1,752.9296875,83.984375,0.752929688,I,1.078242763,1,H,20,NaN,4,38
2,1,2,1,1.086425781,0,1,0,1,1017.578125,68.84765625,1.017578125,I,1.121417756,1,H,20,NaN,4,39
2,1,1,4,0.546875,1,1,1,0,461.4257813,85.44921875,0.461425781,C,1.097530406,1,H,20,NaN,4,40
2,1,1,4,0.415527344,1,1,1,0,353.515625,62.01171875,0.353515625,C,1.174505392,1,H,20,NaN,4,41
2,2,1,4,0.435546875,0,1,0,1,363.28125,72.265625,0.36328125,I,1.278280373,1,H,20,NaN,4,42
2,2,2,4,0.565917969,1,1,1,0,479.4921875,86.42578125,0.479492188,C,1.141505252,1,H,20,NaN,4,43
2,1,1,4,0.467773438,1,1,1,0,385.2539063,82.51953125,0.385253906,C,1.117967902,1,H,20,NaN,4,44
2,2,2,4,0.837402344,1,1,1,0,743.6523438,93.75,0.743652344,C,1.031467772,1,H,20,NaN,4,45
2,1,1,3,0.390136719,1,1,1,0,310.0585938,80.078125,0.310058594,C,1.23926788,1,H,20,NaN,4,46
2,1,1,4,0.501953125,1,1,1,0,415.5273438,86.42578125,0.415527344,C,1.134792899,1,H,20,NaN,4,47
2,1,1,4,0.574707031,1,1,1,0,454.1015625,120.6054688,0.454101563,C,0.935280435,1,H,20,NaN,4,48
2,2,1,3,0.557128906,0,1,0,1,472.1679688,84.9609375,0.472167969,I,1.01610542,1,H,20,NaN,4,49
2,2,1,2,0.5546875,0,1,0,1,414.0625,140.625,0.4140625,I,0.935092935,1,H,20,NaN,4,50
2,2,2,3,0.601074219,1,1,1,0,492.6757813,108.3984375,0.492675781,C,0.8748053,1,H,20,NaN,4,51
2,2,1,3,0.815429688,0,1,0,1,731.9335938,83.49609375,0.731933594,I,1.023217919,1,H,20,NaN,4,52
2,1,1,4,0.536621094,1,1,1,0,442.3828125,94.23828125,0.442382813,C,1.139630398,1,H,20,NaN,4,53
2,2,2,4,0.596679688,1,1,1,0,503.4179688,93.26171875,0.503417969,C,1.045555269,1,H,20,NaN,4,54
2,2,2,4,0.767578125,1,1,1,0,645.0195313,122.5585938,0.645019531,C,0.845342805,1,H,20,NaN,4,55
2,2,1,1,0.467285156,0,1,0,1,375.4882813,91.796875,0.375488281,I,0.990942925,1,H,20,NaN,4,56
2,1,1,2,0.614746094,1,1,1,0,532.2265625,82.51953125,0.532226563,C,1.1276429,1,H,20,NaN,4,57
2,1,1,4,0.720214844,1,1,1,0,603.0273438,117.1875,0.603027344,C,0.911317939,1,H,20,NaN,4,58
2,2,2,4,0.744140625,1,1,1,0,626.4648438,117.6757813,0.626464844,C,0.822105309,1,H,20,NaN,4,59
2,1,1,4,0.571289063,1,1,1,0,448.7304688,122.5585938,0.448730469,C,0.877680445,1,H,20,NaN,4,60
2,2,2,4,0.889648438,1,1,1,0,763.1835938,126.4648438,0.763183594,C,0.81590531,1,H,20,NaN,4,61
2,1,1,1,0.805664063,1,1,1,0,682.1289063,123.5351563,0.682128906,C,0.995430424,1,H,20,NaN,4,62
2,2,2,1,1.469726563,1,1,1,0,1082.519531,387.2070313,1.082519531,C,NaN,1,H,20,NaN,4,63
2,1,1,4,0.529785156,1,1,1,0,415.5273438,114.2578125,0.415527344,C,1.040642916,1,H,20,NaN,4,64
2,2,2,3,1.24609375,1,2,2,0,1147.460938,98.6328125,0.860839844,C C,0.925567791,1,H,20,NaN,4,65
2,1,2,3,0.873046875,0,1,0,1,797.8515625,75.1953125,0.797851563,I,1.142180252,1,H,20,NaN,4,66
2,1,1,3,1.138183594,1,1,1,0,958.4960938,179.6875,0.958496094,C,0.844555451,1,H,20,NaN,4,67
2,2,2,2,0.625976563,1,1,1,0,535.6445313,90.33203125,0.535644531,C,0.92875529,1,H,20,NaN,4,68
2,1,1,4,0.739257813,1,1,1,0,563.9648438,175.2929688,0.563964844,C,0.991592924,1,H,20,NaN,4,69
2,2,2,1,1.072265625,1,1,1,0,947.7539063,124.5117188,0.947753906,C,0.98464278,1,H,20,NaN,4,70
2,2,2,1,0.726074219,1,1,1,0,625,101.0742188,0.625,C,1.349042715,1,H,20,NaN,5,1
2,2,2,2,0.691894531,1,1,1,0,576.6601563,115.234375,0.576660156,C,1.159367749,1,H,20,NaN,5,2
2,2,2,2,1.310546875,1,2,2,0,1210.449219,100.0976563,0.879882813,C C,1.147130251,1,H,20,NaN,5,3
2,1,1,4,0.709472656,1,1,1,0,525.390625,184.0820313,0.525390625,C,1.07191791,1,H,20,NaN,5,4
2,2,2,4,0.640625,1,1,1,0,545.4101563,95.21484375,0.545410156,C,1.125792755,1,H,20,NaN,5,5
2,1,2,3,1.297851563,0,3,0,3,1200.195313,97.65625,0.715332031,I I I,1.178192745,1,H,20,NaN,5,6
2,1,1,4,0.569335938,1,1,1,0,481.9335938,87.40234375,0.481933594,C,1.07023041,1,H,20,NaN,5,7
2,1,1,4,0.723144531,1,1,1,0,594.2382813,128.90625,0.594238281,C,1.18418039,1,H,20,NaN,5,8
2,2,1,1,1.042480469,0,1,0,1,953.6132813,88.8671875,0.953613281,I,1.083667908,1,H,20,NaN,5,9
2,1,1,3,0.904296875,1,1,1,0,396.9726563,507.3242188,0.396972656,C,0.938780434,1,H,20,NaN,5,10
2,2,2,3,0.547363281,1,1,1,0,471.1914063,76.171875,0.471191406,C,1.202480241,1,H,20,NaN,5,11
2,2,2,3,0.698242188,1,1,1,0,619.6289063,78.61328125,0.619628906,C,1.233417736,1,H,20,NaN,5,12
2,1,1,4,0.478515625,1,1,1,0,361.8164063,116.6992188,0.361816406,C,1.037005416,1,H,20,NaN,5,13
2,1,2,2,1.056640625,0,1,0,1,966.3085938,90.33203125,0.966308594,I,1.390055208,1,H,20,NaN,5,14
2,1,1,4,0.499023438,1,1,1,0,400.8789063,98.14453125,0.400878906,C,1.032530417,1,H,20,NaN,5,15
2,1,1,4,0.649902344,1,1,1,0,561.5234375,88.37890625,0.561523438,C,1.053317913,1,H,20,NaN,5,16
2,2,1,3,0.683105469,0,1,0,1,580.5664063,102.5390625,0.580566406,I,1.076005409,1,H,20,NaN,5,17
2,1,1,4,0.43359375,1,1,1,0,332.03125,101.5625,0.33203125,C,1.313042867,1,H,20,NaN,5,18
2,1,1,4,0.479492188,1,1,1,0,394.0429688,85.44921875,0.394042969,C,1.031830417,1,H,20,NaN,5,19
2,2,1,2,0.7578125,0,2,0,2,669.921875,87.890625,0.342285156,I I,1.064567911,1,H,20,NaN,5,20
2,2,2,3,0.571777344,1,1,1,0,500,71.77734375,0.5,C,1.232705236,1,H,20,NaN,5,21
2,1,1,4,0.459472656,1,1,1,0,349.609375,109.8632813,0.349609375,C,0.84988045,1,H,20,NaN,5,22
2,1,1,4,0.563964844,1,1,1,0,447.7539063,116.2109375,0.447753906,C,0.857405448,1,H,20,NaN,5,23
2,2,2,1,1.072753906,1,2,1,1,990.7226563,82.03125,0.286132813,I C,0.954167785,1,H,20,NaN,5,24
2,1,1,3,0.87109375,1,2,2,0,764.6484375,106.4453125,0.436523438,C C,0.807755457,1,H,20,NaN,5,25
2,2,2,4,0.564453125,1,1,1,0,479.0039063,85.44921875,0.479003906,C,1.192317743,1,H,20,NaN,5,26
2,1,2,2,0.603027344,0,1,0,1,533.6914063,69.3359375,0.533691406,I,1.093255261,1,H,20,NaN,5,27
2,1,2,2,0.562988281,0,1,0,1,488.7695313,74.21875,0.488769531,I,1.09804276,1,H,20,NaN,5,28
2,1,1,1,1.186035156,1,1,1,0,1094.238281,91.796875,1.094238281,C,1.104755404,1,H,20,NaN,5,29
2,1,2,1,0.817382813,0,1,0,1,727.0507813,90.33203125,0.727050781,I,0.997455278,1,H,20,NaN,5,30
2,1,1,4,0.873535156,1,1,1,0,772.9492188,100.5859375,0.772949219,C,0.964530429,1,H,20,NaN,5,31
2,2,2,4,0.794921875,1,1,1,0,696.7773438,98.14453125,0.696777344,C,1.31960522,1,H,20,NaN,5,32
2,2,2,2,1.223144531,1,1,1,0,1139.648438,83.49609375,1.139648438,C,1.259217731,1,H,20,NaN,5,33
2,1,2,2,1.235351563,0,1,0,1,1133.300781,102.0507813,1.133300781,I,0.994442778,1,H,20,NaN,5,34
2,1,2,2,0.919433594,0,1,0,1,825.6835938,93.75,0.825683594,I,1.162205248,1,H,20,NaN,5,35
2,2,2,2,0.734863281,1,1,1,0,645.5078125,89.35546875,0.645507813,C,1.228692736,1,H,20,NaN,5,36
2,2,2,3,1.040039063,1,2,2,0,924.3164063,115.7226563,0.673828125,C C,0.895667796,1,H,20,NaN,5,37
2,2,2,3,1.001464844,1,1,1,0,895.0195313,106.4453125,0.895019531,C,1.508730186,1,H,20,NaN,5,38
2,1,1,4,1.150390625,1,1,1,0,1040.527344,109.8632813,1.040527344,C,1.01501792,1,H,20,NaN,5,39
2,1,2,1,1.228027344,0,1,0,1,1121.582031,106.4453125,1.121582031,I,0.965317783,1,H,20,NaN,5,40
2,2,2,2,1.290039063,1,1,1,0,1183.59375,106.4453125,1.18359375,C,1.025780273,1,H,20,NaN,5,41
2,1,1,4,0.832519531,1,1,1,0,732.9101563,99.609375,0.732910156,C,0.936467934,1,H,20,NaN,5,42
2,2,2,4,0.805664063,1,1,1,0,735.8398438,69.82421875,0.735839844,C,1.295680224,1,H,20,NaN,5,43
2,1,1,4,0.62890625,1,1,1,0,530.7617188,98.14453125,0.530761719,C,1.116792902,1,H,20,NaN,5,44
2,1,1,4,0.775878906,1,1,1,0,688.4765625,87.40234375,0.688476563,C,0.923505437,1,H,20,NaN,5,45
2,2,2,2,1.349609375,1,1,1,0,1225.585938,124.0234375,1.225585938,C,0.886992797,1,H,20,NaN,5,46
2,2,2,4,0.991699219,1,2,2,0,828.6132813,163.0859375,0.623046875,C C,0.81720531,1,H,20,NaN,5,47
2,2,2,4,0.618164063,1,1,1,0,537.5976563,80.56640625,0.537597656,C,1.110505258,1,H,20,NaN,5,48
2,2,1,1,0.802246094,0,1,0,1,679.6875,122.5585938,0.6796875,I,0.978105427,1,H,20,NaN,5,49
2,2,2,1,1.213378906,1,1,1,0,1098.144531,115.234375,1.098144531,C,0.93000529,1,H,20,NaN,5,50
2,2,2,2,0.913085938,1,1,1,0,833.984375,79.1015625,0.833984375,C,1.499030188,1,H,20,NaN,5,51
2,1,1,3,0.769042969,1,1,1,0,651.3671875,117.6757813,0.651367188,C,1.047942914,1,H,20,NaN,5,52
2,2,1,1,0.91015625,0,1,0,1,803.7109375,106.4453125,0.803710938,I,1.198617887,1,H,20,NaN,5,53
2,1,1,1,1.19140625,1,1,1,0,1092.285156,99.12109375,1.092285156,C,1.117492902,1,H,20,NaN,5,54
2,2,2,3,0.880859375,1,1,1,0,798.3398438,82.51953125,0.798339844,C,1.166130248,1,H,20,NaN,5,55
2,2,2,4,0.71875,1,1,1,0,626.4648438,92.28515625,0.626464844,C,1.006067776,1,H,20,NaN,5,56
2,1,1,4,0.587402344,1,1,1,0,514.1601563,73.2421875,0.514160156,C,1.117280402,1,H,20,NaN,5,57
2,2,2,4,0.740722656,1,1,1,0,628.90625,111.8164063,0.62890625,C,1.022067773,1,H,20,NaN,5,58
2,1,2,2,0.884277344,0,1,0,1,771.484375,112.7929688,0.771484375,I,0.992505279,1,H,20,NaN,5,59
2,2,2,4,0.894042969,1,1,1,0,782.7148438,111.328125,0.782714844,C,1.03836777,1,H,20,NaN,5,60
2,2,2,4,0.723144531,1,1,1,0,600.0976563,123.046875,0.600097656,C,0.855242803,1,H,20,NaN,5,61
2,1,1,4,0.973632813,1,2,2,0,898.4375,75.1953125,0.591308594,C C,1.097080406,1,H,20,NaN,5,62
2,2,2,4,0.737304688,1,1,1,0,610.8398438,126.4648438,0.610839844,C,0.813217811,1,H,20,NaN,5,63
2,1,1,4,0.772949219,1,1,1,0,634.2773438,138.671875,0.634277344,C,0.840717951,1,H,20,NaN,5,64
2,1,2,2,1.06640625,0,1,0,1,964.84375,101.5625,0.96484375,I,1.089642761,1,H,20,NaN,5,65
2,2,2,4,0.763183594,1,1,1,0,676.7578125,86.42578125,0.676757813,C,1.121092756,1,H,20,NaN,5,66
2,1,1,3,0.651855469,1,1,1,0,534.1796875,117.6757813,0.534179688,C,0.970480428,1,H,20,NaN,5,67
2,1,1,3,0.702636719,1,1,1,0,613.7695313,88.8671875,0.613769531,C,0.889142943,1,H,20,NaN,5,68
2,2,2,1,1.03125,1,1,1,0,910.15625,121.09375,0.91015625,C,0.907817794,1,H,20,NaN,5,69
2,2,1,1,0.993164063,0,1,0,1,816.40625,176.7578125,0.81640625,I,0.875580445,1,H,20,NaN,5,70
2,2,2,1,0.719726563,1,1,1,0,639.6484375,80.078125,0.639648438,C,1.562055177,1,H,20,NaN,6,1
2,1,1,3,0.567871094,1,1,1,0,467.2851563,100.5859375,0.467285156,C,1.244330379,1,H,20,NaN,6,2
2,1,1,3,0.604980469,1,1,1,0,501.4648438,103.515625,0.501464844,C,1.066767911,1,H,20,NaN,6,3
2,2,2,4,0.550292969,1,1,1,0,471.1914063,79.1015625,0.471191406,C,1.245355233,1,H,20,NaN,6,4
2,2,2,4,0.549804688,1,1,1,0,468.75,81.0546875,0.46875,C,1.224655237,1,H,20,NaN,6,5
2,1,1,4,0.699707031,1,NaN,NaN,NaN,NaN,NaN,NaN,NaN,NaN,0,H,20,NaN,6,6
2,2,1,4,0.748046875,0,2,0,2,574.21875,173.828125,0.289550781,I I,1.243730379,1,H,20,NaN,6,7
2,1,2,2,0.600585938,0,1,0,1,510.2539063,90.33203125,0.510253906,I,1.196392742,1,H,20,NaN,6,8
2,2,2,4,0.461914063,1,1,1,0,384.765625,77.1484375,0.384765625,C,1.117467756,1,H,20,NaN,6,9
2,2,2,3,0.678222656,1,1,1,0,601.5625,76.66015625,0.6015625,C,1.081842763,1,H,20,NaN,6,10
2,1,1,4,0.926757813,1,1,1,0,806.1523438,120.6054688,0.806152344,C,1.258042877,1,H,20,NaN,6,11
2,1,1,2,0.763671875,1,1,1,0,669.4335938,94.23828125,0.669433594,C,1.089917907,1,H,20,NaN,6,12
2,2,2,2,0.959960938,1,1,1,0,851.5625,108.3984375,0.8515625,C,0.881992798,1,H,20,NaN,6,13
2,2,2,4,0.553710938,1,1,1,0,483.8867188,69.82421875,0.483886719,C,1.065080266,1,H,20,NaN,6,14
2,1,2,1,0.796875,0,1,0,1,714.3554688,82.51953125,0.714355469,I,0.969117783,1,H,20,NaN,6,15
2,1,2,1,0.89453125,0,1,0,1,776.8554688,117.6757813,0.776855469,I,0.839955306,1,H,20,NaN,6,16
2,2,2,4,0.919921875,1,1,1,0,809.5703125,110.3515625,0.809570313,C,0.900005295,1,H,20,NaN,6,17
2,1,1,4,0.573730469,1,1,1,0,485.8398438,87.890625,0.485839844,C,1.18553039,1,H,20,NaN,6,18
2,1,1,4,0.640625,1,1,1,0,515.1367188,125.4882813,0.515136719,C,0.90684294,1,H,20,NaN,6,19
2,2,2,2,0.902832031,1,1,1,0,830.078125,72.75390625,0.830078125,C,1.15059275,1,H,20,NaN,6,20
2,2,1,1,0.90625,0,1,0,1,790.5273438,115.7226563,0.790527344,I,0.945005433,1,H,20,NaN,6,21
2,1,1,1,0.717773438,1,1,1,0,626.953125,90.8203125,0.626953125,C,0.884530444,1,H,20,NaN,6,22
2,2,2,1,1.348144531,1,1,1,0,1209.472656,138.671875,1.209472656,C,1.235742735,1,H,20,NaN,6,23
2,1,1,4,0.71484375,1,1,1,0,610.3515625,104.4921875,0.610351563,C,0.929667936,1,H,20,NaN,6,24
2,2,2,2,1.244140625,1,3,3,0,1169.921875,74.21875,0.655273438,C C C,1.501130188,1,H,20,NaN,6,25
2,2,2,2,0.63671875,1,1,1,0,538.0859375,98.6328125,0.538085938,C,0.994230278,1,H,20,NaN,6,26
2,1,1,3,0.830078125,1,1,1,0,724.609375,105.46875,0.724609375,C,1.001042923,1,H,20,NaN,6,27
2,2,2,3,0.876953125,1,1,1,0,784.6679688,92.28515625,0.784667969,C,0.989642779,1,H,20,NaN,6,28
2,1,1,4,0.673339844,1,1,1,0,596.6796875,76.66015625,0.596679688,C,1.050655414,1,H,20,NaN,6,29
2,1,1,2,0.925292969,1,1,1,0,849.609375,75.68359375,0.849609375,C,1.161955394,1,H,20,NaN,6,30
2,1,1,4,0.536621094,1,1,1,0,456.5429688,80.078125,0.456542969,C,1.166555393,1,H,20,NaN,6,31
2,1,1,4,0.485351563,1,1,1,0,386.2304688,99.12109375,0.386230469,C,0.879867944,1,H,20,NaN,6,32
2,2,1,3,0.53125,0,1,0,1,412.109375,119.140625,0.412109375,I,0.815192956,1,H,20,NaN,6,33
2,2,2,2,1.077148438,1,2,2,0,995.1171875,82.03125,0.738769531,C C,0.919830292,1,H,20,NaN,6,34
2,2,1,3,0.535644531,0,1,0,1,384.2773438,151.3671875,0.384277344,I,1.165292893,1,H,20,NaN,6,35
2,2,2,4,0.691894531,1,1,1,0,560.546875,131.3476563,0.560546875,C,0.907417794,1,H,20,NaN,6,36
2,2,2,2,0.767578125,1,1,1,0,660.15625,107.421875,0.66015625,C,0.920767791,1,H,20,NaN,6,37
2,1,2,1,0.790039063,0,1,0,1,677.2460938,112.7929688,0.677246094,I,0.962992784,1,H,20,NaN,6,38
2,2,2,2,1.05078125,1,5,5,0,946.2890625,104.4921875,0.434570313,C C C C C,0.957180285,1,H,20,NaN,6,39
2,1,2,2,0.77734375,0,1,1,0,NaN,NaN,NaN,I,0.950330286,0,H,20,NaN,6,40
2,1,1,4,0.705078125,1,2,2,0,593.75,111.328125,0.528320313,C C,0.936280434,1,H,20,NaN,6,41
2,1,2,2,1.403808594,0,3,1,2,1285.15625,118.6523438,0.197265625,C I I,1.061105266,1,H,20,NaN,6,42
2,1,1,4,0.547851563,1,NaN,NaN,NaN,NaN,NaN,NaN,NaN,NaN,0,H,20,NaN,6,43
2,2,2,4,0.583007813,1,NaN,NaN,NaN,NaN,NaN,NaN,NaN,NaN,0,H,20,NaN,6,44
2,1,1,4,0.444824219,1,2,1,1,361.8164063,83.0078125,0.114746094,I C,1.1299554,1,H,20,NaN,6,45
2,1,1,4,0.331542969,1,1,1,0,221.1914063,110.3515625,0.221191406,C,1.100505405,1,H,20,NaN,6,46
2,2,2,4,0.4609375,1,1,1,0,388.1835938,72.75390625,0.388183594,C,1.226680237,1,H,20,NaN,6,47
2,2,2,1,0.825195313,1,NaN,NaN,NaN,NaN,NaN,NaN,NaN,NaN,0,H,20,NaN,6,48
2,2,2,1,0.557128906,1,NaN,NaN,NaN,NaN,NaN,NaN,NaN,NaN,0,H,20,NaN,6,49
2,2,2,2,0.967773438,1,1,1,0,828.125,139.6484375,0.828125,C,0.878605299,1,H,20,NaN,6,50
2,1,1,1,0.631347656,1,1,0,1,NaN,NaN,NaN,C,1.006992922,0,H,20,NaN,6,51
2,1,2,1,0.936035156,0,NaN,NaN,NaN,NaN,NaN,NaN,NaN,NaN,0,H,20,NaN,6,52
2,1,1,4,0.495117188,1,NaN,NaN,NaN,NaN,NaN,NaN,NaN,NaN,0,H,20,NaN,6,53
