Subj_idx,Stimulus,Response,Confidence,RT_dec,RT_conf,Difficulty,Condition,Accuracy,Response_key,Solution,Target,Anagram,Type_of_change,RT_covresp,Trial,Sol_letters,Target_letters
1,0,NaN,2,NaN,2.365,2,1,0,NaN,koniczyna,zakonnica,NYNICZKOA,changed,NaN,3,9,9
1,1,1,3,1.045,2.051,3,1,1,o,rachunek,rachunek,ENCKRHAU,none,NaN,4,8,8
1,1,1,NaN,0.466,NaN,3,1,1,o,cmentarz,cmentarz,RNACTMZE,none,NaN,5,8,8
1,1,1,4,0.092,1.637,3,1,1,o,bakteria,bakteria,AREIAKTB,none,NaN,6,8,8
1,1,1,4,1.45,1.921,3,1,1,o,dinozaur,dinozaur,OIDZUARN,none,NaN,7,8,8
1,0,1,3,1.832,2.362,1,1,0,o,stolnica,stolica,ILOTNCSA,added,NaN,8,8,7
1,1,1,3,1.596,1.245,3,1,1,o,nadzieja,nadzieja,ZDAEJNAI,none,NaN,9,8,8
1,0,NaN,NaN,NaN,NaN,1,1,0,NaN,bratanek,kabaret,RNATBKEA,added,NaN,10,8,7
1,0,1,1,2.623,0.61,0,1,0,o,doniczka,odznaka,OCDAIZKN,added&changed,NaN,11,8,7
1,0,1,2,1.364,2.987,1,1,0,o,koszula,kalosz,OULZKSA,added,NaN,12,7,6
1,1,NaN,4,NaN,2.41,3,1,0,NaN,trucizna,trucizna,CNRIZAUT,none,NaN,13,8,8
1,1,1,4,2.952,0.737,3,1,1,o,lakomstwo,lakomstwo,TLKOASOWM,none,NaN,14,9,9
1,0,NaN,4,NaN,1.975,2,1,0,NaN,czujnik,czajnik,KZIJUNC,changed,NaN,15,7,7
1,1,1,NaN,1.279,NaN,3,1,1,o,korytarz,korytarz,RTZKYARO,none,NaN,16,8,8
1,1,1,3,1.824,1.557,3,1,1,o,mieszkanie,mieszkanie,ZKESIAIENM,none,NaN,17,10,10
1,0,0,4,1.62,2.62,0,1,1,p,sniezyca,sciezka,ICEYZANS,added&changed,NaN,18,8,7
1,0,0,4,1.442,2.666,2,1,1,p,rakieta,karetka,RKEAIAT,changed,NaN,19,7,7
1,0,0,4,1.87,1.214,1,1,1,p,podstawa,dostawa,AODSTPAW,added,NaN,20,9,8
1,1,1,3,1.801,1.17,3,1,1,o,tabletka,tabletka,KTALAETB,none,NaN,21,8,8
1,0,1,3,1.079,1.403,1,1,0,o,uzdrowisko,skorowidz,ISDRKWOZUO,added,NaN,22,10,9
1,1,1,4,1.276,1.439,3,1,1,o,kurczak,kurczak,CKRAZKU,none,NaN,23,7,7
1,0,0,4,1.398,0.812,2,1,1,p,klamerka,kelnerka,ELAMKRKA,changed,NaN,24,8,8
1,0,0,4,1.087,2.679,2,1,1,p,bratowa,watroba,TRWAOBA,changed,NaN,25,7,7
1,1,1,4,1.087,0.762,3,1,1,o,kochanka ,kochanka ,AKNAOHCK,none,NaN,26,8,8
1,1,1,2,1.088,1.831,3,1,1,o,bankomat,bankomat,AKMOTABN,none,NaN,27,8,8
1,1,1,3,1.247,1.049,3,1,1,o,remanent,remanent,TRMNAENE,none,NaN,28,8,8
1,0,0,4,1.123,1.358,0,1,1,p,sliniak,slimak,IALNKIS,added&changed,NaN,29,7,6
1,1,1,4,0.371,0.485,3,1,1,o,dzielnica,dzielnica,NZLDIACIE,none,NaN,30,9,9
1,0,0,4,0.569,0.54,1,1,1,p,spotkanie,eksponat,TPNSKAOIE,added,NaN,31,9,8
1,0,0,4,0.648,0.909,2,1,1,p,zmiennik,ziemniak,NZIEKNMI,changed,NaN,32,8,8
1,0,0,4,0.655,0.882,0,1,1,p,kregoslup,skorupa,UGELROKSP,added&changed,NaN,33,9,7
1,0,0,4,0.214,0.142,1,1,1,p,katalog,lokata,KTGALOA,added,NaN,34,7,6
1,0,0,4,0.961,0.777,1,1,1,p,kosiarka,sikorka,RSKIOAKA,added,NaN,35,8,7
1,1,1,4,0.215,0.456,3,1,1,o,plantacja,plantacja,CJATLANPA,none,NaN,36,9,9
1,1,1,2,1.3,1.724,3,1,1,o,prowincja,prowincja,RPWIJNOAC,none,NaN,37,9,9
1,0,0,3,1.218,1.568,1,1,1,p,naparstek,pasterka,RAEKNSTPA,added,NaN,38,9,8
1,0,0,4,0.38,0.969,1,1,1,p,wanilia,lawina,WLNIAIA,added,NaN,39,7,6
1,1,1,4,0.858,0.331,3,1,1,o,parowka,parowka,RAOKAPW,none,NaN,40,7,7
1,1,1,3,0.793,0.926,3,1,1,o,klasztor,klasztor,ARLZOSTK,none,NaN,41,8,8
1,1,1,4,0.375,0.727,3,1,1,o,potrawa,potrawa,PAOATWR,none,NaN,42,7,7
2,0,NaN,NaN,NaN,NaN,2,1,0,NaN,potrawa,poprawa,PAOATWR,changed,NaN,3,7,7
2,1,1,4,1.687,2.542,3,1,1,p,klamerka,klamerka,ELAMKRKA,none,NaN,4,8,8
2,1,1,NaN,1.433,NaN,3,1,1,p,stolnica,stolnica,ILOTNCSA,none,NaN,5,8,8
2,1,1,3,1.372,2.918,3,1,1,p,podstawa,podstawa,AODSTPAW,none,NaN,6,9,9
2,1,NaN,NaN,NaN,NaN,3,1,0,NaN,czujnik,czujnik,KZIJUNC,none,NaN,7,7,7
2,1,1,NaN,0.812,NaN,3,1,1,p,koszula,koszula,OULZKSA,none,NaN,8,7,7
2,1,1,2,1.054,2.147,3,1,1,p,zmiennik,zmiennik,NZIEKNMI,none,NaN,9,8,8
2,0,1,3,0.7,1.924,1,1,0,p,bankomat,komnata,AKMOTABN,added,NaN,10,8,7
2,1,1,NaN,1.295,NaN,3,1,1,p,sniezyca,sniezyca,ICEYZANS,none,NaN,11,8,8
2,0,0,3,1.206,2.308,1,1,1,o,nadzieja,niedziela,ZDAEJNAI,added,NaN,12,8,7
2,1,1,2,0.864,2.593,3,1,1,p,sliniak,sliniak,IALNKIS,none,NaN,13,7,7
2,0,1,NaN,0.751,NaN,0,1,0,p,kochanka ,choinka,AKNAOHCK,added&changed,NaN,14,8,7
2,1,1,2,0.717,1.369,3,1,1,p,spotkanie,spotkanie,TPNSKAOIE,none,NaN,15,9,9
2,0,0,3,1.222,1.689,1,1,1,o,bakteria,bateria,AREIAKTB,added,NaN,16,8,7
2,1,1,2,0.668,1.292,3,1,1,p,naparstek,naparstek,RAEKNSTPA,none,NaN,17,9,9
2,0,1,3,0.796,1.879,1,1,0,p,cmentarz,tancerz,RNACTMZE,added,NaN,18,8,7
2,1,1,4,0.707,1.636,3,1,1,p,bratanek,bratanek,RNATBKEA,none,NaN,19,8,8
2,1,1,2,0.855,1.594,3,1,1,p,koniczyna,koniczyna,NYNICZKOA,none,NaN,20,9,9
2,0,0,2,0.904,1,1,1,1,o,dinozaur,rodzina,OIDZUARN,added,NaN,21,8,7
2,0,0,2,1.221,0.882,1,1,1,o,tabletka,baletka,KTALAETB,added,NaN,22,8,7
2,0,1,2,0.761,0.928,2,1,0,p,remanent,atrament,TRMNAENE,changed,NaN,23,8,8
2,0,0,2,0.404,1.673,2,1,1,o,prowincja,pracownik,RPWIJNOAC,changed,NaN,24,9,9
2,1,0,2,1.217,0.831,3,1,0,o,kosiarka,kosiarka,RSKIOAKA,none,NaN,25,8,8
2,0,0,1,0.745,2.512,1,1,1,o,korytarz,aktorzy,RTZKYARO,added,NaN,26,8,7
2,0,1,3,0.783,2.398,2,1,0,p,dzielnica,niedziela,NZLDIACIE,changed,NaN,27,9,9
2,0,0,2,1.449,1.051,2,1,1,o,klasztor,kloszard,ARLZOSTK,changed,NaN,28,8,8
2,1,1,3,0.664,2.634,3,1,1,p,katalog,katalog,KTGALOA,none,NaN,29,7,7
2,0,0,4,1.647,2.396,2,1,1,o,parowka,oprawka,RAOKAPW,changed,NaN,30,7,7
2,0,0,2,1.385,1.685,2,1,1,o,kurczak,kucharz,CKRAZKU,changed,NaN,31,7,7
2,1,1,3,1.739,2.167,3,1,1,p,bratowa,bratowa,TRWAOBA,none,NaN,32,7,7
2,1,1,3,1.106,1.874,3,1,1,p,rakieta,rakieta,RKEAIAT,none,NaN,33,7,7
2,1,1,4,1.182,1.685,3,1,1,p,wanilia,wanilia,WLNIAIA,none,NaN,34,7,7
2,1,1,3,1.04,1.715,3,1,1,p,doniczka,doniczka,OCDAIZKN,none,NaN,35,8,8
2,0,1,3,1.412,2.196,2,1,0,p,plantacja,policjant,CJATLANPA,changed,NaN,36,9,9
2,0,0,3,1.165,2.198,1,1,1,o,trucizna,intruz,CNRIZAUT,added,NaN,37,8,6
2,0,0,3,0.982,1.645,0,1,1,o,rachunek,rabunek,ENCKRHAU,added&changed,NaN,38,8,7
2,0,0,2,2.11,2.866,0,1,1,o,mieszkanie,zamieszki,ZKESIAIENM,added&changed,NaN,39,10,9
2,0,1,3,1.419,1.252,1,1,0,p,lakomstwo,klamstwo,TLKOASOWM,added,NaN,40,9,8
2,1,1,4,0.555,1.317,3,1,1,p,kregoslup,kregoslup,UGELROKSP,none,NaN,41,9,9
2,1,1,2,0.991,1.677,3,1,1,p,uzdrowisko,uzdrowisko,ISDRKWOZUO,none,NaN,42,10,10
3,0,0,NaN,1.341,NaN,0,2,1,p,sliniak,slimak,IALNKIS,added&changed,NaN,3,7,6
3,1,1,4,1.037,1.718,3,2,1,o,nadzieja,nadzieja,ZDAEJNAI,none,NaN,4,8,8
3,1,1,4,0.914,1.598,3,2,1,o,bakteria,bakteria,AREIAKTB,none,NaN,5,8,8
3,0,0,4,0.611,1.677,1,2,1,p,koszula,kalosz,OULZKSA,added,NaN,6,7,6
3,0,1,4,0.769,2.994,1,2,0,o,bratanek,kabaret,RNATBKEA,added,NaN,7,8,7
3,1,1,4,0.569,1.358,3,2,1,o,plantacja,plantacja,CJATLANPA,none,NaN,8,9,9
3,0,0,4,1.083,2.64,2,2,1,p,koniczyna,zakonnica,NYNICZKOA,changed,NaN,9,9,9
3,1,1,2,1.355,1.319,3,2,1,o,rachunek,rachunek,ENCKRHAU,none,NaN,10,8,8
3,1,1,2,1.389,1.53,3,2,1,o,prowincja,prowincja,RPWIJNOAC,none,NaN,11,9,9
3,0,1,2,1.509,1.797,0,2,0,o,sniezyca,sciezka,ICEYZANS,added&changed,NaN,12,8,7
3,1,1,4,0.6,1.6,3,2,1,o,parowka,parowka,RAOKAPW,none,NaN,13,7,7
3,0,0,NaN,0.945,NaN,2,2,1,p,klamerka,kelnerka,ELAMKRKA,changed,NaN,14,8,8
3,0,0,4,0.965,1.925,2,2,1,p,rakieta,karetka,RKEAIAT,changed,NaN,15,7,7
3,0,0,2,1.352,2.083,1,2,1,p,stolnica,stolica,ILOTNCSA,added,NaN,16,8,7
3,1,1,2,0.444,1.285,3,2,1,o,dzielnica,dzielnica,NZLDIACIE,none,NaN,17,9,9
3,1,1,2,0.605,1.254,3,2,1,o,mieszkanie,mieszkanie,ZKESIAIENM,none,NaN,18,10,10
3,0,1,2,0.77,1.478,2,2,0,o,zmiennik,ziemniak,NZIEKNMI,changed,NaN,19,8,8
3,1,1,4,1.31,1.78,3,2,1,o,bankomat,bankomat,AKMOTABN,none,NaN,20,8,8
3,1,1,2,0.596,1.012,3,2,1,o,kochanka ,kochanka ,AKNAOHCK,none,NaN,21,8,8
3,0,0,4,1.055,2.21,1,2,1,p,katalog,lokata,KTGALOA,added,NaN,22,7,6
3,0,0,3,0.755,1.846,1,2,1,p,naparstek,pasterka,RAEKNSTPA,added,NaN,23,9,8
3,1,1,4,0.808,1.043,3,2,1,o,dinozaur,dinozaur,OIDZUARN,none,NaN,24,8,8
3,0,1,1,1.628,1.965,2,2,0,o,czujnik,czajnik,KZIJUNC,changed,NaN,25,7,7
3,1,1,2,0.642,2.668,3,2,1,o,lakomstwo,lakomstwo,TLKOASOWM,none,NaN,26,9,9
3,1,0,2,2.144,1.246,3,2,0,p,trucizna,trucizna,CNRIZAUT,none,NaN,27,8,8
3,1,1,2,0.596,1.163,3,2,1,o,potrawa,potrawa,PAOATWR,none,NaN,28,7,7
3,1,1,2,1.631,0.818,3,2,1,o,cmentarz,cmentarz,RNACTMZE,none,NaN,29,8,8
3,0,0,4,0.717,2.081,1,2,1,p,kosiarka,sikorka,RSKIOAKA,added,NaN,30,8,7
3,1,1,2,0.726,1.839,3,2,1,o,remanent,remanent,TRMNAENE,none,NaN,31,8,8
3,0,0,4,1.587,1.163,0,2,1,p,kregoslup,skorupa,UGELROKSP,added&changed,NaN,32,9,7
3,1,1,3,1.08,0.971,3,2,1,o,korytarz,korytarz,RTZKYARO,none,NaN,33,8,8
3,0,0,3,0.647,1.524,1,2,1,p,spotkanie,eksponat,TPNSKAOIE,added,NaN,34,9,8
3,0,0,2,1.439,1.923,1,2,1,p,podstawa,dostawa,AODSTPAW,added,NaN,35,9,8
3,0,0,4,0.565,1.762,2,2,1,p,bratowa,watroba,TRWAOBA,changed,NaN,36,7,7
3,1,1,2,1.086,2.244,3,2,1,o,tabletka,tabletka,KTALAETB,none,NaN,37,8,8
3,1,1,4,0.595,1.43,3,2,1,o,kurczak,kurczak,CKRAZKU,none,NaN,38,7,7
3,0,1,2,0.414,1.445,1,2,0,o,uzdrowisko,skorowidz,ISDRKWOZUO,added,NaN,39,10,9
3,0,0,4,0.295,1.361,0,2,1,p,doniczka,odznaka,OCDAIZKN,added&changed,NaN,40,8,7
3,0,0,4,0.287,1.569,1,2,1,p,wanilia,lawina,WLNIAIA,added,NaN,41,7,6
3,1,1,2,1.188,2.177,3,2,1,o,klasztor,klasztor,ARLZOSTK,none,NaN,42,8,8
4,0,1,3,2.634,2.005,2,1,0,p,remanent,atrament,TRMNAENE,changed,NaN,3,8,8
4,0,0,3,2.75,2.162,0,1,1,o,kochanka ,choinka,AKNAOHCK,added&changed,NaN,4,8,7
4,1,NaN,3,NaN,2.391,3,1,0,NaN,uzdrowisko,uzdrowisko,ISDRKWOZUO,none,NaN,5,10,10
4,0,1,3,1.005,1.2,1,1,0,p,lakomstwo,klamstwo,TLKOASOWM,added,NaN,6,9,8
4,1,1,2,0.94,1.083,3,1,1,p,bratowa,bratowa,TRWAOBA,none,NaN,7,7,7
4,1,0,2,1.439,0.805,3,1,0,o,sliniak,sliniak,IALNKIS,none,NaN,8,7,7
4,0,0,2,0.805,1.324,0,1,1,o,rachunek,rabunek,ENCKRHAU,added&changed,NaN,9,8,7
4,1,1,3,0.538,1.914,3,1,1,p,stolnica,stolnica,ILOTNCSA,none,NaN,10,8,8
4,1,1,4,2.4,2.242,3,1,1,p,wanilia,wanilia,WLNIAIA,none,NaN,11,7,7
4,1,1,4,0.336,0.699,3,1,1,p,kregoslup,kregoslup,UGELROKSP,none,NaN,12,9,9
4,1,1,4,0.848,0.377,3,1,1,p,czujnik,czujnik,KZIJUNC,none,NaN,13,7,7
4,0,0,2,0.497,1.089,2,1,1,o,prowincja,pracownik,RPWIJNOAC,changed,NaN,14,9,9
4,0,0,2,2.154,1.555,1,1,1,o,nadzieja,niedziela,ZDAEJNAI,added,NaN,15,8,7
4,1,1,3,1.119,0.778,3,1,1,p,podstawa,podstawa,AODSTPAW,none,NaN,16,9,9
4,0,1,1,0.5,1.015,2,1,0,p,potrawa,poprawa,PAOATWR,changed,NaN,17,7,7
4,0,0,4,1.024,0.728,2,1,1,o,dzielnica,niedziela,NZLDIACIE,changed,NaN,18,9,9
4,1,1,2,0.409,1.442,3,1,1,p,doniczka,doniczka,OCDAIZKN,none,NaN,19,8,8
4,1,1,3,1.658,1.085,3,1,1,p,naparstek,naparstek,RAEKNSTPA,none,NaN,20,9,9
4,1,0,2,1.748,1.289,3,1,0,o,spotkanie,spotkanie,TPNSKAOIE,none,NaN,21,9,9
4,1,0,1,0.77,1,3,1,0,o,sniezyca,sniezyca,ICEYZANS,none,NaN,22,8,8
4,0,0,2,0.885,0.817,1,1,1,o,trucizna,intruz,CNRIZAUT,added,NaN,23,8,6
4,0,1,3,0.455,1.201,1,1,0,p,cmentarz,tancerz,RNACTMZE,added,NaN,24,8,7
4,1,1,4,0.922,0.408,3,1,1,p,rakieta,rakieta,RKEAIAT,none,NaN,25,7,7
4,1,1,4,0.854,0.486,3,1,1,p,kosiarka,kosiarka,RSKIOAKA,none,NaN,26,8,8
4,1,0,2,0.331,1.408,3,1,0,o,bratanek,bratanek,RNATBKEA,none,NaN,27,8,8
4,0,0,2,0.174,1.362,0,1,1,o,mieszkanie,zamieszki,ZKESIAIENM,added&changed,NaN,28,10,9
4,0,0,4,1.16,0.547,2,1,1,o,parowka,oprawka,RAOKAPW,changed,NaN,29,7,7
4,0,0,3,0.854,1.2,1,1,1,o,bakteria,bateria,AREIAKTB,added,NaN,30,8,7
4,1,NaN,4,NaN,1.819,3,1,0,NaN,koniczyna,koniczyna,NYNICZKOA,none,NaN,31,9,9
4,0,0,2,1.754,1.795,2,1,1,o,klasztor,kloszard,ARLZOSTK,changed,NaN,32,8,8
4,1,1,4,0.537,0.922,3,1,1,p,katalog,katalog,KTGALOA,none,NaN,33,7,7
4,0,NaN,3,NaN,0.778,2,1,0,NaN,kurczak,kucharz,CKRAZKU,changed,NaN,34,7,7
4,0,0,2,0.617,1.649,2,1,1,o,plantacja,policjant,CJATLANPA,changed,NaN,35,9,9
4,0,0,1,1.16,1.998,1,1,1,o,tabletka,baletka,KTALAETB,added,NaN,36,8,7
4,0,NaN,NaN,NaN,NaN,1,1,0,NaN,bankomat,komnata,AKMOTABN,added,NaN,37,8,7
4,1,1,4,1.359,0.539,3,1,1,p,koszula,koszula,OULZKSA,none,NaN,38,7,7
4,1,1,4,0.454,0.406,3,1,1,p,klamerka,klamerka,ELAMKRKA,none,NaN,39,8,8
4,0,0,4,1.015,0.496,1,1,1,o,korytarz,aktorzy,RTZKYARO,added,NaN,40,8,7
4,1,1,2,1.128,0.732,3,1,1,p,zmiennik,zmiennik,NZIEKNMI,none,NaN,41,8,8
4,0,0,3,0.169,0.857,1,1,1,o,dinozaur,rodzina,OIDZUARN,added,NaN,42,8,7
5,0,1,NaN,2.937,NaN,1,1,0,o,nadzieja,niedziela,ZDAEJNAI,added,NaN,3,8,7
5,0,1,4,0.584,1.168,1,1,0,o,bakteria,bateria,AREIAKTB,added,NaN,4,8,7
5,0,0,3,0.729,0.986,2,1,1,p,prowincja,pracownik,RPWIJNOAC,changed,NaN,5,9,9
5,0,1,3,1.349,0.989,0,1,0,o,mieszkanie,zamieszki,ZKESIAIENM,added&changed,NaN,6,10,9
5,0,1,3,0.814,1.037,1,1,0,o,lakomstwo,klamstwo,TLKOASOWM,added,NaN,7,9,8
5,1,1,4,1.4,0.878,3,1,1,o,doniczka,doniczka,OCDAIZKN,none,NaN,8,8,8
5,0,0,2,1.439,2.036,1,1,1,p,trucizna,intruz,CNRIZAUT,added,NaN,9,8,6
5,0,0,4,1.647,0.589,2,1,1,p,remanent,atrament,TRMNAENE,changed,NaN,10,8,8
5,1,1,2,2.523,1.189,3,1,1,o,koszula,koszula,OULZKSA,none,NaN,11,7,7
5,1,0,4,1.661,0.793,3,1,0,p,klamerka,klamerka,ELAMKRKA,none,NaN,12,8,8
5,1,0,4,1.075,0.455,3,1,0,p,sliniak,sliniak,IALNKIS,none,NaN,13,7,7
5,1,1,3,2.018,1.457,3,1,1,o,spotkanie,spotkanie,TPNSKAOIE,none,NaN,14,9,9
5,0,NaN,1,NaN,2.022,1,1,0,NaN,cmentarz,tancerz,RNACTMZE,added,NaN,15,8,7
5,0,1,3,1.896,1.291,1,1,0,o,dinozaur,rodzina,OIDZUARN,added,NaN,16,8,7
5,1,0,1,1.911,1.466,3,1,0,p,katalog,katalog,KTGALOA,none,NaN,17,7,7
5,0,0,4,1.052,0.338,1,1,1,p,korytarz,aktorzy,RTZKYARO,added,NaN,18,8,7
5,1,1,4,0.887,0.355,3,1,1,o,uzdrowisko,uzdrowisko,ISDRKWOZUO,none,NaN,19,10,10
5,1,1,4,0.477,1.161,3,1,1,o,sniezyca,sniezyca,ICEYZANS,none,NaN,20,8,8
5,1,0,2,1.665,1.133,3,1,0,p,bratowa,bratowa,TRWAOBA,none,NaN,21,7,7
5,0,0,4,0.691,0.47,2,1,1,p,plantacja,policjant,CJATLANPA,changed,NaN,22,9,9
5,1,1,3,1.051,1.968,3,1,1,o,koniczyna,koniczyna,NYNICZKOA,none,NaN,23,9,9
5,1,1,4,0.527,0.568,3,1,1,o,kregoslup,kregoslup,UGELROKSP,none,NaN,24,9,9
5,0,0,2,1.021,2.324,1,1,1,p,bankomat,komnata,AKMOTABN,added,NaN,25,8,7
5,1,1,4,0.49,0.95,3,1,1,o,zmiennik,zmiennik,NZIEKNMI,none,NaN,26,8,8
5,1,1,4,0.898,0.989,3,1,1,o,kosiarka,kosiarka,RSKIOAKA,none,NaN,27,8,8
5,1,1,2,2.666,0.895,3,1,1,o,bratanek,bratanek,RNATBKEA,none,NaN,28,8,8
5,0,0,1,1.175,1.063,2,1,1,p,klasztor,kloszard,ARLZOSTK,changed,NaN,29,8,8
5,0,1,2,2.294,1.45,1,1,0,o,tabletka,baletka,KTALAETB,added,NaN,30,8,7
5,0,0,4,0.915,1.166,0,1,1,p,rachunek,rabunek,ENCKRHAU,added&changed,NaN,31,8,7
5,1,1,2,2.157,1.366,3,1,1,o,podstawa,podstawa,AODSTPAW,none,NaN,32,9,9
5,1,1,3,1.411,1.354,3,1,1,o,rakieta,rakieta,RKEAIAT,none,NaN,33,7,7
5,0,0,4,0.968,1.425,0,1,1,p,kochanka ,choinka,AKNAOHCK,added&changed,NaN,34,8,7
5,1,0,3,0.731,0.765,3,1,0,p,naparstek,naparstek,RAEKNSTPA,none,NaN,35,9,9
5,1,0,1,1.005,0.789,3,1,0,p,stolnica,stolnica,ILOTNCSA,none,NaN,36,8,8
5,0,1,2,1.304,1.027,2,1,0,o,dzielnica,niedziela,NZLDIACIE,changed,NaN,37,9,9
5,0,0,4,1.264,0.861,2,1,1,p,parowka,oprawka,RAOKAPW,changed,NaN,38,7,7
5,0,0,4,0.768,0.609,2,1,1,p,kurczak,kucharz,CKRAZKU,changed,NaN,39,7,7
5,0,0,2,0.845,1.322,2,1,1,p,potrawa,poprawa,PAOATWR,changed,NaN,40,7,7
5,1,1,4,1.024,1.062,3,1,1,o,czujnik,czujnik,KZIJUNC,none,NaN,41,7,7
5,1,1,2,1.648,0.557,3,1,1,o,wanilia,wanilia,WLNIAIA,none,NaN,42,7,7
6,1,NaN,NaN,NaN,NaN,3,1,0,NaN,prowincja,prowincja,RPWIJNOAC,none,NaN,3,9,9
6,0,NaN,2,NaN,2.524,1,1,0,NaN,stolnica,stolica,ILOTNCSA,added,NaN,4,8,7
6,0,1,2,2.57,1.95,1,1,0,o,uzdrowisko,skorowidz,ISDRKWOZUO,added,NaN,5,10,9
6,1,NaN,1,NaN,2.264,3,1,0,NaN,klasztor,klasztor,ARLZOSTK,none,NaN,6,8,8
6,1,0,1,2.264,1.367,3,1,0,p,korytarz,korytarz,RTZKYARO,none,NaN,7,8,8
6,1,1,4,0.788,1.12,3,1,1,o,potrawa,potrawa,PAOATWR,none,NaN,8,7,7
6,1,1,3,1.026,1.204,3,1,1,o,lakomstwo,lakomstwo,TLKOASOWM,none,NaN,9,9,9
6,0,0,1,2.428,1.642,1,1,1,p,koszula,kalosz,OULZKSA,added,NaN,10,7,6
6,1,1,4,0.435,0.737,3,1,1,o,parowka,parowka,RAOKAPW,none,NaN,11,7,7
6,0,0,4,1.386,0.699,2,1,1,p,zmiennik,ziemniak,NZIEKNMI,changed,NaN,12,8,8
6,1,1,3,1.5,1.131,3,1,1,o,bankomat,bankomat,AKMOTABN,none,NaN,13,8,8
6,0,0,1,1.474,0.647,1,1,1,p,kosiarka,sikorka,RSKIOAKA,added,NaN,14,8,7
6,0,0,4,1.569,0.588,2,1,1,p,bratowa,watroba,TRWAOBA,changed,NaN,15,7,7
6,1,1,2,1.189,0.705,3,1,1,o,kurczak,kurczak,CKRAZKU,none,NaN,16,7,7
6,0,0,4,1.731,0.535,0,1,1,p,sliniak,slimak,IALNKIS,added&changed,NaN,17,7,6
6,0,0,NaN,2.422,NaN,1,1,1,p,spotkanie,eksponat,TPNSKAOIE,added,NaN,18,9,8
6,0,0,2,1.58,1.054,2,1,1,p,czujnik,czajnik,KZIJUNC,changed,NaN,19,7,7
6,1,0,3,1.666,0.528,3,1,0,p,remanent,remanent,TRMNAENE,none,NaN,20,8,8
6,1,NaN,2,NaN,0.751,3,1,0,NaN,mieszkanie,mieszkanie,ZKESIAIENM,none,NaN,21,10,10
6,1,1,3,1.193,0.69,3,1,1,o,dinozaur,dinozaur,OIDZUARN,none,NaN,22,8,8
6,0,0,4,1.097,0.534,1,1,1,p,bratanek,kabaret,RNATBKEA,added,NaN,23,8,7
6,1,0,3,1.802,1.032,3,1,0,p,nadzieja,nadzieja,ZDAEJNAI,none,NaN,24,8,8
6,1,0,2,1.811,0.828,3,1,0,p,bakteria,bakteria,AREIAKTB,none,NaN,25,8,8
6,0,0,2,2.937,1,1,1,1,p,katalog,lokata,KTGALOA,added,NaN,26,7,6
6,1,NaN,2,NaN,1.424,3,1,0,NaN,kochanka ,kochanka ,AKNAOHCK,none,NaN,27,8,8
6,1,0,2,2.692,0.609,3,1,0,p,cmentarz,cmentarz,RNACTMZE,none,NaN,28,8,8
6,1,1,2,1.111,1.363,3,1,1,o,dzielnica,dzielnica,NZLDIACIE,none,NaN,29,9,9
6,1,1,2,1.199,0.576,3,1,1,o,trucizna,trucizna,CNRIZAUT,none,NaN,30,8,8
6,1,NaN,1,NaN,1.495,3,1,0,NaN,rachunek,rachunek,ENCKRHAU,none,NaN,31,8,8
6,0,NaN,3,NaN,2.685,2,1,0,NaN,rakieta,karetka,RKEAIAT,changed,NaN,32,7,7
6,0,0,3,1.586,0.802,0,1,1,p,sniezyca,sciezka,ICEYZANS,added&changed,NaN,33,8,7
6,1,0,2,1.757,0.924,3,1,0,p,tabletka,tabletka,KTALAETB,none,NaN,34,8,8
6,0,0,4,0.797,0.456,2,1,1,p,klamerka,kelnerka,ELAMKRKA,changed,NaN,35,8,8
6,0,0,4,0.83,0.495,1,1,1,p,podstawa,dostawa,AODSTPAW,added,NaN,36,9,8
6,0,1,1,2.384,0.697,0,1,0,o,doniczka,odznaka,OCDAIZKN,added&changed,NaN,37,8,7
6,0,0,2,2.697,0.772,0,1,1,p,kregoslup,skorupa,UGELROKSP,added&changed,NaN,38,9,7
6,1,NaN,1,NaN,0.834,3,1,0,NaN,plantacja,plantacja,CJATLANPA,none,NaN,39,9,9
6,0,0,2,1.505,0.685,1,1,1,p,naparstek,pasterka,RAEKNSTPA,added,NaN,40,9,8
6,0,NaN,4,NaN,0.926,1,1,0,NaN,wanilia,lawina,WLNIAIA,added,NaN,41,7,6
6,0,0,4,1.793,0.57,2,1,1,p,koniczyna,zakonnica,NYNICZKOA,changed,NaN,42,9,9
7,0,NaN,1,NaN,2.775,1,3,0,NaN,bankomat,komnata,AKMOTABN,added,1784,3,8,7
7,1,NaN,3,NaN,2.77,3,3,0,NaN,kosiarka,kosiarka,RSKIOAKA,none,1478,4,8,8
7,1,1,3,0.845,2.039,3,3,1,p,podstawa,podstawa,AODSTPAW,none,0,5,9,9
7,0,0,1,1.034,1.295,2,3,1,o,remanent,atrament,TRMNAENE,changed,1936,6,8,8
7,1,NaN,NaN,NaN,NaN,3,3,0,NaN,wanilia,wanilia,WLNIAIA,none,1699,7,7,7
7,1,1,2,1.238,1.137,3,3,1,p,czujnik,czujnik,KZIJUNC,none,1437,8,7,7
7,1,0,1,1.436,1.102,3,3,0,o,spotkanie,spotkanie,TPNSKAOIE,none,1459,9,9,9
7,1,1,1,1.358,1.586,3,3,1,p,koszula,koszula,OULZKSA,none,0,10,7,7
7,1,NaN,2,NaN,1.592,3,3,0,NaN,sniezyca,sniezyca,ICEYZANS,none,0,11,8,8
7,0,0,3,1.166,1.376,1,3,1,o,tabletka,baletka,KTALAETB,added,1456,12,8,7
7,0,0,4,0.889,1.426,1,3,1,o,lakomstwo,klamstwo,TLKOASOWM,added,1732,13,9,8
7,0,1,2,1.157,1.55,1,3,0,p,cmentarz,tancerz,RNACTMZE,added,0,14,8,7
7,0,0,4,0.677,1.863,2,3,1,o,plantacja,policjant,CJATLANPA,changed,1799,15,9,9
7,0,NaN,1,NaN,1.819,2,3,0,NaN,prowincja,pracownik,RPWIJNOAC,changed,1380,16,9,9
7,1,1,2,0.954,2.329,3,3,1,p,sliniak,sliniak,IALNKIS,none,1290,17,7,7
7,0,NaN,4,NaN,1.259,1,3,0,NaN,korytarz,aktorzy,RTZKYARO,added,1290,18,8,7
7,1,0,1,1.283,1.224,3,3,0,o,doniczka,doniczka,OCDAIZKN,none,1061,19,8,8
7,1,1,2,0.796,1.396,3,3,1,p,koniczyna,koniczyna,NYNICZKOA,none,0,20,9,9
7,0,0,3,0.763,1.62,0,3,1,o,kochanka ,choinka,AKNAOHCK,added&changed,977,21,8,7
7,1,1,4,0.962,1.421,3,3,1,p,kregoslup,kregoslup,UGELROKSP,none,1094,22,9,9
7,0,0,4,0.926,1.891,2,3,1,o,potrawa,poprawa,PAOATWR,changed,1888,23,7,7
7,0,NaN,4,NaN,1.225,1,3,0,NaN,nadzieja,niedziela,ZDAEJNAI,added,2480,24,8,7
7,0,0,4,0.85,1.143,2,3,1,o,parowka,oprawka,RAOKAPW,changed,1810,25,7,7
7,1,NaN,1,NaN,1.22,3,3,0,NaN,rakieta,rakieta,RKEAIAT,none,2558,26,7,7
7,1,1,2,0.957,1.533,3,3,1,p,naparstek,naparstek,RAEKNSTPA,none,1453,27,9,9
7,0,1,2,1.071,1.095,0,3,0,p,mieszkanie,zamieszki,ZKESIAIENM,added&changed,1851,28,10,9
7,0,0,4,1,1.769,0,3,1,o,rachunek,rabunek,ENCKRHAU,added&changed,1685,29,8,7
7,1,0,2,1.087,1.394,3,3,0,o,katalog,katalog,KTGALOA,none,0,30,7,7
7,1,1,2,0.954,1.145,3,3,1,p,bratanek,bratanek,RNATBKEA,none,0,31,8,8
7,1,1,4,0.723,1.102,3,3,1,p,klamerka,klamerka,ELAMKRKA,none,776,32,8,8
7,0,1,2,1.008,1.811,2,3,0,p,dzielnica,niedziela,NZLDIACIE,changed,2287,33,9,9
7,1,NaN,2,NaN,1.129,3,3,0,NaN,bratowa,bratowa,TRWAOBA,none,1250,34,7,7
7,1,1,1,1.472,1.666,3,3,1,p,uzdrowisko,uzdrowisko,ISDRKWOZUO,none,0,35,10,10
7,1,0,3,1.041,1.986,3,3,0,o,stolnica,stolnica,ILOTNCSA,none,0,36,8,8
7,1,1,2,0.746,1.858,3,3,1,p,zmiennik,zmiennik,NZIEKNMI,none,0,37,8,8
7,0,1,2,1.017,0.986,1,3,0,p,bakteria,bateria,AREIAKTB,added,0,38,8,7
7,0,1,2,0.549,2.326,2,3,0,p,klasztor,kloszard,ARLZOSTK,changed,2487,39,8,8
7,0,0,2,1.312,1.03,2,3,1,o,kurczak,kucharz,CKRAZKU,changed,0,40,7,7
7,0,0,2,0.774,1.611,1,3,1,o,dinozaur,rodzina,OIDZUARN,added,1652,41,8,7
7,0,1,2,0.809,1.109,1,3,0,p,trucizna,intruz,CNRIZAUT,added,0,42,8,6
8,0,0,3,2.444,1.547,1,1,1,o,tabletka,baletka,KTALAETB,added,NaN,3,8,7
8,1,NaN,4,NaN,1.932,3,1,0,NaN,wanilia,wanilia,WLNIAIA,none,NaN,4,7,7
8,0,0,4,0.829,0.617,0,1,1,o,kochanka,choinka,AKNAOHCK,added&changed,NaN,5,8,7
8,1,1,4,0.739,0.848,3,1,1,p,podstawa,podstawa,AODSTPAW,none,NaN,6,9,9
8,1,1,4,0.982,0.615,3,1,1,p,kregoslup,kregoslup,UGELROKSP,none,NaN,7,9,9
8,1,1,4,0.574,0.448,3,1,1,p,koszula,koszula,OULZKSA,none,NaN,8,7,7
8,1,1,3,1.106,1.71,3,1,1,p,stolnica,stolnica,ILOTNCSA,none,NaN,9,8,8
8,0,0,4,0.952,0.758,1,1,1,o,nadzieja,niedziela,ZDAEJNAI,added,NaN,10,8,7
8,0,NaN,1,NaN,1.244,1,1,0,NaN,lakomstwo,klamstwo,TLKOASOWM,added,NaN,11,9,8
8,1,1,2,1.167,0.836,3,1,1,p,zmiennik,zmiennik,NZIEKNMI,none,NaN,12,8,8
8,1,1,4,0.42,0.721,3,1,1,p,sniezyca,sniezyca,ICEYZANS,none,NaN,13,8,8
8,0,0,4,1.175,1.081,2,1,1,o,potrawa,poprawa,PAOATWR,changed,NaN,14,7,7
8,0,0,4,0.93,0.692,2,1,1,o,parowka,oprawka,RAOKAPW,changed,NaN,15,7,7
8,1,1,3,0.977,0.925,3,1,1,p,czujnik,czujnik,KZIJUNC,none,NaN,16,7,7
8,0,0,4,1.145,0.713,1,1,1,o,bakteria,bateria,AREIAKTB,added,NaN,17,8,7
8,0,0,4,1.158,0.709,1,1,1,o,dinozaur,rodzina,OIDZUARN,added,NaN,18,8,7
8,1,1,3,1.316,1.033,3,1,1,p,naparstek,naparstek,RAEKNSTPA,none,NaN,19,9,9
8,1,NaN,2,NaN,1.67,3,1,0,NaN,spotkanie,spotkanie,TPNSKAOIE,none,NaN,20,9,9
8,1,1,4,0.661,0.531,3,1,1,p,koniczyna,koniczyna,NYNICZKOA,none,NaN,21,9,9
8,1,1,4,0.693,0.933,3,1,1,p,klamerka,klamerka,ELAMKRKA,none,NaN,22,8,8
8,0,0,4,2.319,1.194,2,1,1,o,kurczak,kucharz,CKRAZKU,changed,NaN,23,7,7
8,0,0,4,0.936,1.195,0,1,1,o,mieszkanie,zamieszki,ZKESIAIENM,added&changed,NaN,24,10,9
8,1,1,2,2.091,1.001,3,1,1,p,uzdrowisko,uzdrowisko,ISDRKWOZUO,none,NaN,25,10,10
8,0,0,4,0.741,0.765,2,1,1,o,plantacja,policjant,CJATLANPA,changed,NaN,26,9,9
8,1,1,4,0.545,0.571,3,1,1,p,sliniak,sliniak,IALNKIS,none,NaN,27,7,7
8,1,0,2,2.352,0.996,3,1,0,o,doniczka,doniczka,OCDAIZKN,none,NaN,28,8,8
8,0,0,4,1.085,1.035,1,1,1,o,bankomat,komnata,AKMOTABN,added,NaN,29,8,7
8,1,1,3,1.878,1.321,3,1,1,p,bratowa,bratowa,TRWAOBA,none,NaN,30,7,7
8,1,1,3,2.604,2.737,3,1,1,p,katalog,katalog,KTGALOA,none,NaN,31,7,7
8,1,1,3,2.035,0.679,3,1,1,p,rakieta,rakieta,RKEAIAT,none,NaN,32,7,7
8,0,0,4,0.862,0.69,0,1,1,o,rachunek,rabunek,ENCKRHAU,added&changed,NaN,33,8,7
8,0,0,4,0.968,0.601,2,1,1,o,prowincja,pracownik,RPWIJNOAC,changed,NaN,34,9,9
8,0,0,4,0.934,0.838,1,1,1,o,trucizna,intruz,CNRIZAUT,added,NaN,35,8,6
8,0,0,NaN,1.922,NaN,2,1,1,o,dzielnica,niedziela,NZLDIACIE,changed,NaN,36,9,9
8,0,0,4,1.215,1.128,2,1,1,o,klasztor,kloszard,ARLZOSTK,changed,NaN,37,8,8
8,1,1,4,0.699,0.456,3,1,1,p,kosiarka,kosiarka,RSKIOAKA,none,NaN,38,8,8
8,0,1,2,2.013,1.798,1,1,0,p,cmentarz,tancerz,RNACTMZE,added,NaN,39,8,7
8,0,0,2,1.806,0.883,2,1,1,o,remanent,atrament,TRMNAENE,changed,NaN,40,8,8
8,1,1,3,0.897,0.986,3,1,1,p,bratanek,bratanek,RNATBKEA,none,NaN,41,8,8
8,0,0,4,1.343,0.648,1,1,1,o,korytarz,aktorzy,RTZKYARO,added,NaN,42,8,7
9,1,1,3,0.903,1.776,3,2,1,p,naparstek,naparstek,RAEKNSTPA,none,NaN,3,9,9
9,0,1,2,0.819,1.621,2,2,0,p,dzielnica,niedziela,NZLDIACIE,changed,NaN,4,9,9
9,1,1,2,0.683,1.697,3,2,1,p,uzdrowisko,uzdrowisko,ISDRKWOZUO,none,NaN,5,10,10
9,0,0,NaN,1.121,NaN,2,2,1,o,parowka,oprawka,RAOKAPW,changed,NaN,6,7,7
9,0,1,3,0.573,1.665,2,2,0,p,potrawa,poprawa,PAOATWR,changed,NaN,7,7,7
9,1,1,4,0.686,1.449,3,2,1,p,koniczyna,koniczyna,NYNICZKOA,none,NaN,8,9,9
9,1,1,3,0.615,1.225,3,2,1,p,koszula,koszula,OULZKSA,none,NaN,9,7,7
9,0,0,4,0.473,2.31,2,2,1,o,kurczak,kucharz,CKRAZKU,changed,NaN,10,7,7
9,1,1,4,0.447,1.267,3,2,1,p,klamerka,klamerka,ELAMKRKA,none,NaN,11,8,8
9,0,1,3,0.502,1.74,2,2,0,p,klasztor,kloszard,ARLZOSTK,changed,NaN,12,8,8
9,1,1,3,0.352,1.502,3,2,1,p,bratanek,bratanek,RNATBKEA,none,NaN,13,8,8
9,1,1,4,0.422,1.173,3,2,1,p,wanilia,wanilia,WLNIAIA,none,NaN,14,7,7
9,0,0,3,0.418,1.236,1,2,1,o,trucizna,intruz,CNRIZAUT,added,NaN,15,8,6
9,1,1,3,0.33,1.812,3,2,1,p,spotkanie,spotkanie,TPNSKAOIE,none,NaN,16,9,9
9,0,0,3,0.46,1.746,1,2,1,o,cmentarz,tancerz,RNACTMZE,added,NaN,17,8,7
9,0,0,3,0.469,1.973,1,2,1,o,dinozaur,rodzina,OIDZUARN,added,NaN,18,8,7
9,0,0,4,0.368,1.568,0,2,1,o,rachunek,rabunek,ENCKRHAU,added&changed,NaN,19,8,7
9,1,1,4,0.524,0.864,3,2,1,p,kregoslup,kregoslup,UGELROKSP,none,NaN,20,9,9
9,1,1,3,0.254,1.416,3,2,1,p,doniczka,doniczka,OCDAIZKN,none,NaN,21,8,8
9,1,1,4,0.465,0.936,3,2,1,p,kosiarka,kosiarka,RSKIOAKA,none,NaN,22,8,8
9,0,0,4,0.468,1.056,1,2,1,o,bankomat,komnata,AKMOTABN,added,NaN,23,8,7
9,1,1,4,0.317,0.832,3,2,1,p,katalog,katalog,KTGALOA,none,NaN,24,7,7
9,0,0,3,0.34,1.222,1,2,1,o,korytarz,aktorzy,RTZKYARO,added,NaN,25,8,7
9,0,0,4,0.431,1.017,2,2,1,o,plantacja,policjant,CJATLANPA,changed,NaN,26,9,9
9,1,1,3,0.251,1.329,3,2,1,p,zmiennik,zmiennik,NZIEKNMI,none,NaN,27,8,8
9,0,0,3,0.276,1.256,1,2,1,o,lakomstwo,klamstwo,TLKOASOWM,added,NaN,28,9,8
9,1,1,NaN,1.142,NaN,3,2,1,p,podstawa,podstawa,AODSTPAW,none,NaN,29,9,9
9,0,0,4,0.501,0.839,0,2,1,o,kochanka,choinka,AKNAOHCK,added&changed,NaN,30,8,7
9,1,1,4,0.667,0.529,3,2,1,p,sliniak,sliniak,IALNKIS,none,NaN,31,7,7
9,1,1,4,0.545,0.519,3,2,1,p,stolnica,stolnica,ILOTNCSA,none,NaN,32,8,8
9,1,1,4,0.45,0.603,3,2,1,p,rakieta,rakieta,RKEAIAT,none,NaN,33,7,7
9,0,0,4,0.479,0.934,1,2,1,o,bakteria,bateria,AREIAKTB,added,NaN,34,8,7
9,0,0,4,0.417,1.07,1,2,1,o,tabletka,baletka,KTALAETB,added,NaN,35,8,7
9,0,0,4,0.37,0.853,1,2,1,o,nadzieja,niedziela,ZDAEJNAI,added,NaN,36,8,7
9,1,0,3,0.634,1.078,3,2,0,o,sniezyca,sniezyca,ICEYZANS,none,NaN,37,8,8
9,1,1,4,0.41,0.911,3,2,1,p,czujnik,czujnik,KZIJUNC,none,NaN,38,7,7
9,1,1,3,0.446,1.133,3,2,1,p,bratowa,bratowa,TRWAOBA,none,NaN,39,7,7
9,0,1,2,0.491,1.212,2,2,0,p,remanent,atrament,TRMNAENE,changed,NaN,40,8,8
9,0,0,4,0.509,1.131,2,2,1,o,prowincja,pracownik,RPWIJNOAC,changed,NaN,41,9,9
9,0,0,3,0.691,1.388,0,2,1,o,mieszkanie,zamieszki,ZKESIAIENM,added&changed,NaN,42,10,9
10,1,1,3,1.552,2.536,3,2,1,o,czujnik,czujnik,KZIJUNC,none,NaN,3,7,7
10,0,0,NaN,1.354,NaN,2,2,1,p,potrawa,poprawa,PAOATWR,changed,NaN,4,7,7
10,0,1,3,2.486,1.592,1,2,0,o,tabletka,baletka,KTALAETB,added,NaN,5,8,7
10,0,0,4,0.976,1.521,0,2,1,p,kochanka,choinka,AKNAOHCK,added&changed,NaN,6,8,7
10,1,1,3,1.044,1.595,3,2,1,o,bratowa,bratowa,TRWAOBA,none,NaN,7,7,7
10,1,1,4,1.055,0.99,3,2,1,o,podstawa,podstawa,AODSTPAW,none,NaN,8,9,9
10,1,1,4,0.347,0.61,3,2,1,o,sliniak,sliniak,IALNKIS,none,NaN,9,7,7
10,0,0,2,2.252,2.355,1,2,1,p,korytarz,aktorzy,RTZKYARO,added,NaN,10,8,7
10,0,0,NaN,1.269,NaN,1,2,1,p,nadzieja,niedziela,ZDAEJNAI,added,NaN,11,8,7
10,0,0,NaN,0.77,NaN,2,2,1,p,remanent,atrament,TRMNAENE,changed,NaN,12,8,8
10,1,1,3,1.973,1.881,3,2,1,o,doniczka,doniczka,OCDAIZKN,none,NaN,13,8,8
10,0,0,4,2.486,1.507,2,2,1,p,dzielnica,niedziela,NZLDIACIE,changed,NaN,14,9,9
10,0,1,3,0.747,1.24,2,2,0,o,klasztor,kloszard,ARLZOSTK,changed,NaN,15,8,8
10,0,0,NaN,1.195,NaN,1,2,1,p,cmentarz,tancerz,RNACTMZE,added,NaN,16,8,7
10,1,1,NaN,1.246,NaN,3,2,1,o,uzdrowisko,uzdrowisko,ISDRKWOZUO,none,NaN,17,10,10
10,0,0,4,1.395,1.881,2,2,1,p,parowka,oprawka,RAOKAPW,changed,NaN,18,7,7
10,1,1,4,0.892,0.698,3,2,1,o,wanilia,wanilia,WLNIAIA,none,NaN,19,7,7
10,1,1,3,2.978,2.264,3,2,1,o,spotkanie,spotkanie,TPNSKAOIE,none,NaN,20,9,9
10,0,NaN,3,NaN,2.065,1,2,0,NaN,lakomstwo,klamstwo,TLKOASOWM,added,NaN,21,9,8
10,0,0,3,0.627,1.986,2,2,1,p,plantacja,policjant,CJATLANPA,changed,NaN,22,9,9
10,1,1,4,0.467,0.664,3,2,1,o,sniezyca,sniezyca,ICEYZANS,none,NaN,23,8,8
10,1,0,NaN,1.615,NaN,3,2,0,p,rakieta,rakieta,RKEAIAT,none,NaN,24,7,7
10,0,0,NaN,1.606,NaN,0,2,1,p,mieszkanie,zamieszki,ZKESIAIENM,added&changed,NaN,25,10,9
10,0,0,4,0.979,2.124,1,2,1,p,dinozaur,rodzina,OIDZUARN,added,NaN,26,8,7
10,0,1,NaN,0.749,NaN,0,2,0,o,rachunek,rabunek,ENCKRHAU,added&changed,NaN,27,8,7
10,0,0,4,1.279,1.132,1,2,1,p,trucizna,intruz,CNRIZAUT,added,NaN,28,8,6
10,1,1,4,0.936,0.67,3,2,1,o,kregoslup,kregoslup,UGELROKSP,none,NaN,29,9,9
10,1,1,4,0.301,0.543,3,2,1,o,kosiarka,kosiarka,RSKIOAKA,none,NaN,30,8,8
10,1,NaN,2,NaN,2.134,3,2,0,NaN,bratanek,bratanek,RNATBKEA,none,NaN,31,8,8
10,1,1,4,0.362,0.541,3,2,1,o,naparstek,naparstek,RAEKNSTPA,none,NaN,32,9,9
10,0,0,4,0.513,0.822,2,2,1,p,kurczak,kucharz,CKRAZKU,changed,NaN,33,7,7
10,0,0,2,1.056,1.439,1,2,1,p,bankomat,komnata,AKMOTABN,added,NaN,34,8,7
10,1,1,3,1.4,1.704,3,2,1,o,zmiennik,zmiennik,NZIEKNMI,none,NaN,35,8,8
10,0,0,NaN,0.954,NaN,1,2,1,p,bakteria,bateria,AREIAKTB,added,NaN,36,8,7
10,1,1,3,0.665,1.402,3,2,1,o,koszula,koszula,OULZKSA,none,NaN,37,7,7
10,1,1,3,1.008,1.397,3,2,1,o,koniczyna,koniczyna,NYNICZKOA,none,NaN,38,9,9
10,0,0,2,1.052,1.704,2,2,1,p,prowincja,pracownik,RPWIJNOAC,changed,NaN,39,9,9
10,1,1,4,0.32,0.571,3,2,1,o,klamerka,klamerka,ELAMKRKA,none,NaN,40,8,8
10,1,1,2,1.403,1.706,3,2,1,o,stolnica,stolnica,ILOTNCSA,none,NaN,41,8,8
10,1,1,4,0.316,0.517,3,2,1,o,katalog,katalog,KTGALOA,none,NaN,42,7,7
11,0,NaN,2,NaN,2.875,2,3,0,NaN,dzielnica,niedziela,NZLDIACIE,changed,1378,3,9,9
11,1,1,4,0.395,2.213,3,3,1,o,koszula,koszula,OULZKSA,none,790,4,7,7
11,1,0,NaN,0.837,NaN,3,3,0,p,naparstek,naparstek,RAEKNSTPA,none,898,5,9,9
11,1,1,2,0.809,1.594,3,3,1,o,bratowa,bratowa,TRWAOBA,none,1061,6,7,7
11,0,0,2,0.532,1.372,1,3,1,p,korytarz,aktorzy,RTZKYARO,added,646,7,8,7
11,0,0,1,0.58,1.739,2,3,1,p,remanent,atrament,TRMNAENE,changed,961,8,8,8
11,0,0,NaN,0.518,NaN,1,3,1,p,dinozaur,rodzina,OIDZUARN,added,1200,9,8,7
11,0,0,2,0.563,2.138,1,3,1,p,trucizna,intruz,CNRIZAUT,added,1077,10,8,6
11,1,1,4,0.461,1.682,3,3,1,o,klamerka,klamerka,ELAMKRKA,none,853,11,8,8
11,0,0,3,0.491,2.43,1,3,1,p,bakteria,bateria,AREIAKTB,added,1482,12,8,7
11,0,0,1,0.694,1.258,2,3,1,p,klasztor,kloszard,ARLZOSTK,changed,810,13,8,8
11,1,0,2,0.726,2.54,3,3,0,p,wanilia,wanilia,WLNIAIA,none,1596,14,7,7
11,1,0,1,0.981,0.573,3,3,0,p,bratanek,bratanek,RNATBKEA,none,1248,15,8,8
11,1,0,2,0.851,1.421,3,3,0,p,katalog,katalog,KTGALOA,none,997,16,7,7
11,1,1,1,1.341,1.349,3,3,1,o,uzdrowisko,uzdrowisko,ISDRKWOZUO,none,1455,17,10,10
11,1,1,4,0.386,1.304,3,3,1,o,zmiennik,zmiennik,NZIEKNMI,none,925,18,8,8
11,1,0,2,1.371,0.996,3,3,0,p,podstawa,podstawa,AODSTPAW,none,721,19,9,9
11,1,1,1,1.662,1.133,3,3,1,o,sniezyca,sniezyca,ICEYZANS,none,1047,20,8,8
11,1,0,1,0.326,0.424,3,3,0,p,doniczka,doniczka,OCDAIZKN,none,1192,21,8,8
11,1,1,4,0.906,1.911,3,3,1,o,koniczyna,koniczyna,NYNICZKOA,none,1825,22,9,9
11,0,NaN,3,NaN,2.001,1,3,0,NaN,tabletka,baletka,KTALAETB,added,1735,23,8,7
11,0,0,1,1.242,0.945,0,3,1,p,rachunek,rabunek,ENCKRHAU,added&changed,618,24,8,7
11,0,0,2,1.32,2.376,0,3,1,p,mieszkanie,zamieszki,ZKESIAIENM,added&changed,608,25,10,9
11,1,1,2,1.782,1.757,3,3,1,o,kregoslup,kregoslup,UGELROKSP,none,1797,26,9,9
11,0,0,2,0.718,1.433,0,3,1,p,kochanka,choinka,AKNAOHCK,added&changed,2409,27,8,7
11,0,0,4,0.762,1.795,1,3,1,p,cmentarz,tancerz,RNACTMZE,added,0,28,8,7
11,0,1,2,0.455,1.008,1,3,0,o,lakomstwo,klamstwo,TLKOASOWM,added,2268,29,9,8
11,0,1,3,0.76,0.992,2,3,0,o,prowincja,pracownik,RPWIJNOAC,changed,984,30,9,9
11,1,1,2,0.435,1.055,3,3,1,o,kosiarka,kosiarka,RSKIOAKA,none,832,31,8,8
11,0,0,3,0.32,0.734,2,3,1,p,kurczak,kucharz,CKRAZKU,changed,2282,32,7,7
11,1,1,3,0.534,1.057,3,3,1,o,rakieta,rakieta,RKEAIAT,none,2018,33,7,7
11,0,0,4,0.495,0.767,2,3,1,p,parowka,oprawka,RAOKAPW,changed,882,34,7,7
11,0,0,3,0.678,1.974,1,3,1,p,nadzieja,niedziela,ZDAEJNAI,added,2407,35,8,7
11,0,0,2,0.382,0.951,2,3,1,p,potrawa,poprawa,PAOATWR,changed,1558,36,7,7
11,1,0,3,0.595,1.021,3,3,0,p,spotkanie,spotkanie,TPNSKAOIE,none,1463,37,9,9
11,1,1,4,0.491,1.345,3,3,1,o,sliniak,sliniak,IALNKIS,none,952,38,7,7
11,0,0,3,0.404,1.288,1,3,1,p,bankomat,komnata,AKMOTABN,added,1526,39,8,7
11,0,1,3,0.316,1.147,2,3,0,o,plantacja,policjant,CJATLANPA,changed,2629,40,9,9
11,1,1,4,0.364,0.881,3,3,1,o,czujnik,czujnik,KZIJUNC,none,534,41,7,7
11,1,1,4,0.656,0.468,3,3,1,o,stolnica,stolnica,ILOTNCSA,none,505,42,8,8
12,0,0,4,1.521,1.552,2,2,1,p,prowincja,pracownik,RPWIJNOAC,changed,NaN,3,9,9
12,1,1,4,2.38,1.048,3,2,1,o,spotkanie,spotkanie,TPNSKAOIE,none,NaN,4,9,9
12,0,0,1,2.286,2.332,2,2,1,p,klasztor,kloszard,ARLZOSTK,changed,NaN,5,8,8
12,1,1,4,0.774,0.908,3,2,1,o,czujnik,czujnik,KZIJUNC,none,NaN,6,7,7
12,0,0,4,0.775,0.975,2,2,1,p,parowka,oprawka,RAOKAPW,changed,NaN,7,7,7
12,1,1,1,0.895,2.234,3,2,1,o,koszula,koszula,OULZKSA,none,NaN,8,7,7
12,1,1,4,1.518,1.216,3,2,1,o,kregoslup,kregoslup,UGELROKSP,none,NaN,9,9,9
12,0,1,1,0.89,1.562,2,2,0,o,remanent,atrament,TRMNAENE,changed,NaN,10,8,8
12,0,0,1,0.474,2.545,1,2,1,p,trucizna,intruz,CNRIZAUT,added,NaN,11,8,6
12,0,1,NaN,1.426,NaN,1,2,0,o,tabletka,baletka,KTALAETB,added,NaN,12,8,7
12,0,1,1,0.744,1.359,1,2,0,o,lakomstwo,klamstwo,TLKOASOWM,added,NaN,13,9,8
12,0,0,2,1.254,2.357,2,2,1,p,dzielnica,niedziela,NZLDIACIE,changed,NaN,14,9,9
12,0,1,2,0.726,2.741,1,2,0,o,cmentarz,tancerz,RNACTMZE,added,NaN,15,8,7
12,0,0,3,0.878,2.532,2,2,1,p,plantacja,policjant,CJATLANPA,changed,NaN,16,9,9
12,1,1,NaN,1.214,NaN,3,2,1,o,zmiennik,zmiennik,NZIEKNMI,none,NaN,17,8,8
12,0,0,1,1.073,2.32,0,2,1,p,mieszkanie,zamieszki,ZKESIAIENM,added&changed,NaN,18,10,9
12,1,1,2,0.866,1.736,3,2,1,o,kosiarka,kosiarka,RSKIOAKA,none,NaN,19,8,8
12,1,1,3,0.93,0.686,3,2,1,o,sniezyca,sniezyca,ICEYZANS,none,NaN,20,8,8
12,1,1,4,0.841,1.327,3,2,1,o,podstawa,podstawa,AODSTPAW,none,NaN,21,9,9
12,1,1,1,1.146,1.828,3,2,1,o,uzdrowisko,uzdrowisko,ISDRKWOZUO,none,NaN,22,10,10
12,0,0,1,0.47,1.542,1,2,1,p,nadzieja,niedziela,ZDAEJNAI,added,NaN,23,8,7
12,1,1,1,0.513,2.103,3,2,1,o,wanilia,wanilia,WLNIAIA,none,NaN,24,7,7
12,1,1,1,0.464,2.451,3,2,1,o,doniczka,doniczka,OCDAIZKN,none,NaN,25,8,8
12,1,1,4,0.835,1.487,3,2,1,o,koniczyna,koniczyna,NYNICZKOA,none,NaN,26,9,9
12,1,1,1,0.973,1.315,3,2,1,o,rakieta,rakieta,RKEAIAT,none,NaN,27,7,7
12,0,0,1,0.639,2.067,1,2,1,p,korytarz,aktorzy,RTZKYARO,added,NaN,28,8,7
12,1,1,3,1.179,1.546,3,2,1,o,stolnica,stolnica,ILOTNCSA,none,NaN,29,8,8
12,0,0,1,0.301,1.931,1,2,1,p,dinozaur,rodzina,OIDZUARN,added,NaN,30,8,7
12,0,0,2,0.873,1.861,0,2,1,p,rachunek,rabunek,ENCKRHAU,added&changed,NaN,31,8,7
12,1,1,4,0.627,0.821,3,2,1,o,katalog,katalog,KTGALOA,none,NaN,32,7,7
12,0,0,2,1.058,2.17,1,2,1,p,bankomat,komnata,AKMOTABN,added,NaN,33,8,7
12,1,0,4,0.537,2.927,3,2,0,p,sliniak,sliniak,IALNKIS,none,NaN,34,7,7
12,1,0,1,1.219,0.604,3,2,0,p,naparstek,naparstek,RAEKNSTPA,none,NaN,35,9,9
12,1,1,4,0.731,1.296,3,2,1,o,klamerka,klamerka,ELAMKRKA,none,NaN,36,8,8
12,0,0,4,0.607,1.717,1,2,1,p,bakteria,bateria,AREIAKTB,added,NaN,37,8,7
12,0,0,3,0.76,1.993,2,2,1,p,potrawa,poprawa,PAOATWR,changed,NaN,38,7,7
12,0,0,4,0.386,1.154,2,2,1,p,kurczak,kucharz,CKRAZKU,changed,NaN,39,7,7
12,1,0,1,0.624,1.801,3,2,0,p,bratanek,bratanek,RNATBKEA,none,NaN,40,8,8
12,1,1,1,0.811,1.645,3,2,1,o,bratowa,bratowa,TRWAOBA,none,NaN,41,7,7
12,0,0,4,0.332,1.146,0,2,1,p,kochanka,choinka,AKNAOHCK,added&changed,NaN,42,8,7
13,1,1,3,1.835,1.673,3,1,1,o,podstawa,podstawa,AODSTPAW,none,NaN,3,9,9
13,0,1,4,1.664,0.872,1,1,0,o,bakteria,bateria,AREIAKTB,added,NaN,4,8,7
13,1,1,3,1.686,0.745,3,1,1,o,bratowa,bratowa,TRWAOBA,none,NaN,5,7,7
13,0,1,2,1.929,0.505,2,1,0,o,kurczak,kucharz,CKRAZKU,changed,NaN,6,7,7
13,1,1,3,1.357,1.368,3,1,1,o,koniczyna,koniczyna,NYNICZKOA,none,NaN,7,9,9
13,0,0,2,1.782,0.756,1,1,1,p,cmentarz,tancerz,RNACTMZE,added,NaN,8,8,7
13,0,1,3,1.477,0.674,1,1,0,o,lakomstwo,klamstwo,TLKOASOWM,added,NaN,9,9,8
13,0,1,4,1.738,0.631,1,1,0,o,bankomat,komnata,AKMOTABN,added,NaN,10,8,7
13,0,0,2,2.825,1.137,0,1,1,p,rachunek,rabunek,ENCKRHAU,added&changed,NaN,11,8,7
13,0,1,4,1.352,0.588,2,1,0,o,plantacja,policjant,CJATLANPA,changed,NaN,12,9,9
13,1,1,4,1.446,0.444,3,1,1,o,spotkanie,spotkanie,TPNSKAOIE,none,NaN,13,9,9
13,0,1,4,1.246,0.716,0,1,0,o,kochanka,choinka,AKNAOHCK,added&changed,NaN,14,8,7
13,0,1,4,1.316,1.802,2,1,0,o,prowincja,pracownik,RPWIJNOAC,changed,NaN,15,9,9
13,1,1,4,1.231,0.601,3,1,1,o,sniezyca,sniezyca,ICEYZANS,none,NaN,16,8,8
13,1,1,3,2.435,1.092,3,1,1,o,naparstek,naparstek,RAEKNSTPA,none,NaN,17,9,9
13,1,1,3,2.71,0.789,3,1,1,o,zmiennik,zmiennik,NZIEKNMI,none,NaN,18,8,8
13,0,0,2,2.208,0.711,1,1,1,p,korytarz,aktorzy,RTZKYARO,added,NaN,19,8,7
13,1,1,4,1.395,0.638,3,1,1,o,katalog,katalog,KTGALOA,none,NaN,20,7,7
13,1,1,4,1.312,0.482,3,1,1,o,bratanek,bratanek,RNATBKEA,none,NaN,21,8,8
13,1,1,3,2.625,0.711,3,1,1,o,kosiarka,kosiarka,RSKIOAKA,none,NaN,22,8,8
13,0,1,4,1.363,0.637,1,1,0,o,tabletka,baletka,KTALAETB,added,NaN,23,8,7
13,1,1,2,1.787,0.706,3,1,1,o,stolnica,stolnica,ILOTNCSA,none,NaN,24,8,8
13,0,0,2,2.83,2.188,2,1,1,p,klasztor,kloszard,ARLZOSTK,changed,NaN,25,8,8
13,0,NaN,1,NaN,2.581,2,1,0,NaN,dzielnica,niedziela,NZLDIACIE,changed,NaN,26,9,9
13,1,NaN,NaN,NaN,NaN,3,1,0,NaN,doniczka,doniczka,OCDAIZKN,none,NaN,27,8,8
13,0,1,3,1.901,1.401,1,1,0,o,trucizna,intruz,CNRIZAUT,added,NaN,28,8,6
13,0,1,3,1.236,0.59,2,1,0,o,remanent,atrament,TRMNAENE,changed,NaN,29,8,8
13,1,1,NaN,1.89,NaN,3,1,1,o,rakieta,rakieta,RKEAIAT,none,NaN,30,7,7
13,0,0,2,1.78,1.142,0,1,1,p,mieszkanie,zamieszki,ZKESIAIENM,added&changed,NaN,31,10,9
13,1,1,4,1.31,0.573,3,1,1,o,koszula,koszula,OULZKSA,none,NaN,32,7,7
13,1,1,4,1.283,0.641,3,1,1,o,wanilia,wanilia,WLNIAIA,none,NaN,33,7,7
13,1,1,4,1.563,1.065,3,1,1,o,uzdrowisko,uzdrowisko,ISDRKWOZUO,none,NaN,34,10,10
13,1,1,4,1.516,0.991,3,1,1,o,kregoslup,kregoslup,UGELROKSP,none,NaN,35,9,9
13,0,0,4,1.83,1.723,2,1,1,p,parowka,oprawka,RAOKAPW,changed,NaN,36,7,7
13,1,1,4,1.345,0.636,3,1,1,o,sliniak,sliniak,IALNKIS,none,NaN,37,7,7
13,1,1,2,2.05,0.858,3,1,1,o,czujnik,czujnik,KZIJUNC,none,NaN,38,7,7
13,0,0,2,1.418,1.594,1,1,1,p,nadzieja,niedziela,ZDAEJNAI,added,NaN,39,8,7
13,1,1,4,1.214,1.647,3,1,1,o,klamerka,klamerka,ELAMKRKA,none,NaN,40,8,8
13,0,0,3,1.472,0.831,1,1,1,p,dinozaur,rodzina,OIDZUARN,added,NaN,41,8,7
13,0,0,2,2.125,0.711,2,1,1,p,potrawa,poprawa,PAOATWR,changed,NaN,42,7,7
14,1,1,4,1.827,2.397,3,1,1,o,podstawa,podstawa,AODSTPAW,none,NaN,3,9,9
14,1,NaN,NaN,NaN,NaN,3,1,0,NaN,bratanek,bratanek,RNATBKEA,none,NaN,4,8,8
14,0,NaN,1,NaN,2.075,0,1,0,NaN,mieszkanie,zamieszki,ZKESIAIENM,added&changed,NaN,5,10,9
14,1,1,3,2.116,1.894,3,1,1,o,rakieta,rakieta,RKEAIAT,none,NaN,6,7,7
14,1,1,NaN,1.454,NaN,3,1,1,o,uzdrowisko,uzdrowisko,ISDRKWOZUO,none,NaN,7,10,10
14,0,0,3,2.818,2.605,1,1,1,p,cmentarz,tancerz,RNACTMZE,added,NaN,8,8,7
14,0,0,4,1.736,2.192,0,1,1,p,rachunek,rabunek,ENCKRHAU,added&changed,NaN,9,8,7
14,1,NaN,4,NaN,2.36,3,1,0,NaN,sniezyca,sniezyca,ICEYZANS,none,NaN,10,8,8
14,0,1,3,2.188,1.956,2,1,0,o,prowincja,pracownik,RPWIJNOAC,changed,NaN,11,9,9
14,0,0,4,2.382,2.204,2,1,1,p,remanent,atrament,TRMNAENE,changed,NaN,12,8,8
14,0,0,4,2.114,1.512,2,1,1,p,potrawa,poprawa,PAOATWR,changed,NaN,13,7,7
14,0,0,4,2.707,1.362,1,1,1,p,trucizna,intruz,CNRIZAUT,added,NaN,14,8,6
14,1,1,3,2.885,0.729,3,1,1,o,spotkanie,spotkanie,TPNSKAOIE,none,NaN,15,9,9
14,1,1,4,1.002,2.271,3,1,1,o,klamerka,klamerka,ELAMKRKA,none,NaN,16,8,8
14,1,NaN,3,NaN,1.798,3,1,0,NaN,doniczka,doniczka,OCDAIZKN,none,NaN,17,8,8
14,0,0,4,2.157,1.8,2,1,1,p,parowka,oprawka,RAOKAPW,changed,NaN,18,7,7
14,1,1,3,1.751,2.038,3,1,1,o,katalog,katalog,KTGALOA,none,NaN,19,7,7
14,0,0,4,2.471,1.836,1,1,1,p,dinozaur,rodzina,OIDZUARN,added,NaN,20,8,7
14,1,NaN,NaN,NaN,NaN,3,1,0,NaN,kregoslup,kregoslup,UGELROKSP,none,NaN,21,9,9
14,0,0,4,1.558,1.681,0,1,1,p,kochanka,choinka,AKNAOHCK,added&changed,NaN,22,8,7
14,0,0,4,1.449,2.047,1,1,1,p,korytarz,aktorzy,RTZKYARO,added,NaN,23,8,7
14,1,1,4,1.162,1.726,3,1,1,o,koniczyna,koniczyna,NYNICZKOA,none,NaN,24,9,9
14,0,0,4,2.282,1.68,1,1,1,p,nadzieja,niedziela,ZDAEJNAI,added,NaN,25,8,7
14,0,0,4,2.497,1.846,1,1,1,p,bakteria,bateria,AREIAKTB,added,NaN,26,8,7
14,1,1,3,1.349,1.474,3,1,1,o,stolnica,stolnica,ILOTNCSA,none,NaN,27,8,8
14,1,1,3,2.038,0.669,3,1,1,o,kosiarka,kosiarka,RSKIOAKA,none,NaN,28,8,8
14,1,1,3,1.584,0.484,3,1,1,o,bratowa,bratowa,TRWAOBA,none,NaN,29,7,7
14,1,1,4,1.478,1.804,3,1,1,o,koszula,koszula,OULZKSA,none,NaN,30,7,7
14,1,1,3,1.333,1.334,3,1,1,o,wanilia,wanilia,WLNIAIA,none,NaN,31,7,7
14,0,0,4,1.835,1.517,1,1,1,p,bankomat,komnata,AKMOTABN,added,NaN,32,8,7
14,0,1,4,1.64,1.045,1,1,0,o,tabletka,baletka,KTALAETB,added,NaN,33,8,7
14,1,1,4,1.151,0.659,3,1,1,o,czujnik,czujnik,KZIJUNC,none,NaN,34,7,7
14,0,0,4,1.256,1.045,2,1,1,p,kurczak,kucharz,CKRAZKU,changed,NaN,35,7,7
14,0,1,3,1.736,1.082,2,1,0,o,klasztor,kloszard,ARLZOSTK,changed,NaN,36,8,8
14,1,1,3,2.238,0.98,3,1,1,o,sliniak,sliniak,IALNKIS,none,NaN,37,7,7
14,1,1,3,1.014,1.252,3,1,1,o,naparstek,naparstek,RAEKNSTPA,none,NaN,38,9,9
14,1,NaN,2,NaN,2.099,3,1,0,NaN,zmiennik,zmiennik,NZIEKNMI,none,NaN,39,8,8
14,0,1,3,1.669,1.161,1,1,0,o,lakomstwo,klamstwo,TLKOASOWM,added,NaN,40,9,8
14,0,0,2,2.542,1.921,2,1,1,p,dzielnica,niedziela,NZLDIACIE,changed,NaN,41,9,9
14,0,0,4,1.093,1.644,2,1,1,p,plantacja,policjant,CJATLANPA,changed,NaN,42,9,9
15,0,NaN,NaN,NaN,NaN,2,2,0,NaN,klasztor,kloszard,ARLZOSTK,changed,NaN,3,8,8
15,1,NaN,NaN,NaN,NaN,3,2,0,NaN,koszula,koszula,OULZKSA,none,NaN,4,7,7
15,0,0,1,1.637,1.908,1,2,1,p,bakteria,bateria,AREIAKTB,added,NaN,5,8,7
15,1,NaN,2,NaN,2.582,3,2,0,NaN,zmiennik,zmiennik,NZIEKNMI,none,NaN,6,8,8
15,1,0,1,0.547,2.304,3,2,0,p,stolnica,stolnica,ILOTNCSA,none,NaN,7,8,8
15,0,1,3,0.665,2.012,2,2,0,o,plantacja,policjant,CJATLANPA,changed,NaN,8,9,9
15,1,1,4,0.516,1.589,3,2,1,o,kosiarka,kosiarka,RSKIOAKA,none,NaN,9,8,8
15,0,0,1,0.473,1.76,1,2,1,p,lakomstwo,klamstwo,TLKOASOWM,added,NaN,10,9,8
15,1,1,4,0.432,1.201,3,2,1,o,rakieta,rakieta,RKEAIAT,none,NaN,11,7,7
15,0,0,2,0.5,2.439,2,2,1,p,kurczak,kucharz,CKRAZKU,changed,NaN,12,7,7
15,1,1,4,0.704,0.635,3,2,1,o,kregoslup,kregoslup,UGELROKSP,none,NaN,13,9,9
15,1,0,2,0.394,1.478,3,2,0,p,spotkanie,spotkanie,TPNSKAOIE,none,NaN,14,9,9
15,0,0,1,0.469,1.59,2,2,1,p,prowincja,pracownik,RPWIJNOAC,changed,NaN,15,9,9
15,1,1,2,0.475,1.596,3,2,1,o,doniczka,doniczka,OCDAIZKN,none,NaN,16,8,8
15,0,0,1,0.339,0.587,1,2,1,p,nadzieja,niedziela,ZDAEJNAI,added,NaN,17,8,7
15,0,1,3,0.67,2.099,0,2,0,o,kochanka,choinka,AKNAOHCK,added&changed,NaN,18,8,7
15,1,1,2,0.559,2.166,3,2,1,o,podstawa,podstawa,AODSTPAW,none,NaN,19,9,9
15,0,1,2,0.516,2.406,2,2,0,o,remanent,atrament,TRMNAENE,changed,NaN,20,8,8
15,0,1,4,0.602,1.078,1,2,0,o,dinozaur,rodzina,OIDZUARN,added,NaN,21,8,7
15,1,0,1,0.418,2.087,3,2,0,p,naparstek,naparstek,RAEKNSTPA,none,NaN,22,9,9
15,1,0,1,0.223,1.867,3,2,0,p,koniczyna,koniczyna,NYNICZKOA,none,NaN,23,9,9
15,1,1,3,0.51,2.266,3,2,1,o,katalog,katalog,KTGALOA,none,NaN,24,7,7
15,0,0,2,0.691,1.555,1,2,1,p,trucizna,intruz,CNRIZAUT,added,NaN,25,8,6
15,0,1,3,0.707,1.404,2,2,0,o,dzielnica,niedziela,NZLDIACIE,changed,NaN,26,9,9
15,1,1,2,0.735,1.55,3,2,1,o,bratanek,bratanek,RNATBKEA,none,NaN,27,8,8
15,1,0,1,0.521,1.761,3,2,0,p,bratowa,bratowa,TRWAOBA,none,NaN,28,7,7
15,0,1,4,1.129,2.911,2,2,0,o,parowka,oprawka,RAOKAPW,changed,NaN,29,7,7
15,0,0,1,0.575,1.501,0,2,1,p,mieszkanie,zamieszki,ZKESIAIENM,added&changed,NaN,30,10,9
15,0,0,4,0.243,2.854,1,2,1,p,cmentarz,tancerz,RNACTMZE,added,NaN,31,8,7
15,1,0,NaN,1.591,NaN,3,2,0,p,wanilia,wanilia,WLNIAIA,none,NaN,32,7,7
15,0,0,3,0.57,2.878,1,2,1,p,bankomat,komnata,AKMOTABN,added,NaN,33,8,7
15,1,1,4,0.379,0.862,3,2,1,o,sniezyca,sniezyca,ICEYZANS,none,NaN,34,8,8
15,0,0,2,0.773,1.623,1,2,1,p,tabletka,baletka,KTALAETB,added,NaN,35,8,7
15,0,0,2,0.461,1.582,1,2,1,p,korytarz,aktorzy,RTZKYARO,added,NaN,36,8,7
15,1,0,1,0.498,1.32,3,2,0,p,sliniak,sliniak,IALNKIS,none,NaN,37,7,7
15,1,0,4,0.973,2.348,3,2,0,p,czujnik,czujnik,KZIJUNC,none,NaN,38,7,7
15,0,0,1,0.371,2.605,0,2,1,p,rachunek,rabunek,ENCKRHAU,added&changed,NaN,39,8,7
15,1,1,2,0.55,1.191,3,2,1,o,uzdrowisko,uzdrowisko,ISDRKWOZUO,none,NaN,40,10,10
15,1,0,1,0.371,1.271,3,2,0,p,klamerka,klamerka,ELAMKRKA,none,NaN,41,8,8
15,0,1,4,0.771,1.238,2,2,0,o,potrawa,poprawa,PAOATWR,changed,NaN,42,7,7
16,1,NaN,2,NaN,2.203,3,2,0,NaN,korytarz,korytarz,RTZKYARO,none,NaN,3,8,8
16,0,1,4,1.173,2.131,2,2,0,p,bratowa,watroba,TRWAOBA,changed,NaN,4,7,7
16,0,1,4,0.58,2.262,1,2,0,p,kosiarka,sikorka,RSKIOAKA,added,NaN,5,8,7
16,0,0,NaN,1.708,NaN,0,2,1,o,sliniak,slimak,IALNKIS,added&changed,NaN,6,7,6
16,1,1,4,0.548,0.633,3,2,1,p,dinozaur,dinozaur,OIDZUARN,none,NaN,7,8,8
16,1,1,1,2.772,1.883,3,2,1,p,nadzieja,nadzieja,ZDAEJNAI,none,NaN,8,8,8
16,0,1,1,2.573,1.444,1,2,0,p,koszula,kalosz,OULZKSA,added,NaN,9,7,6
16,0,0,NaN,1.2,NaN,1,2,1,o,katalog,lokata,KTGALOA,added,NaN,10,7,6
16,0,0,4,0.778,2.898,0,2,1,o,sniezyca,sciezka,ICEYZANS,added&changed,NaN,11,8,7
16,1,1,4,0.633,0.224,3,2,1,p,remanent,remanent,TRMNAENE,none,NaN,12,8,8
16,0,0,1,0.469,1.682,2,2,1,o,rakieta,karetka,RKEAIAT,changed,NaN,13,7,7
16,1,0,1,0.132,1.804,3,2,0,o,bakteria,bakteria,AREIAKTB,none,NaN,14,8,8
16,1,1,1,1.563,1.642,3,2,1,p,klasztor,klasztor,ARLZOSTK,none,NaN,15,8,8
16,1,1,4,0.59,0.687,3,2,1,p,plantacja,plantacja,CJATLANPA,none,NaN,16,9,9
16,1,1,1,1.787,0.566,3,2,1,p,rachunek,rachunek,ENCKRHAU,none,NaN,17,8,8
16,0,1,1,0.787,2.289,1,2,0,p,spotkanie,eksponat,TPNSKAOIE,added,NaN,18,9,8
16,1,0,1,0.433,1.652,3,2,0,o,parowka,parowka,RAOKAPW,none,NaN,19,7,7
16,0,0,4,0.974,0.167,2,2,1,o,zmiennik,ziemniak,NZIEKNMI,changed,NaN,20,8,8
16,0,0,4,0.355,1.667,1,2,1,o,podstawa,dostawa,AODSTPAW,added,NaN,21,9,8
16,1,1,1,1.324,1.885,3,2,1,p,mieszkanie,mieszkanie,ZKESIAIENM,none,NaN,22,10,10
16,0,0,1,0.745,2.053,1,2,1,o,stolnica,stolica,ILOTNCSA,added,NaN,23,8,7
16,0,0,4,0.389,2.278,2,2,1,o,klamerka,kelnerka,ELAMKRKA,changed,NaN,24,8,8
16,0,0,NaN,1.025,NaN,1,2,1,o,uzdrowisko,skorowidz,ISDRKWOZUO,added,NaN,25,10,9
16,0,0,4,0.33,1.066,2,2,1,o,koniczyna,zakonnica,NYNICZKOA,changed,NaN,26,9,9
16,1,0,4,0.242,2.037,3,2,0,o,cmentarz,cmentarz,RNACTMZE,none,NaN,27,8,8
16,0,0,4,0.401,1.192,0,2,1,o,kregoslup,skorupa,UGELROKSP,added&changed,NaN,28,9,7
16,1,1,1,0.32,2.468,3,2,1,p,lakomstwo,lakomstwo,TLKOASOWM,none,NaN,29,9,9
16,1,0,1,0.434,1.619,3,2,0,o,prowincja,prowincja,RPWIJNOAC,none,NaN,30,9,9
16,0,0,4,0.402,2.009,2,2,1,o,czujnik,czajnik,KZIJUNC,changed,NaN,31,7,7
16,0,0,4,0.253,1.839,1,2,1,o,bratanek,kabaret,RNATBKEA,added,NaN,32,8,7
16,1,0,NaN,0.48,NaN,3,2,0,o,potrawa,potrawa,PAOATWR,none,NaN,33,7,7
16,0,0,4,0.322,0.989,1,2,1,o,wanilia,lawina,WLNIAIA,added,NaN,34,7,6
16,1,1,NaN,0.835,NaN,3,2,1,p,trucizna,trucizna,CNRIZAUT,none,NaN,35,8,8
16,1,0,1,0.681,1.801,3,2,0,o,dzielnica,dzielnica,NZLDIACIE,none,NaN,36,9,9
16,1,0,NaN,1.906,NaN,3,2,0,o,bankomat,bankomat,AKMOTABN,none,NaN,37,8,8
16,0,0,4,0.247,1.074,1,2,1,o,naparstek,pasterka,RAEKNSTPA,added,NaN,38,9,8
16,0,0,1,1.125,1.879,0,2,1,o,doniczka,odznaka,OCDAIZKN,added&changed,NaN,39,8,7
16,1,1,NaN,2.267,NaN,3,2,1,p,kochanka,kochanka,AKNAOHCK,none,NaN,40,8,8
16,1,1,NaN,1.494,NaN,3,2,1,p,kurczak,kurczak,CKRAZKU,none,NaN,41,7,7
16,1,1,1,0.243,2.716,3,2,1,p,tabletka,tabletka,KTALAETB,none,NaN,42,8,8
17,1,1,2,2.913,2.004,3,2,1,p,prowincja,prowincja,RPWIJNOAC,none,NaN,3,9,9
17,1,1,NaN,1.656,NaN,3,2,1,p,bakteria,bakteria,AREIAKTB,none,NaN,4,8,8
17,1,1,1,1.267,0.989,3,2,1,p,dinozaur,dinozaur,OIDZUARN,none,NaN,5,8,8
17,1,0,4,1.106,1.619,3,2,0,o,rachunek,rachunek,ENCKRHAU,none,NaN,6,8,8
17,0,0,4,1.062,1.413,1,2,1,o,bratanek,kabaret,RNATBKEA,added,NaN,7,8,7
17,0,0,3,1.195,1.66,1,2,1,o,katalog,lokata,KTGALOA,added,NaN,8,7,6
17,1,1,4,0.417,1.068,3,2,1,p,kurczak,kurczak,CKRAZKU,none,NaN,9,7,7
17,1,1,4,0.249,1.056,3,2,1,p,plantacja,plantacja,CJATLANPA,none,NaN,10,9,9
17,0,0,4,0.845,1.183,2,2,1,o,zmiennik,ziemniak,NZIEKNMI,changed,NaN,11,8,8
17,0,0,4,1.665,2.294,1,2,1,o,koszula,kalosz,OULZKSA,added,NaN,12,7,6
17,0,1,3,1.229,1.14,0,2,0,p,sniezyca,sciezka,ICEYZANS,added&changed,NaN,13,8,7
17,1,1,4,0.6,1.105,3,2,1,p,bankomat,bankomat,AKMOTABN,none,NaN,14,8,8
17,1,1,2,1.305,1.371,3,2,1,p,klasztor,klasztor,ARLZOSTK,none,NaN,15,8,8
17,0,1,4,0.988,0.952,2,2,0,p,koniczyna,zakonnica,NYNICZKOA,changed,NaN,16,9,9
17,1,1,1,0.829,1.65,3,2,1,p,mieszkanie,mieszkanie,ZKESIAIENM,none,NaN,17,10,10
17,0,0,4,0.631,1.464,1,2,1,o,wanilia,lawina,WLNIAIA,added,NaN,18,7,6
17,1,1,2,1.148,1.505,3,2,1,p,remanent,remanent,TRMNAENE,none,NaN,19,8,8
17,0,1,NaN,1.208,NaN,2,2,0,p,bratowa,watroba,TRWAOBA,changed,NaN,20,7,7
17,0,0,4,0.594,1.465,2,2,1,o,czujnik,czajnik,KZIJUNC,changed,NaN,21,7,7
17,0,1,1,1.298,1.414,1,2,0,p,podstawa,dostawa,AODSTPAW,added,NaN,22,9,8
17,1,1,3,0.875,1.373,3,2,1,p,trucizna,trucizna,CNRIZAUT,none,NaN,23,8,8
17,0,0,2,0.523,1.573,0,2,1,o,doniczka,odznaka,OCDAIZKN,added&changed,NaN,24,8,7
17,1,1,4,1.642,1.492,3,2,1,p,korytarz,korytarz,RTZKYARO,none,NaN,25,8,8
17,0,0,4,0.751,1.782,0,2,1,o,kregoslup,skorupa,UGELROKSP,added&changed,NaN,26,9,7
17,0,0,4,0.286,1.454,1,2,1,o,kosiarka,sikorka,RSKIOAKA,added,NaN,27,8,7
17,0,1,3,0.723,1.693,1,2,0,p,naparstek,pasterka,RAEKNSTPA,added,NaN,28,9,8
17,1,1,2,0.99,2.12,3,2,1,p,kochanka,kochanka,AKNAOHCK,none,NaN,29,8,8
17,0,1,3,0.719,1.273,0,2,0,p,sliniak,slimak,IALNKIS,added&changed,NaN,30,7,6
17,1,1,4,0.329,1.009,3,2,1,p,cmentarz,cmentarz,RNACTMZE,none,NaN,31,8,8
17,1,1,3,0.513,1.38,3,2,1,p,nadzieja,nadzieja,ZDAEJNAI,none,NaN,32,8,8
17,1,1,4,0.992,1.587,3,2,1,p,tabletka,tabletka,KTALAETB,none,NaN,33,8,8
17,1,1,3,1.345,1.071,3,2,1,p,potrawa,potrawa,PAOATWR,none,NaN,34,7,7
17,0,0,2,1.737,1.387,1,2,1,o,stolnica,stolica,ILOTNCSA,added,NaN,35,8,7
17,1,1,4,0.877,0.924,3,2,1,p,dzielnica,dzielnica,NZLDIACIE,none,NaN,36,9,9
17,1,0,1,2.44,1.668,3,2,0,o,lakomstwo,lakomstwo,TLKOASOWM,none,NaN,37,9,9
17,0,0,4,0.37,1.26,2,2,1,o,rakieta,karetka,RKEAIAT,changed,NaN,38,7,7
17,0,0,1,0.945,1.58,1,2,1,o,spotkanie,eksponat,TPNSKAOIE,added,NaN,39,9,8
17,0,1,4,0.437,1.382,1,2,0,p,uzdrowisko,skorowidz,ISDRKWOZUO,added,NaN,40,10,9
17,1,1,4,2.254,2.011,3,2,1,p,parowka,parowka,RAOKAPW,none,NaN,41,7,7
17,0,0,4,1.113,1.509,2,2,1,o,klamerka,kelnerka,ELAMKRKA,changed,NaN,42,8,8
18,1,1,4,1.551,1.078,3,1,1,o,koniczyna,koniczyna,NYNICZKOA,none,NaN,3,9,9
18,1,1,4,1.104,0.867,3,1,1,o,doniczka,doniczka,OCDAIZKN,none,NaN,4,8,8
18,1,NaN,2,NaN,2.233,3,1,0,NaN,bratowa,bratowa,TRWAOBA,none,NaN,5,7,7
18,0,0,NaN,1.528,NaN,1,1,1,p,cmentarz,tancerz,RNACTMZE,added,NaN,6,8,7
18,1,1,4,1.09,1.028,3,1,1,o,sliniak,sliniak,IALNKIS,none,NaN,7,7,7
18,0,NaN,2,NaN,2.242,2,1,0,NaN,prowincja,pracownik,RPWIJNOAC,changed,NaN,8,9,9
18,1,1,3,1.894,1.128,3,1,1,o,naparstek,naparstek,RAEKNSTPA,none,NaN,9,9,9
18,1,1,NaN,2.66,NaN,3,1,1,o,koszula,koszula,OULZKSA,none,NaN,10,7,7
18,0,NaN,NaN,NaN,NaN,1,1,0,NaN,bakteria,bateria,AREIAKTB,added,NaN,11,8,7
18,0,NaN,2,NaN,2.23,1,1,0,NaN,lakomstwo,klamstwo,TLKOASOWM,added,NaN,12,9,8
18,1,0,NaN,1.642,NaN,3,1,0,p,kosiarka,kosiarka,RSKIOAKA,none,NaN,13,8,8
18,0,0,3,2.147,1.098,1,1,1,p,korytarz,aktorzy,RTZKYARO,added,NaN,14,8,7
18,1,1,3,2.238,2.313,3,1,1,o,rakieta,rakieta,RKEAIAT,none,NaN,15,7,7
18,1,NaN,2,NaN,1.424,3,1,0,NaN,zmiennik,zmiennik,NZIEKNMI,none,NaN,16,8,8
18,0,1,2,2.139,0.846,0,1,0,o,mieszkanie,zamieszki,ZKESIAIENM,added&changed,NaN,17,10,9
18,0,0,4,0.89,1.545,1,1,1,p,nadzieja,niedziela,ZDAEJNAI,added,NaN,18,8,7
18,0,0,4,1.068,2.16,1,1,1,p,bankomat,komnata,AKMOTABN,added,NaN,19,8,7
18,0,0,4,2.315,0.679,0,1,1,p,rachunek,rabunek,ENCKRHAU,added&changed,NaN,20,8,7
18,1,1,3,2.403,1.32,3,1,1,o,bratanek,bratanek,RNATBKEA,none,NaN,21,8,8
18,0,NaN,3,NaN,1.746,2,1,0,NaN,klasztor,kloszard,ARLZOSTK,changed,NaN,22,8,8
18,0,1,2,2.343,1.405,2,1,0,o,remanent,atrament,TRMNAENE,changed,NaN,23,8,8
18,1,1,4,0.871,1.479,3,1,1,o,sniezyca,sniezyca,ICEYZANS,none,NaN,24,8,8
18,1,1,3,1.82,1.201,3,1,1,o,spotkanie,spotkanie,TPNSKAOIE,none,NaN,25,9,9
18,1,1,4,0.478,1.526,3,1,1,o,wanilia,wanilia,WLNIAIA,none,NaN,26,7,7
18,1,0,3,2.019,1.835,3,1,0,p,uzdrowisko,uzdrowisko,ISDRKWOZUO,none,NaN,27,10,10
18,0,0,4,1.492,1.445,0,1,1,p,kochanka,choinka,AKNAOHCK,added&changed,NaN,28,8,7
18,1,1,4,0.057,1.205,3,1,1,o,czujnik,czujnik,KZIJUNC,none,NaN,29,7,7
18,0,0,3,1.391,2.912,2,1,1,p,dzielnica,niedziela,NZLDIACIE,changed,NaN,30,9,9
18,0,0,3,1.24,1.641,1,1,1,p,dinozaur,rodzina,OIDZUARN,added,NaN,31,8,7
18,1,1,4,0.031,1.371,3,1,1,o,kregoslup,kregoslup,UGELROKSP,none,NaN,32,9,9
18,0,0,4,1.231,1.512,1,1,1,p,trucizna,intruz,CNRIZAUT,added,NaN,33,8,6
18,1,1,3,1.278,1.51,3,1,1,o,katalog,katalog,KTGALOA,none,NaN,34,7,7
18,0,1,NaN,1.693,NaN,1,1,0,o,tabletka,baletka,KTALAETB,added,NaN,35,8,7
18,0,0,4,1.687,1.162,2,1,1,p,plantacja,policjant,CJATLANPA,changed,NaN,36,9,9
18,1,1,4,0.731,0.775,3,1,1,o,podstawa,podstawa,AODSTPAW,none,NaN,37,9,9
18,1,1,4,0.38,1.131,3,1,1,o,klamerka,klamerka,ELAMKRKA,none,NaN,38,8,8
18,1,NaN,3,NaN,1.399,3,1,0,NaN,stolnica,stolnica,ILOTNCSA,none,NaN,39,8,8
18,0,0,4,1.244,1.288,2,1,1,p,parowka,oprawka,RAOKAPW,changed,NaN,40,7,7
18,0,0,4,0.772,0.965,2,1,1,p,kurczak,kucharz,CKRAZKU,changed,NaN,41,7,7
18,0,0,4,1.216,1.571,2,1,1,p,potrawa,poprawa,PAOATWR,changed,NaN,42,7,7
19,1,1,4,1.001,1.163,3,2,1,p,podstawa,podstawa,AODSTPAW,none,NaN,3,9,9
19,0,0,3,1.976,2.244,1,2,1,o,trucizna,intruz,CNRIZAUT,added,NaN,4,8,6
19,1,1,4,1.038,0.899,3,2,1,p,rakieta,rakieta,RKEAIAT,none,NaN,5,7,7
19,0,0,2,1.499,1.396,2,2,1,o,remanent,atrament,TRMNAENE,changed,NaN,6,8,8
19,1,0,3,0.657,1.069,3,2,0,o,koniczyna,koniczyna,NYNICZKOA,none,NaN,7,9,9
19,0,0,3,1.939,1.888,0,2,1,o,rachunek,rabunek,ENCKRHAU,added&changed,NaN,8,8,7
19,1,1,2,0.613,1.423,3,2,1,p,naparstek,naparstek,RAEKNSTPA,none,NaN,9,9,9
19,1,1,4,1.127,2.325,3,2,1,p,stolnica,stolnica,ILOTNCSA,none,NaN,10,8,8
19,1,0,2,1.07,1.115,3,2,0,o,uzdrowisko,uzdrowisko,ISDRKWOZUO,none,NaN,11,10,10
19,1,1,4,0.912,0.701,3,2,1,p,koszula,koszula,OULZKSA,none,NaN,12,7,7
19,1,1,2,0.857,1.76,3,2,1,p,bratanek,bratanek,RNATBKEA,none,NaN,13,8,8
19,0,0,2,0.506,1.428,2,2,1,o,prowincja,pracownik,RPWIJNOAC,changed,NaN,14,9,9
19,0,0,4,0.924,2.597,0,2,1,o,kochanka,choinka,AKNAOHCK,added&changed,NaN,15,8,7
19,0,0,NaN,1.05,NaN,1,2,1,o,cmentarz,tancerz,RNACTMZE,added,NaN,16,8,7
19,0,0,4,0.606,0.832,2,2,1,o,parowka,oprawka,RAOKAPW,changed,NaN,17,7,7
19,1,1,4,0.878,0.8,3,2,1,p,kregoslup,kregoslup,UGELROKSP,none,NaN,18,9,9
19,0,0,4,1.062,0.424,1,2,1,o,korytarz,aktorzy,RTZKYARO,added,NaN,19,8,7
19,0,0,4,1.034,1.545,2,2,1,o,klasztor,kloszard,ARLZOSTK,changed,NaN,20,8,8
19,0,0,3,0.834,1.504,1,2,1,o,tabletka,baletka,KTALAETB,added,NaN,21,8,7
19,1,1,4,1.13,0.561,3,2,1,p,klamerka,klamerka,ELAMKRKA,none,NaN,22,8,8
19,1,1,4,1.118,0.632,3,2,1,p,wanilia,wanilia,WLNIAIA,none,NaN,23,7,7
19,1,1,2,0.914,1.52,3,2,1,p,kosiarka,kosiarka,RSKIOAKA,none,NaN,24,8,8
19,0,0,2,1.148,1.196,1,2,1,o,nadzieja,niedziela,ZDAEJNAI,added,NaN,25,8,7
19,1,1,3,0.718,1.533,3,2,1,p,bratowa,bratowa,TRWAOBA,none,NaN,26,7,7
19,0,1,2,1.009,1.452,2,2,0,p,plantacja,policjant,CJATLANPA,changed,NaN,27,9,9
19,0,0,4,0.794,1.129,2,2,1,o,kurczak,kucharz,CKRAZKU,changed,NaN,28,7,7
19,0,0,4,0.722,1.336,0,2,1,o,mieszkanie,zamieszki,ZKESIAIENM,added&changed,NaN,29,10,9
19,0,0,4,0.708,0.805,1,2,1,o,dinozaur,rodzina,OIDZUARN,added,NaN,30,8,7
19,1,0,2,0.99,1.432,3,2,0,o,katalog,katalog,KTGALOA,none,NaN,31,7,7
19,1,1,2,1.395,1.071,3,2,1,p,sliniak,sliniak,IALNKIS,none,NaN,32,7,7
19,0,0,3,0.921,1.86,2,2,1,o,potrawa,poprawa,PAOATWR,changed,NaN,33,7,7
19,0,0,3,0.657,2.902,1,2,1,o,bakteria,bateria,AREIAKTB,added,NaN,34,8,7
19,1,1,3,0.837,1.223,3,2,1,p,doniczka,doniczka,OCDAIZKN,none,NaN,35,8,8
19,0,0,2,0.799,1.717,1,2,1,o,lakomstwo,klamstwo,TLKOASOWM,added,NaN,36,9,8
19,1,1,3,1.621,1.057,3,2,1,p,sniezyca,sniezyca,ICEYZANS,none,NaN,37,8,8
19,1,1,2,0.763,1.962,3,2,1,p,spotkanie,spotkanie,TPNSKAOIE,none,NaN,38,9,9
19,0,0,2,0.893,1.248,1,2,1,o,bankomat,komnata,AKMOTABN,added,NaN,39,8,7
19,0,0,2,0.807,2.558,2,2,1,o,dzielnica,niedziela,NZLDIACIE,changed,NaN,40,9,9
19,1,1,3,1.079,1.608,3,2,1,p,czujnik,czujnik,KZIJUNC,none,NaN,41,7,7
19,1,0,2,0.954,2.112,3,2,0,o,zmiennik,zmiennik,NZIEKNMI,none,NaN,42,8,8
20,0,0,NaN,1.697,NaN,2,2,1,p,dzielnica,niedziela,NZLDIACIE,changed,NaN,3,9,9
20,1,1,4,1.34,1.471,3,2,1,o,bratowa,bratowa,TRWAOBA,none,NaN,4,7,7
20,0,NaN,2,NaN,1.48,1,2,0,NaN,cmentarz,tancerz,RNACTMZE,added,NaN,5,8,7
20,0,1,4,0.973,1.266,1,2,0,o,dinozaur,rodzina,OIDZUARN,added,NaN,6,8,7
20,1,1,3,1.502,1.654,3,2,1,o,czujnik,czujnik,KZIJUNC,none,NaN,7,7,7
20,0,1,2,1.896,1.178,1,2,0,o,lakomstwo,klamstwo,TLKOASOWM,added,NaN,8,9,8
20,0,0,2,0.856,1.366,2,2,1,p,prowincja,pracownik,RPWIJNOAC,changed,NaN,9,9,9
20,0,1,2,1.897,1.413,1,2,0,o,bankomat,komnata,AKMOTABN,added,NaN,10,8,7
20,0,0,2,1.592,1.517,0,2,1,p,kochanka,choinka,AKNAOHCK,added&changed,NaN,11,8,7
20,1,1,4,0.976,1.653,3,2,1,o,koszula,koszula,OULZKSA,none,NaN,12,7,7
20,1,1,3,1.136,2.274,3,2,1,o,zmiennik,zmiennik,NZIEKNMI,none,NaN,13,8,8
20,1,1,4,0.895,1.383,3,2,1,o,klamerka,klamerka,ELAMKRKA,none,NaN,14,8,8
20,1,1,4,0.781,1.001,3,2,1,o,uzdrowisko,uzdrowisko,ISDRKWOZUO,none,NaN,15,10,10
20,0,0,2,1.004,1.21,2,2,1,p,kurczak,kucharz,CKRAZKU,changed,NaN,16,7,7
20,1,1,4,0.67,0.69,3,2,1,o,kregoslup,kregoslup,UGELROKSP,none,NaN,17,9,9
20,1,1,4,0.817,1.749,3,2,1,o,wanilia,wanilia,WLNIAIA,none,NaN,18,7,7
20,1,1,4,0.627,0.969,3,2,1,o,koniczyna,koniczyna,NYNICZKOA,none,NaN,19,9,9
20,1,1,4,1.243,2.182,3,2,1,o,stolnica,stolnica,ILOTNCSA,none,NaN,20,8,8
20,1,1,3,1.217,1.105,3,2,1,o,podstawa,podstawa,AODSTPAW,none,NaN,21,9,9
20,1,1,2,0.891,1.562,3,2,1,o,naparstek,naparstek,RAEKNSTPA,none,NaN,22,9,9
20,0,1,2,1.321,1.983,2,2,0,o,klasztor,kloszard,ARLZOSTK,changed,NaN,23,8,8
20,0,1,3,0.782,1.419,2,2,0,o,remanent,atrament,TRMNAENE,changed,NaN,24,8,8
20,0,0,2,0.943,1.586,1,2,1,p,nadzieja,niedziela,ZDAEJNAI,added,NaN,25,8,7
20,0,0,4,0.704,1.702,2,2,1,p,parowka,oprawka,RAOKAPW,changed,NaN,26,7,7
20,0,0,4,0.825,1.356,1,2,1,p,bakteria,bateria,AREIAKTB,added,NaN,27,8,7
20,1,1,3,1.354,1.161,3,2,1,o,rakieta,rakieta,RKEAIAT,none,NaN,28,7,7
20,0,0,3,0.901,1.822,1,2,1,p,tabletka,baletka,KTALAETB,added,NaN,29,8,7
20,0,0,4,0.824,2.288,2,2,1,p,potrawa,poprawa,PAOATWR,changed,NaN,30,7,7
20,0,0,4,0.707,1.121,0,2,1,p,rachunek,rabunek,ENCKRHAU,added&changed,NaN,31,8,7
20,0,0,4,0.467,0.964,1,2,1,p,trucizna,intruz,CNRIZAUT,added,NaN,32,8,6
20,0,0,3,1.667,2.748,1,2,1,p,korytarz,aktorzy,RTZKYARO,added,NaN,33,8,7
20,1,1,4,2.021,1.304,3,2,1,o,doniczka,doniczka,OCDAIZKN,none,NaN,34,8,8
20,0,0,4,1.06,1.077,0,2,1,p,mieszkanie,zamieszki,ZKESIAIENM,added&changed,NaN,35,10,9
20,1,1,4,0.669,1.089,3,2,1,o,kosiarka,kosiarka,RSKIOAKA,none,NaN,36,8,8
20,1,1,4,0.698,0.88,3,2,1,o,spotkanie,spotkanie,TPNSKAOIE,none,NaN,37,9,9
20,1,1,3,0.936,1.118,3,2,1,o,bratanek,bratanek,RNATBKEA,none,NaN,38,8,8
20,1,1,4,1.365,1.137,3,2,1,o,katalog,katalog,KTGALOA,none,NaN,39,7,7
20,1,1,3,1.123,1.279,3,2,1,o,sniezyca,sniezyca,ICEYZANS,none,NaN,40,8,8
20,0,1,3,1.67,1.983,2,2,0,o,plantacja,policjant,CJATLANPA,changed,NaN,41,9,9
20,1,1,3,1.127,1.349,3,2,1,o,sliniak,sliniak,IALNKIS,none,NaN,42,7,7
21,0,1,NaN,1.679,NaN,2,3,0,p,czujnik,czajnik,KZIJUNC,changed,0,3,7,7
21,1,NaN,3,NaN,2.622,3,3,1,NaN,remanent,remanent,TRMNAENE,none,207,4,8,8
21,0,0,4,0.317,0.779,2,3,1,o,zmiennik,ziemniak,NZIEKNMI,changed,1143,5,8,8
21,0,1,3,1.143,1.448,1,3,0,p,katalog,lokata,KTGALOA,added,828,6,7,6
21,1,1,NaN,1.315,NaN,3,3,1,p,trucizna,trucizna,CNRIZAUT,none,221,7,8,8
21,1,1,1,1.89,1.399,3,3,1,p,lakomstwo,lakomstwo,TLKOASOWM,none,2600,8,9,9
21,0,1,3,0.785,1.943,1,3,0,p,naparstek,pasterka,RAEKNSTPA,added,0,9,9,8
21,0,1,3,0.716,2.252,1,3,0,p,spotkanie,eksponat,TPNSKAOIE,added,0,10,9,8
21,0,1,1,0.523,1.489,1,3,0,p,uzdrowisko,skorowidz,ISDRKWOZUO,added,1080,11,10,9
21,0,0,NaN,1.303,NaN,0,3,1,o,doniczka,odznaka,OCDAIZKN,added&changed,0,12,8,7
21,1,1,NaN,0.697,NaN,3,3,1,p,nadzieja,nadzieja,ZDAEJNAI,none,831,13,8,8
21,1,0,1,0.318,1.48,3,3,0,o,prowincja,prowincja,RPWIJNOAC,none,954,14,9,9
21,0,0,4,0.337,1.09,2,3,1,o,bratowa,watroba,TRWAOBA,changed,2107,15,7,7
21,1,1,4,0.404,1.255,3,3,1,p,tabletka,tabletka,KTALAETB,none,1131,16,8,8
21,1,1,3,0.914,1.254,3,3,1,p,bakteria,bakteria,AREIAKTB,none,263,17,8,8
21,0,0,4,0.356,1.046,0,3,1,o,kregoslup,skorupa,UGELROKSP,added&changed,1635,18,9,7
21,1,0,4,1.062,0.629,3,3,0,p,klamerka,klamerka,ELAMKRKA,none,450,19,8,8
21,0,0,4,0.729,0.54,2,3,1,o,rakieta,karetka,RKEAIAT,changed,806,20,7,7
21,0,0,NaN,1.64,NaN,1,3,1,o,stolnica,stolica,ILOTNCSA,added,2415,21,8,7
21,1,0,4,0.29,0.775,3,3,0,o,kochanka,kochanka,AKNAOHCK,none,1455,22,8,8
21,0,0,4,1.179,0.743,1,3,1,o,podstawa,dostawa,AODSTPAW,added,697,24,9,8
21,1,1,4,0.8,0.657,3,3,1,p,dinozaur,dinozaur,OIDZUARN,none,406,25,8,8
21,0,1,2,1.545,2.206,0,3,0,p,sliniak,slimak,IALNKIS,added&changed,0,26,7,6
21,0,0,4,0.947,1.965,1,3,1,o,wanilia,lawina,WLNIAIA,added,507,27,7,6
21,0,0,NaN,1.363,NaN,1,3,1,o,kosiarka,sikorka,RSKIOAKA,added,1211,28,8,7
21,1,1,3,0.562,2.439,3,3,1,p,mieszkanie,mieszkanie,ZKESIAIENM,none,0,30,10,10
21,1,1,4,0.349,0.421,3,3,1,p,plantacja,plantacja,CJATLANPA,none,173,31,9,9
21,0,0,4,0.491,1.806,1,3,1,o,bratanek,kabaret,RNATBKEA,added,0,32,8,7
21,0,0,4,0.206,0.864,1,3,1,o,koszula,kalosz,OULZKSA,added,1565,33,7,6
21,1,1,2,0.44,2.186,3,3,1,p,bankomat,bankomat,AKMOTABN,none,0,34,8,8
21,0,0,2,1.701,2.188,0,3,1,o,sniezyca,sciezka,ICEYZANS,added&changed,0,35,8,7
21,1,0,NaN,1.318,NaN,3,3,0,o,cmentarz,cmentarz,RNACTMZE,none,0,36,8,8
21,1,0,3,0.593,0.981,3,3,0,o,klasztor,klasztor,ARLZOSTK,none,2399,37,8,8
21,1,1,2,1.069,1.402,3,3,1,p,rachunek,rachunek,ENCKRHAU,none,587,38,8,8
21,1,0,4,0.25,1.374,3,3,0,o,potrawa,potrawa,PAOATWR,none,899,39,7,7
21,1,0,3,1.339,0.38,3,3,0,o,dzielnica,dzielnica,NZLDIACIE,none,1253,40,9,9
21,0,1,4,0.525,0.692,2,3,0,p,koniczyna,zakonnica,NYNICZKOA,changed,751,41,9,9
21,1,1,4,0.572,0.815,3,3,1,p,parowka,parowka,RAOKAPW,none,556,42,7,7
21,1,1,3,0.596,0.734,3,3,1,p,kurczak,kurczak,CKRAZKU,none,437,43,7,7
21,1,0,3,0.746,1.243,3,3,0,o,korytarz,korytarz,RTZKYARO,none,168,44,8,8
22,1,1,4,1.693,0.921,3,2,1,o,katalog,katalog,KTGALOA,none,NaN,3,7,7
22,1,1,4,2.131,1.016,3,2,1,o,koniczyna,koniczyna,NYNICZKOA,none,NaN,4,9,9
22,1,0,NaN,2.254,NaN,3,2,0,p,sliniak,sliniak,IALNKIS,none,NaN,5,7,7
22,0,1,3,1.117,1.157,2,2,0,o,klasztor,kloszard,ARLZOSTK,changed,NaN,6,8,8
22,1,1,4,1.151,0.654,3,2,1,o,sniezyca,sniezyca,ICEYZANS,none,NaN,7,8,8
22,1,1,3,2.785,1.596,3,2,1,o,wanilia,wanilia,WLNIAIA,none,NaN,8,7,7
22,0,1,2,2.009,0.943,1,2,0,o,nadzieja,niedziela,ZDAEJNAI,added,NaN,9,8,7
22,1,1,2,1.482,1.136,3,2,1,o,koszula,koszula,OULZKSA,none,NaN,10,7,7
22,0,1,2,2.012,1.213,1,2,0,o,cmentarz,tancerz,RNACTMZE,added,NaN,11,8,7
22,1,1,2,1.558,1.257,3,2,1,o,stolnica,stolnica,ILOTNCSA,none,NaN,12,8,8
22,0,NaN,NaN,NaN,NaN,1,2,0,NaN,tabletka,baletka,KTALAETB,added,NaN,13,8,7
22,1,1,2,1.014,0.837,3,2,1,o,bratowa,bratowa,TRWAOBA,none,NaN,14,7,7
22,1,1,4,0.9,0.756,3,2,1,o,kosiarka,kosiarka,RSKIOAKA,none,NaN,15,8,8
22,1,1,4,0.697,0.478,3,2,1,o,czujnik,czujnik,KZIJUNC,none,NaN,16,7,7
22,0,0,2,0.652,2.873,2,2,1,p,prowincja,pracownik,RPWIJNOAC,changed,NaN,17,9,9
22,0,0,2,1.432,1.041,1,2,1,p,bakteria,bateria,AREIAKTB,added,NaN,18,8,7
22,0,0,4,0.903,1.725,1,2,1,p,dinozaur,rodzina,OIDZUARN,added,NaN,19,8,7
22,1,0,3,1.78,1.678,3,2,0,p,doniczka,doniczka,OCDAIZKN,none,NaN,20,8,8
22,1,1,4,0.662,0.566,3,2,1,o,kregoslup,kregoslup,UGELROKSP,none,NaN,21,9,9
22,1,1,2,2.826,1.097,3,2,1,o,uzdrowisko,uzdrowisko,ISDRKWOZUO,none,NaN,22,10,10
22,0,1,2,0.862,1.222,0,2,0,o,mieszkanie,zamieszki,ZKESIAIENM,added&changed,NaN,23,10,9
22,1,1,2,2.18,0.976,3,2,1,o,naparstek,naparstek,RAEKNSTPA,none,NaN,24,9,9
22,1,1,4,0.66,0.58,3,2,1,o,klamerka,klamerka,ELAMKRKA,none,NaN,25,8,8
22,0,1,1,1.286,2.288,2,2,0,o,remanent,atrament,TRMNAENE,changed,NaN,26,8,8
22,0,1,1,0.937,1.087,2,2,0,o,potrawa,poprawa,PAOATWR,changed,NaN,27,7,7
22,1,1,2,1.509,2.328,3,2,1,o,bratanek,bratanek,RNATBKEA,none,NaN,28,8,8
22,0,0,2,2.058,1.069,0,2,1,p,rachunek,rabunek,ENCKRHAU,added&changed,NaN,29,8,7
22,1,1,1,1.785,1.318,3,2,1,o,rakieta,rakieta,RKEAIAT,none,NaN,30,7,7
22,0,0,4,1.168,1.935,2,2,1,p,kurczak,kucharz,CKRAZKU,changed,NaN,31,7,7
22,1,NaN,2,NaN,1.406,3,2,0,NaN,spotkanie,spotkanie,TPNSKAOIE,none,NaN,32,9,9
22,0,0,2,1.671,1.835,1,2,1,p,lakomstwo,klamstwo,TLKOASOWM,added,NaN,33,9,8
22,0,0,2,1.319,2.031,0,2,1,p,kochanka,choinka,AKNAOHCK,added&changed,NaN,34,8,7
22,0,0,4,1.01,1.999,2,2,1,p,parowka,oprawka,RAOKAPW,changed,NaN,35,7,7
22,1,1,2,2.628,1.609,3,2,1,o,podstawa,podstawa,AODSTPAW,none,NaN,36,9,9
22,0,0,4,1.078,2.239,2,2,1,p,dzielnica,niedziela,NZLDIACIE,changed,NaN,37,9,9
22,1,1,2,2.153,1.266,3,2,1,o,zmiennik,zmiennik,NZIEKNMI,none,NaN,38,8,8
22,0,0,2,1.708,1.568,1,2,1,p,bankomat,komnata,AKMOTABN,added,NaN,39,8,7
22,0,1,2,1.199,1.727,2,2,0,o,plantacja,policjant,CJATLANPA,changed,NaN,40,9,9
22,0,1,1,0.857,1.8,1,2,0,o,korytarz,aktorzy,RTZKYARO,added,NaN,41,8,7
22,0,0,2,0.633,1.492,1,2,1,p,trucizna,intruz,CNRIZAUT,added,NaN,42,8,6
23,1,1,3,1.425,2.469,3,2,1,p,naparstek,naparstek,RAEKNSTPA,none,NaN,3,9,9
23,0,0,2,2.267,2.596,2,2,1,o,plantacja,policjant,CJATLANPA,changed,NaN,4,9,9
23,0,0,NaN,1.279,NaN,0,2,1,o,rachunek,rabunek,ENCKRHAU,added&changed,NaN,5,8,7
23,1,NaN,NaN,NaN,NaN,3,2,0,NaN,zmiennik,zmiennik,NZIEKNMI,none,NaN,6,8,8
23,0,0,3,1.545,1.578,1,2,1,o,trucizna,intruz,CNRIZAUT,added,NaN,7,8,6
23,0,1,3,1.052,2.331,1,2,0,p,lakomstwo,klamstwo,TLKOASOWM,added,NaN,8,9,8
23,1,1,4,0.835,2.338,3,2,1,p,wanilia,wanilia,WLNIAIA,none,NaN,9,7,7
23,1,1,3,1.396,1.139,3,2,1,p,koniczyna,koniczyna,NYNICZKOA,none,NaN,10,9,9
23,1,1,3,1.857,1.669,3,2,1,p,kosiarka,kosiarka,RSKIOAKA,none,NaN,11,8,8
23,1,1,4,0.721,0.719,3,2,1,p,kregoslup,kregoslup,UGELROKSP,none,NaN,12,9,9
23,1,1,4,1.037,1.132,3,2,1,p,rakieta,rakieta,RKEAIAT,none,NaN,13,7,7
23,0,1,4,1.588,1.205,2,2,0,p,potrawa,poprawa,PAOATWR,changed,NaN,14,7,7
23,1,1,3,1.212,2.181,3,2,1,p,koszula,koszula,OULZKSA,none,NaN,15,7,7
23,1,1,4,0.805,0.923,3,2,1,p,klamerka,klamerka,ELAMKRKA,none,NaN,16,8,8
23,1,1,2,0.918,1.624,3,2,1,p,stolnica,stolnica,ILOTNCSA,none,NaN,17,8,8
23,0,0,2,0.588,1.697,1,2,1,o,nadzieja,niedziela,ZDAEJNAI,added,NaN,18,8,7
23,0,0,1,0.863,2.4,2,2,1,o,parowka,oprawka,RAOKAPW,changed,NaN,19,7,7
23,0,1,1,1.275,1.713,0,2,0,p,mieszkanie,zamieszki,ZKESIAIENM,added&changed,NaN,20,10,9
23,1,1,3,0.731,1.679,3,2,1,p,doniczka,doniczka,OCDAIZKN,none,NaN,21,8,8
23,0,0,NaN,1.195,NaN,1,2,1,o,dinozaur,rodzina,OIDZUARN,added,NaN,22,8,7
23,0,1,1,1.974,1.874,1,2,0,p,bakteria,bateria,AREIAKTB,added,NaN,23,8,7
23,1,1,3,0.836,0.989,3,2,1,p,czujnik,czujnik,KZIJUNC,none,NaN,24,7,7
23,0,1,2,1.832,2.376,0,2,0,p,kochanka,choinka,AKNAOHCK,added&changed,NaN,25,8,7
23,1,1,NaN,1.184,NaN,3,2,1,p,bratanek,bratanek,RNATBKEA,none,NaN,26,8,8
23,0,1,2,1.325,2.815,1,2,0,p,tabletka,baletka,KTALAETB,added,NaN,27,8,7
23,0,1,2,1.436,1.03,1,2,0,p,bankomat,komnata,AKMOTABN,added,NaN,28,8,7
23,0,1,4,0.701,2.165,2,2,0,p,prowincja,pracownik,RPWIJNOAC,changed,NaN,29,9,9
23,1,1,1,1.342,2.566,3,2,1,p,katalog,katalog,KTGALOA,none,NaN,30,7,7
23,1,1,NaN,1.617,NaN,3,2,1,p,spotkanie,spotkanie,TPNSKAOIE,none,NaN,31,9,9
23,0,0,NaN,1.437,NaN,2,2,1,o,klasztor,kloszard,ARLZOSTK,changed,NaN,32,8,8
23,1,1,2,1.317,2.973,3,2,1,p,podstawa,podstawa,AODSTPAW,none,NaN,33,9,9
23,1,0,2,1.005,1.948,3,2,0,o,bratowa,bratowa,TRWAOBA,none,NaN,34,7,7
23,0,1,NaN,1.831,NaN,2,2,0,p,dzielnica,niedziela,NZLDIACIE,changed,NaN,35,9,9
23,0,1,2,1.107,2.321,2,2,0,p,kurczak,kucharz,CKRAZKU,changed,NaN,36,7,7
23,1,1,2,1.504,1.501,3,2,1,p,uzdrowisko,uzdrowisko,ISDRKWOZUO,none,NaN,37,10,10
23,1,1,3,1.117,1.649,3,2,1,p,sliniak,sliniak,IALNKIS,none,NaN,38,7,7
23,0,1,NaN,2.103,NaN,2,2,0,p,remanent,atrament,TRMNAENE,changed,NaN,39,8,8
23,0,1,2,0.643,1.455,1,2,0,p,cmentarz,tancerz,RNACTMZE,added,NaN,40,8,7
23,1,1,2,0.855,1.525,3,2,1,p,sniezyca,sniezyca,ICEYZANS,none,NaN,41,8,8
23,0,1,4,0.408,1.909,1,2,0,p,korytarz,aktorzy,RTZKYARO,added,NaN,42,8,7
24,0,0,NaN,2.364,NaN,0,1,1,o,rachunek,rabunek,ENCKRHAU,added&changed,NaN,3,8,7
24,1,1,NaN,1.681,NaN,3,1,1,p,koniczyna,koniczyna,NYNICZKOA,none,NaN,4,9,9
24,1,1,2,1.981,1.569,3,1,1,p,koszula,koszula,OULZKSA,none,NaN,5,7,7
24,0,0,2,1.623,1.243,1,1,1,o,bakteria,bateria,AREIAKTB,added,NaN,6,8,7
24,0,0,3,1.659,1.287,1,1,1,o,lakomstwo,klamstwo,TLKOASOWM,added,NaN,7,9,8
24,0,1,2,1.627,1.091,2,1,0,p,dzielnica,niedziela,NZLDIACIE,changed,NaN,8,9,9
24,1,0,3,2.886,1.947,3,1,0,o,podstawa,podstawa,AODSTPAW,none,NaN,9,9,9
24,0,0,3,1.724,1.753,1,1,1,o,nadzieja,niedziela,ZDAEJNAI,added,NaN,10,8,7
24,1,0,NaN,2.13,NaN,3,1,0,o,sliniak,sliniak,IALNKIS,none,NaN,11,7,7
24,0,0,2,1.343,1.4,2,1,1,o,plantacja,policjant,CJATLANPA,changed,NaN,12,9,9
24,1,0,3,2.381,1.088,3,1,0,o,sniezyca,sniezyca,ICEYZANS,none,NaN,13,8,8
24,1,1,2,1.551,1.708,3,1,1,p,bratowa,bratowa,TRWAOBA,none,NaN,14,7,7
24,0,NaN,2,NaN,2.635,1,1,0,NaN,tabletka,baletka,KTALAETB,added,NaN,15,8,7
24,0,1,2,1.238,1.908,1,1,0,p,korytarz,aktorzy,RTZKYARO,added,NaN,16,8,7
24,1,1,2,1.264,2.629,3,1,1,p,kosiarka,kosiarka,RSKIOAKA,none,NaN,17,8,8
24,1,1,3,1.229,1.601,3,1,1,p,czujnik,czujnik,KZIJUNC,none,NaN,18,7,7
24,0,0,3,2.105,1.599,0,1,1,o,mieszkanie,zamieszki,ZKESIAIENM,added&changed,NaN,19,10,9
24,0,0,4,0.911,1.504,2,1,1,o,parowka,oprawka,RAOKAPW,changed,NaN,20,7,7
24,0,0,4,1.547,1.072,2,1,1,o,potrawa,poprawa,PAOATWR,changed,NaN,21,7,7
24,0,1,2,2.414,1.246,2,1,0,p,klasztor,kloszard,ARLZOSTK,changed,NaN,22,8,8
24,1,1,3,1.43,1.324,3,1,1,p,stolnica,stolnica,ILOTNCSA,none,NaN,23,8,8
24,1,1,3,1.305,1.238,3,1,1,p,spotkanie,spotkanie,TPNSKAOIE,none,NaN,24,9,9
24,1,1,2,2.425,1.043,3,1,1,p,bratanek,bratanek,RNATBKEA,none,NaN,25,8,8
24,1,1,2,2.466,1.152,3,1,1,p,naparstek,naparstek,RAEKNSTPA,none,NaN,26,9,9
24,1,1,2,1.797,1.009,3,1,1,p,rakieta,rakieta,RKEAIAT,none,NaN,27,7,7
24,0,0,3,2.705,1.559,2,1,1,o,kurczak,kucharz,CKRAZKU,changed,NaN,28,7,7
24,1,1,3,1.738,0.605,3,1,1,p,katalog,katalog,KTGALOA,none,NaN,29,7,7
24,0,0,2,1.97,1.235,2,1,1,o,remanent,atrament,TRMNAENE,changed,NaN,30,8,8
24,0,1,2,1.587,0.603,1,1,0,p,cmentarz,tancerz,RNACTMZE,added,NaN,31,8,7
24,0,0,3,2.046,1.521,1,1,1,o,bankomat,komnata,AKMOTABN,added,NaN,32,8,7
24,1,1,4,0.602,0.918,3,1,1,p,kregoslup,kregoslup,UGELROKSP,none,NaN,33,9,9
24,0,0,3,1.88,0.81,0,1,1,o,kochanka,choinka,AKNAOHCK,added&changed,NaN,34,8,7
24,0,1,2,2.939,1.04,2,1,0,p,prowincja,pracownik,RPWIJNOAC,changed,NaN,35,9,9
24,0,0,3,1.716,1.247,1,1,1,o,dinozaur,rodzina,OIDZUARN,added,NaN,36,8,7
24,1,1,3,1.475,0.568,3,1,1,p,wanilia,wanilia,WLNIAIA,none,NaN,37,7,7
24,1,1,2,1.826,1.4,3,1,1,p,uzdrowisko,uzdrowisko,ISDRKWOZUO,none,NaN,38,10,10
24,1,1,2,1.611,0.927,3,1,1,p,klamerka,klamerka,ELAMKRKA,none,NaN,39,8,8
24,1,1,1,2.3,2.386,3,1,1,p,doniczka,doniczka,OCDAIZKN,none,NaN,40,8,8
24,1,1,3,2.302,1.868,3,1,1,p,zmiennik,zmiennik,NZIEKNMI,none,NaN,41,8,8
24,0,0,3,1.952,1.488,1,1,1,o,trucizna,intruz,CNRIZAUT,added,NaN,42,8,6
25,0,0,3,1.248,2.534,0,3,1,p,sliniak,slimak,IALNKIS,added&changed,0,3,7,6
25,0,NaN,2,NaN,1.074,2,3,0,NaN,czujnik,czajnik,KZIJUNC,changed,0,4,7,7
25,0,1,4,1.526,1.355,1,3,0,o,stolnica,stolica,ILOTNCSA,added,1213,5,8,7
25,1,1,4,0.657,1.475,3,3,1,o,prowincja,prowincja,RPWIJNOAC,none,1132,6,9,9
25,1,1,3,1.061,1.591,3,3,1,o,klasztor,klasztor,ARLZOSTK,none,1264,7,8,8
25,1,NaN,2,NaN,2.014,3,3,0,NaN,dzielnica,dzielnica,NZLDIACIE,none,2362,8,9,9
25,1,0,2,1.441,2.009,3,3,0,p,tabletka,tabletka,KTALAETB,none,0,9,8,8
25,0,0,3,1.091,2.715,1,3,1,p,katalog,lokata,KTGALOA,added,946,10,7,6
25,1,0,4,1.483,2.168,3,3,0,p,korytarz,korytarz,RTZKYARO,none,1093,11,8,8
25,1,0,4,0.626,1.948,3,3,0,p,mieszkanie,mieszkanie,ZKESIAIENM,none,1365,12,10,10
25,0,0,NaN,1.562,NaN,1,3,1,p,wanilia,lawina,WLNIAIA,added,0,13,7,6
25,0,0,4,1.243,1.644,2,3,1,p,koniczyna,zakonnica,NYNICZKOA,changed,0,14,9,9
25,0,0,2,0.899,1.816,0,3,1,p,doniczka,odznaka,OCDAIZKN,added&changed,1107,15,8,7
25,0,0,4,0.469,1.398,0,3,1,p,sniezyca,sciezka,ICEYZANS,added&changed,2090,16,8,7
25,1,1,4,0.86,1.083,3,3,1,o,lakomstwo,lakomstwo,TLKOASOWM,none,1045,17,9,9
25,1,NaN,3,NaN,0.686,3,3,0,NaN,trucizna,trucizna,CNRIZAUT,none,2018,18,8,8
25,0,NaN,2,NaN,1.225,1,3,0,NaN,spotkanie,eksponat,TPNSKAOIE,added,0,19,9,8
25,1,1,4,0.665,1.115,3,3,1,o,parowka,parowka,RAOKAPW,none,1089,20,7,7
25,0,0,4,1.022,1.273,0,3,1,p,kregoslup,skorupa,UGELROKSP,added&changed,941,21,9,7
25,1,1,4,0.511,1.001,3,3,1,o,dinozaur,dinozaur,OIDZUARN,none,807,22,8,8
25,1,1,3,1.678,1.635,3,3,1,o,rachunek,rachunek,ENCKRHAU,none,2180,23,8,8
25,1,0,3,1.366,1.077,3,3,0,p,kurczak,kurczak,CKRAZKU,none,2289,24,7,7
25,1,1,4,0.875,0.773,3,3,1,o,potrawa,potrawa,PAOATWR,none,963,25,7,7
25,1,1,4,0.484,1.004,3,3,1,o,bakteria,bakteria,AREIAKTB,none,1627,26,8,8
25,0,0,2,1.368,0.686,1,3,1,p,kosiarka,sikorka,RSKIOAKA,added,1120,27,8,7
25,0,1,1,1.169,1.764,1,3,0,o,uzdrowisko,skorowidz,ISDRKWOZUO,added,1230,28,10,9
25,1,0,3,0.625,1.865,3,3,0,p,nadzieja,nadzieja,ZDAEJNAI,none,883,29,8,8
25,1,1,4,1.01,1.811,3,3,1,o,bankomat,bankomat,AKMOTABN,none,0,30,8,8
25,0,1,3,1.056,1.267,2,3,0,o,zmiennik,ziemniak,NZIEKNMI,changed,1502,31,8,8
25,0,0,4,1.366,0.967,1,3,1,p,bratanek,kabaret,RNATBKEA,added,387,32,8,7
25,1,1,4,0.706,0.533,3,3,1,o,remanent,remanent,TRMNAENE,none,589,33,8,8
25,0,1,4,1.666,2.24,2,3,0,o,bratowa,watroba,TRWAOBA,changed,1003,34,7,7
25,0,1,4,0.891,1.859,1,3,0,o,naparstek,pasterka,RAEKNSTPA,added,1019,35,9,8
25,1,1,3,0.817,1.229,3,3,1,o,kochanka,kochanka,AKNAOHCK,none,2601,36,8,8
25,1,1,NaN,1.891,NaN,3,3,1,o,cmentarz,cmentarz,RNACTMZE,none,572,37,8,8
25,1,1,3,0.358,1.151,3,3,1,o,plantacja,plantacja,CJATLANPA,none,853,38,9,9
25,0,1,3,1.756,1.384,2,3,0,o,klamerka,kelnerka,ELAMKRKA,changed,1435,39,8,8
25,0,0,4,0.429,1.582,1,3,1,p,koszula,kalosz,OULZKSA,added,2869,40,7,6
25,0,1,3,0.556,1.19,2,3,0,o,rakieta,karetka,RKEAIAT,changed,1003,41,7,7
25,0,1,3,1.592,0.96,1,3,0,o,podstawa,dostawa,AODSTPAW,added,2189,42,9,8
26,0,0,4,1.589,0.656,1,1,1,p,tabletka,baletka,KTALAETB,added,NaN,3,8,7
26,1,1,3,2.885,2.072,3,1,1,o,doniczka,doniczka,OCDAIZKN,none,NaN,4,8,8
26,0,NaN,4,NaN,1.923,2,1,0,NaN,klasztor,kloszard,ARLZOSTK,changed,NaN,5,8,8
26,1,1,4,0.619,1.223,3,1,1,o,czujnik,czujnik,KZIJUNC,none,NaN,6,7,7
26,0,0,4,1.672,0.807,1,1,1,p,bankomat,komnata,AKMOTABN,added,NaN,7,8,7
26,0,0,4,1.155,0.965,0,1,1,p,rachunek,rabunek,ENCKRHAU,added&changed,NaN,8,8,7
26,0,0,3,2.478,1.408,0,1,1,p,kochanka,choinka,AKNAOHCK,added&changed,NaN,9,8,7
26,1,1,4,0.618,0.422,3,1,1,o,sniezyca,sniezyca,ICEYZANS,none,NaN,10,8,8
26,1,0,4,1.557,0.816,3,1,0,p,spotkanie,spotkanie,TPNSKAOIE,none,NaN,11,9,9
26,0,NaN,4,NaN,1.521,2,1,0,NaN,plantacja,policjant,CJATLANPA,changed,NaN,12,9,9
26,0,0,4,0.79,0.649,1,1,1,p,nadzieja,niedziela,ZDAEJNAI,added,NaN,13,8,7
26,1,1,4,1.641,1.046,3,1,1,o,zmiennik,zmiennik,NZIEKNMI,none,NaN,14,8,8
26,0,0,4,1.461,0.693,1,1,1,p,dinozaur,rodzina,OIDZUARN,added,NaN,15,8,7
26,1,1,4,1.448,0.855,3,1,1,o,katalog,katalog,KTGALOA,none,NaN,16,7,7
26,0,0,4,1.211,0.612,0,1,1,p,mieszkanie,zamieszki,ZKESIAIENM,added&changed,NaN,17,10,9
26,1,1,3,1.672,1.6,3,1,1,o,uzdrowisko,uzdrowisko,ISDRKWOZUO,none,NaN,18,10,10
26,1,1,3,1.878,1.153,3,1,1,o,naparstek,naparstek,RAEKNSTPA,none,NaN,19,9,9
26,1,NaN,2,NaN,1.528,3,1,0,NaN,bratanek,bratanek,RNATBKEA,none,NaN,20,8,8
26,0,0,4,1.075,0.769,2,1,1,p,dzielnica,niedziela,NZLDIACIE,changed,NaN,21,9,9
26,1,1,4,0.425,0.481,3,1,1,o,wanilia,wanilia,WLNIAIA,none,NaN,22,7,7
26,1,1,3,0.803,1.122,3,1,1,o,kregoslup,kregoslup,UGELROKSP,none,NaN,23,9,9
26,1,1,4,0.136,0.685,3,1,1,o,klamerka,klamerka,ELAMKRKA,none,NaN,24,8,8
26,0,0,4,1.317,1.357,2,1,1,p,prowincja,pracownik,RPWIJNOAC,changed,NaN,25,9,9
26,1,0,2,2.239,1.085,3,1,0,p,koniczyna,koniczyna,NYNICZKOA,none,NaN,26,9,9
26,0,0,4,1.335,1.328,1,1,1,p,lakomstwo,klamstwo,TLKOASOWM,added,NaN,27,9,8
26,1,1,3,1.292,1.167,3,1,1,o,koszula,koszula,OULZKSA,none,NaN,28,7,7
26,0,0,4,0.97,0.645,1,1,1,p,trucizna,intruz,CNRIZAUT,added,NaN,29,8,6
26,0,0,2,1.496,1.13,1,1,1,p,korytarz,aktorzy,RTZKYARO,added,NaN,30,8,7
26,0,0,3,2.711,1.765,1,1,1,p,bakteria,bateria,AREIAKTB,added,NaN,31,8,7
26,0,0,4,1.01,2.678,2,1,1,p,remanent,atrament,TRMNAENE,changed,NaN,32,8,8
26,1,1,3,1.432,2.325,3,1,1,o,sliniak,sliniak,IALNKIS,none,NaN,33,7,7
26,0,0,NaN,1.219,NaN,1,1,1,p,cmentarz,tancerz,RNACTMZE,added,NaN,34,8,7
26,1,1,3,0.785,0.683,3,1,1,o,bratowa,bratowa,TRWAOBA,none,NaN,35,7,7
26,0,0,4,0.965,0.997,2,1,1,p,parowka,oprawka,RAOKAPW,changed,NaN,36,7,7
26,1,1,4,0.619,0.804,3,1,1,o,stolnica,stolnica,ILOTNCSA,none,NaN,37,8,8
26,1,1,3,0.904,1.655,3,1,1,o,kosiarka,kosiarka,RSKIOAKA,none,NaN,38,8,8
26,0,0,4,0.936,0.805,2,1,1,p,kurczak,kucharz,CKRAZKU,changed,NaN,39,7,7
26,1,1,3,0.967,0.801,3,1,1,o,podstawa,podstawa,AODSTPAW,none,NaN,40,9,9
26,1,1,4,1.557,0.539,3,1,1,o,rakieta,rakieta,RKEAIAT,none,NaN,41,7,7
26,0,0,3,2.161,1.533,2,1,1,p,potrawa,poprawa,PAOATWR,changed,NaN,42,7,7
27,1,NaN,2,NaN,2.868,3,3,0,NaN,spotkanie,spotkanie,TPNSKAOIE,none,0,3,9,9
27,1,NaN,1,NaN,1.686,3,3,0,NaN,uzdrowisko,uzdrowisko,ISDRKWOZUO,none,1718,4,10,10
27,1,0,NaN,0.718,NaN,3,3,0,p,rakieta,rakieta,RKEAIAT,none,2343,5,7,7
27,0,0,1,1.112,0.781,1,3,1,p,lakomstwo,klamstwo,TLKOASOWM,added,1839,6,9,8
27,1,1,4,1.086,0.862,3,3,1,o,katalog,katalog,KTGALOA,none,1091,7,7,7
27,1,0,1,1.073,0.982,3,3,0,p,sliniak,sliniak,IALNKIS,none,1760,8,7,7
27,1,NaN,4,NaN,0.527,3,3,0,NaN,kregoslup,kregoslup,UGELROKSP,none,893,9,9,9
27,0,0,2,1.36,0.808,2,3,1,p,plantacja,policjant,CJATLANPA,changed,2097,10,9,9
27,1,0,2,1.076,0.868,3,3,0,p,naparstek,naparstek,RAEKNSTPA,none,2030,11,9,9
27,0,0,1,0.842,0.421,2,3,1,p,prowincja,pracownik,RPWIJNOAC,changed,1602,12,9,9
27,1,0,1,0.6,0.501,3,3,0,p,bratanek,bratanek,RNATBKEA,none,2387,13,8,8
27,0,0,4,0.522,0.434,2,3,1,p,kurczak,kucharz,CKRAZKU,changed,2516,14,7,7
27,0,0,1,0.609,0.459,1,3,1,p,cmentarz,tancerz,RNACTMZE,added,2201,15,8,7
27,0,0,2,0.607,1.34,1,3,1,p,tabletka,baletka,KTALAETB,added,2162,16,8,7
27,0,0,1,0.32,0.43,1,3,1,p,bakteria,bateria,AREIAKTB,added,1761,17,8,7
27,0,0,1,0.407,0.704,1,3,1,p,trucizna,intruz,CNRIZAUT,added,0,18,8,6
27,0,1,2,1.357,0.672,2,3,0,o,potrawa,poprawa,PAOATWR,changed,2232,19,7,7
27,1,1,4,1.079,2.171,3,3,1,o,podstawa,podstawa,AODSTPAW,none,60,20,9,9
27,0,0,3,0.726,2.091,1,3,1,p,nadzieja,niedziela,ZDAEJNAI,added,2044,21,8,7
27,1,0,2,1.312,1.916,3,3,0,p,stolnica,stolnica,ILOTNCSA,none,0,22,8,8
27,0,0,3,0.69,2.345,2,3,1,p,klasztor,kloszard,ARLZOSTK,changed,0,23,8,8
27,0,0,4,1.083,0.441,2,3,1,p,parowka,oprawka,RAOKAPW,changed,0,24,7,7
27,0,0,1,1.323,0.827,0,3,1,p,mieszkanie,zamieszki,ZKESIAIENM,added&changed,2512,25,10,9
27,0,NaN,1,NaN,2.452,1,3,0,NaN,dinozaur,rodzina,OIDZUARN,added,2082,26,8,7
27,1,0,1,0.675,0.396,3,3,0,p,doniczka,doniczka,OCDAIZKN,none,1566,27,8,8
27,0,0,NaN,1.078,NaN,0,3,1,p,rachunek,rabunek,ENCKRHAU,added&changed,0,28,8,7
27,1,NaN,2,NaN,1.892,3,3,0,NaN,zmiennik,zmiennik,NZIEKNMI,none,2605,29,8,8
27,0,0,1,0.952,1.529,0,3,1,p,kochanka ,choinka,AKNAOHCK,added&changed,1769,30,8,7
27,0,0,3,0.635,0.646,1,3,1,p,bankomat,komnata,AKMOTABN,added,2776,31,8,7
27,1,0,1,0.561,1.968,3,3,0,p,koszula,koszula,OULZKSA,none,0,32,7,7
27,1,0,1,0.562,0.671,3,3,0,p,koniczyna,koniczyna,NYNICZKOA,none,1528,33,9,9
27,0,0,2,0.602,1.019,2,3,1,p,remanent,atrament,TRMNAENE,changed,1490,34,8,8
27,1,1,4,0.64,1.134,3,3,1,o,klamerka,klamerka,ELAMKRKA,none,102,35,8,8
27,1,0,4,0.411,0.625,3,3,0,p,kosiarka,kosiarka,RSKIOAKA,none,0,36,8,8
27,0,0,1,0.327,0.503,1,3,1,p,korytarz,aktorzy,RTZKYARO,added,2088,37,8,7
27,1,0,1,0.487,0.472,3,3,0,p,czujnik,czujnik,KZIJUNC,none,1413,38,7,7
27,1,1,4,0.372,0.426,3,3,1,o,sniezyca,sniezyca,ICEYZANS,none,1090,39,8,8
27,1,1,4,0.583,1.024,3,3,1,o,wanilia,wanilia,WLNIAIA,none,1329,40,7,7
27,0,0,1,0.411,0.708,2,3,1,p,dzielnica,niedziela,NZLDIACIE,changed,1179,41,9,9
27,1,0,2,0.361,1.5,3,3,0,p,bratowa,bratowa,TRWAOBA,none,1594,42,7,7
28,0,0,4,1.004,2.207,1,3,1,o,bankomat,komnata,AKMOTABN,added,1374,3,8,7
28,0,0,4,1.022,1.936,1,3,1,o,nadzieja,niedziela,ZDAEJNAI,added,1029,4,8,7
28,0,0,4,1.046,1.061,1,3,1,o,cmentarz,tancerz,RNACTMZE,added,2625,5,8,7
28,1,1,NaN,1.231,NaN,3,3,1,p,uzdrowisko,uzdrowisko,ISDRKWOZUO,none,1106,6,10,10
28,1,1,4,0.915,0.981,3,3,1,p,czujnik,czujnik,KZIJUNC,none,2825,7,7,7
28,0,NaN,NaN,NaN,NaN,2,3,0,NaN,plantacja,policjant,CJATLANPA,changed,0,8,9,9
28,1,NaN,2,NaN,1.14,3,3,0,NaN,zmiennik,zmiennik,NZIEKNMI,none,1176,9,8,8
28,0,1,4,1.007,1.861,2,3,0,p,potrawa,poprawa,PAOATWR,changed,0,10,7,7
28,0,NaN,2,NaN,2.067,2,3,0,NaN,prowincja,pracownik,RPWIJNOAC,changed,2088,11,9,9
28,0,0,4,0.757,0.949,1,3,1,o,dinozaur,rodzina,OIDZUARN,added,749,12,8,7
28,0,0,3,0.803,1.338,2,3,1,o,klasztor,kloszard,ARLZOSTK,changed,2458,13,8,8
28,1,1,4,0.886,1.025,3,3,1,p,wanilia,wanilia,WLNIAIA,none,662,14,7,7
28,0,0,4,0.757,0.982,1,3,1,o,lakomstwo,klamstwo,TLKOASOWM,added,708,15,9,8
28,1,1,4,0.727,0.908,3,3,1,p,sniezyca,sniezyca,ICEYZANS,none,514,16,8,8
28,1,1,4,0.879,0.618,3,3,1,p,kregoslup,kregoslup,UGELROKSP,none,917,17,9,9
28,0,0,4,0.717,0.898,2,3,1,o,dzielnica,niedziela,NZLDIACIE,changed,753,18,9,9
28,1,1,4,0.874,0.663,3,3,1,p,koniczyna,koniczyna,NYNICZKOA,none,824,19,9,9
28,0,0,4,0.557,0.78,2,3,1,o,parowka,oprawka,RAOKAPW,changed,1105,20,7,7
28,1,1,4,1.36,1.109,3,3,1,p,naparstek,naparstek,RAEKNSTPA,none,0,21,9,9
28,1,1,4,0.764,0.671,3,3,1,p,podstawa,podstawa,AODSTPAW,none,1506,22,9,9
28,1,1,3,0.718,1.215,3,3,1,p,doniczka,doniczka,OCDAIZKN,none,788,23,8,8
28,0,0,4,0.777,1.76,1,3,1,o,tabletka,baletka,KTALAETB,added,0,24,8,7
28,0,0,3,1.234,1.067,0,3,1,o,kochanka ,choinka,AKNAOHCK,added&changed,797,25,8,7
28,1,1,4,0.557,0.629,3,3,1,p,sliniak,sliniak,IALNKIS,none,595,26,7,7
28,1,1,4,0.845,1.058,3,3,1,p,rakieta,rakieta,RKEAIAT,none,855,27,7,7
28,0,0,4,0.642,0.701,2,3,1,o,kurczak,kucharz,CKRAZKU,changed,721,28,7,7
28,1,1,4,0.4,1.214,3,3,1,p,koszula,koszula,OULZKSA,none,0,29,7,7
28,0,1,3,0.928,1.612,2,3,0,p,remanent,atrament,TRMNAENE,changed,1038,30,8,8
28,0,0,4,0.651,0.86,0,3,1,o,rachunek,rabunek,ENCKRHAU,added&changed,756,31,8,7
28,1,1,3,0.926,1.46,3,3,1,p,stolnica,stolnica,ILOTNCSA,none,911,32,8,8
28,1,1,3,0.885,0.824,3,3,1,p,katalog,katalog,KTGALOA,none,875,33,7,7
28,1,1,4,0.334,1.243,3,3,1,p,kosiarka,kosiarka,RSKIOAKA,none,0,34,8,8
28,1,1,4,0.56,0.865,3,3,1,p,klamerka,klamerka,ELAMKRKA,none,1311,35,8,8
28,0,0,3,1.043,1.14,0,3,1,o,mieszkanie,zamieszki,ZKESIAIENM,added&changed,1058,36,10,9
28,0,0,2,1.198,0.737,1,3,1,o,korytarz,aktorzy,RTZKYARO,added,984,37,8,7
28,1,0,3,0.972,1.275,3,3,0,o,spotkanie,spotkanie,TPNSKAOIE,none,0,38,9,9
28,0,NaN,2,NaN,1.306,1,3,0,NaN,trucizna,intruz,CNRIZAUT,added,1382,39,8,6
28,0,0,3,0.558,0.881,1,3,1,o,bakteria,bateria,AREIAKTB,added,0,40,8,7
28,1,1,3,0.686,1.173,3,3,1,p,bratowa,bratowa,TRWAOBA,none,1534,41,7,7
28,1,1,3,0.398,0.829,3,3,1,p,bratanek,bratanek,RNATBKEA,none,1263,42,8,8
29,0,0,3,1.332,1.172,0,3,1,p,rachunek,rabunek,ENCKRHAU,added&changed,0,3,8,7
29,1,1,3,0.737,0.885,3,3,1,o,zmiennik,zmiennik,NZIEKNMI,none,2306,4,8,8
29,1,NaN,4,NaN,0.633,3,3,0,NaN,klamerka,klamerka,ELAMKRKA,none,1810,5,8,8
29,0,1,2,1.26,1.114,0,3,0,p,mieszkanie,zamieszki,ZKESIAIENM,added&changed,0,6,10,9
29,0,0,4,1.078,0.757,2,3,1,p,potrawa,poprawa,PAOATWR,changed,2272,7,7,7
29,1,0,2,1.426,1.737,3,3,0,p,naparstek,naparstek,RAEKNSTPA,none,0,8,9,9
29,1,1,2,1.421,0.565,3,3,1,o,doniczka,doniczka,OCDAIZKN,none,1072,9,8,8
29,0,0,4,0.924,1.697,1,3,1,p,dinozaur,rodzina,OIDZUARN,added,1318,10,8,7
29,0,0,4,1.109,0.823,2,3,1,p,prowincja,pracownik,RPWIJNOAC,changed,1641,11,9,9
29,1,1,4,1.124,0.572,3,3,1,o,katalog,katalog,KTGALOA,none,930,12,7,7
29,1,1,2,1.342,0.833,3,3,1,o,uzdrowisko,uzdrowisko,ISDRKWOZUO,none,1935,13,10,10
29,1,1,4,0.996,0.422,3,3,1,o,sliniak,sliniak,IALNKIS,none,1190,14,7,7
29,0,0,2,0.869,1.09,1,3,1,p,korytarz,aktorzy,RTZKYARO,added,1886,15,8,7
29,0,0,2,0.952,2.51,2,3,1,p,plantacja,policjant,CJATLANPA,changed,0,16,9,9
29,0,0,3,1.066,1.627,1,3,1,p,tabletka,baletka,KTALAETB,added,0,17,8,7
29,0,0,3,0.843,0.496,2,3,1,p,klasztor,kloszard,ARLZOSTK,changed,2350,18,8,8
29,0,0,2,0.924,2.564,1,3,1,p,lakomstwo,klamstwo,TLKOASOWM,added,0,19,9,8
29,0,0,3,0.441,0.677,1,3,1,p,trucizna,intruz,CNRIZAUT,added,1889,20,8,6
29,0,0,4,0.538,0.628,0,3,1,p,kochanka ,choinka,AKNAOHCK,added&changed,2088,21,8,7
29,1,1,4,0.658,0.754,3,3,1,o,czujnik,czujnik,KZIJUNC,none,2052,22,7,7
29,0,0,3,0.803,2.905,2,3,1,p,kurczak,kucharz,CKRAZKU,changed,0,23,7,7
29,0,NaN,4,NaN,1.831,1,3,0,NaN,cmentarz,tancerz,RNACTMZE,added,0,24,8,7
29,1,1,4,0.535,0.658,3,3,1,o,sniezyca,sniezyca,ICEYZANS,none,1269,25,8,8
29,0,0,4,0.393,0.427,1,3,1,p,bakteria,bateria,AREIAKTB,added,1695,26,8,7
29,1,1,4,0.479,0.616,3,3,1,o,wanilia,wanilia,WLNIAIA,none,709,27,7,7
29,1,1,3,0.367,0.35,3,3,1,o,bratanek,bratanek,RNATBKEA,none,2298,28,8,8
29,1,1,4,0.32,0.385,3,3,1,o,koszula,koszula,OULZKSA,none,702,29,7,7
29,0,0,4,0.313,0.276,1,3,1,p,bankomat,komnata,AKMOTABN,added,1938,30,8,7
29,0,0,4,0.348,0.347,1,3,1,p,nadzieja,niedziela,ZDAEJNAI,added,978,31,8,7
29,1,1,4,0.478,0.366,3,3,1,o,kregoslup,kregoslup,UGELROKSP,none,1748,32,9,9
29,1,NaN,2,NaN,0.421,3,3,0,NaN,stolnica,stolnica,ILOTNCSA,none,1423,33,8,8
29,1,1,2,0.955,0.979,3,3,1,o,spotkanie,spotkanie,TPNSKAOIE,none,1403,34,9,9
29,0,0,4,0.462,0.765,2,3,1,p,parowka,oprawka,RAOKAPW,changed,731,35,7,7
29,1,1,4,0.39,0.324,3,3,1,o,koniczyna,koniczyna,NYNICZKOA,none,2004,36,9,9
29,1,1,4,1.278,0.748,3,3,1,o,podstawa,podstawa,AODSTPAW,none,1147,37,9,9
29,0,1,2,0.501,0.373,2,3,0,o,remanent,atrament,TRMNAENE,changed,1339,38,8,8
29,0,0,4,0.418,0.386,2,3,1,p,dzielnica,niedziela,NZLDIACIE,changed,1870,39,9,9
29,1,1,4,0.595,0.371,3,3,1,o,rakieta,rakieta,RKEAIAT,none,787,40,7,7
29,1,1,4,0.476,0.38,3,3,1,o,kosiarka,kosiarka,RSKIOAKA,none,412,41,8,8
29,1,1,3,0.939,1.713,3,3,1,o,bratowa,bratowa,TRWAOBA,none,0,42,7,7
30,1,1,NaN,2.398,NaN,3,2,1,p,czujnik,czujnik,KZIJUNC,none,NaN,3,7,7
30,0,0,NaN,2.272,NaN,1,2,1,o,nadzieja,niedziela,ZDAEJNAI,added,NaN,4,8,7
30,1,1,NaN,1.347,NaN,3,2,1,p,spotkanie,spotkanie,TPNSKAOIE,none,NaN,5,9,9
30,0,0,NaN,1.201,NaN,2,2,1,o,plantacja,policjant,CJATLANPA,changed,NaN,6,9,9
30,0,0,2,0.809,1.978,1,2,1,o,dinozaur,rodzina,OIDZUARN,added,NaN,7,8,7
30,1,0,2,0.874,1.678,3,2,0,o,bratowa,bratowa,TRWAOBA,none,NaN,8,7,7
30,0,0,2,1.275,1.184,2,2,1,o,prowincja,pracownik,RPWIJNOAC,changed,NaN,9,9,9
30,1,1,3,0.561,2.934,3,2,1,p,bratanek,bratanek,RNATBKEA,none,NaN,10,8,8
30,0,0,NaN,2.192,NaN,0,2,1,o,kochanka ,choinka,AKNAOHCK,added&changed,NaN,11,8,7
30,1,1,3,0.876,2.798,3,2,1,p,podstawa,podstawa,AODSTPAW,none,NaN,12,9,9
30,1,0,1,1.24,1.887,3,2,0,o,naparstek,naparstek,RAEKNSTPA,none,NaN,13,9,9
30,1,0,NaN,0.947,NaN,3,2,0,o,kregoslup,kregoslup,UGELROKSP,none,NaN,14,9,9
30,1,1,4,0.681,1.634,3,2,1,p,kosiarka,kosiarka,RSKIOAKA,none,NaN,15,8,8
30,1,1,4,0.372,1.108,3,2,1,p,sliniak,sliniak,IALNKIS,none,NaN,16,7,7
30,0,0,1,1.033,1.979,0,2,1,o,rachunek,rabunek,ENCKRHAU,added&changed,NaN,17,8,7
30,1,0,2,0.955,1.581,3,2,0,o,sniezyca,sniezyca,ICEYZANS,none,NaN,18,8,8
30,1,1,4,1.325,0.959,3,2,1,p,koszula,koszula,OULZKSA,none,NaN,19,7,7
30,1,1,4,0.885,1.623,3,2,1,p,doniczka,doniczka,OCDAIZKN,none,NaN,20,8,8
30,0,0,NaN,1.844,NaN,2,2,1,o,parowka,oprawka,RAOKAPW,changed,NaN,21,7,7
30,1,0,NaN,1.531,NaN,3,2,0,o,klamerka,klamerka,ELAMKRKA,none,NaN,22,8,8
30,0,1,1,1.195,1.45,1,2,0,p,lakomstwo,klamstwo,TLKOASOWM,added,NaN,23,9,8
30,1,1,4,0.763,2.02,3,2,1,p,koniczyna,koniczyna,NYNICZKOA,none,NaN,24,9,9
30,0,0,4,1.906,2.847,2,2,1,o,kurczak,kucharz,CKRAZKU,changed,NaN,25,7,7
30,1,0,1,1.599,1.624,3,2,0,o,katalog,katalog,KTGALOA,none,NaN,26,7,7
30,0,0,4,1.166,2.46,0,2,1,o,mieszkanie,zamieszki,ZKESIAIENM,added&changed,NaN,27,10,9
30,0,0,1,0.84,2.401,2,2,1,o,dzielnica,niedziela,NZLDIACIE,changed,NaN,28,9,9
30,0,1,1,0.914,1.528,1,2,0,p,bankomat,komnata,AKMOTABN,added,NaN,29,8,7
30,1,1,4,1.203,1.207,3,2,1,p,rakieta,rakieta,RKEAIAT,none,NaN,30,7,7
30,0,0,1,0.731,2.227,1,2,1,o,korytarz,aktorzy,RTZKYARO,added,NaN,31,8,7
30,0,0,NaN,1.37,NaN,1,2,1,o,trucizna,intruz,CNRIZAUT,added,NaN,32,8,6
30,0,1,4,0.607,2.273,2,2,0,p,klasztor,kloszard,ARLZOSTK,changed,NaN,33,8,8
30,1,0,1,1.311,1.314,3,2,0,o,stolnica,stolnica,ILOTNCSA,none,NaN,34,8,8
30,0,1,4,1.115,2.716,1,2,0,p,bakteria,bateria,AREIAKTB,added,NaN,35,8,7
30,1,0,4,0.924,2.022,3,2,0,o,uzdrowisko,uzdrowisko,ISDRKWOZUO,none,NaN,36,10,10
30,0,0,NaN,0.572,NaN,1,2,1,o,tabletka,baletka,KTALAETB,added,NaN,37,8,7
30,0,0,1,1.007,2.46,1,2,1,o,cmentarz,tancerz,RNACTMZE,added,NaN,38,8,7
30,0,0,1,0.611,1.593,2,2,1,o,remanent,atrament,TRMNAENE,changed,NaN,39,8,8
30,1,0,1,0.718,1.265,3,2,0,o,wanilia,wanilia,WLNIAIA,none,NaN,40,7,7
30,0,0,1,1.158,1.185,2,2,1,o,potrawa,poprawa,PAOATWR,changed,NaN,41,7,7
30,1,1,NaN,2.643,NaN,3,2,1,p,zmiennik,zmiennik,NZIEKNMI,none,NaN,42,8,8
31,1,0,2,1.125,2.193,3,3,0,p,bakteria,bakteria,AREIAKTB,none,0,3,8,8
31,1,1,NaN,1.406,NaN,3,3,1,o,mieszkanie,mieszkanie,ZKESIAIENM,none,0,4,10,10
31,0,0,2,0.896,1.147,0,3,1,p,sniezyca,sciezka,ICEYZANS,added&changed,0,5,8,7
31,0,0,3,0.898,1.116,0,3,1,p,doniczka,odznaka,OCDAIZKN,added&changed,1173,6,8,7
31,0,NaN,NaN,NaN,NaN,1,3,0,NaN,uzdrowisko,skorowidz,ISDRKWOZUO,added,1434,7,10,9
31,1,1,3,0.902,1.087,3,3,1,o,nadzieja,nadzieja,ZDAEJNAI,none,1326,8,8,8
31,1,1,3,1.407,0.654,3,3,1,o,parowka,parowka,RAOKAPW,none,2244,9,7,7
31,0,0,4,0.635,0.959,0,3,1,p,kregoslup,skorupa,UGELROKSP,added&changed,1322,10,9,7
31,1,1,3,1.458,0.735,3,3,1,o,lakomstwo,lakomstwo,TLKOASOWM,none,1346,11,9,9
31,1,0,3,1.128,1.196,3,3,0,p,bankomat,bankomat,AKMOTABN,none,2877,12,8,8
31,0,0,4,0.473,1.035,2,3,1,p,zmiennik,ziemniak,NZIEKNMI,changed,2870,13,8,8
31,0,0,3,0.362,0.773,1,3,1,p,podstawa,dostawa,AODSTPAW,added,1313,14,9,8
31,1,1,3,0.701,1.08,3,3,1,o,rachunek,rachunek,ENCKRHAU,none,1509,15,8,8
31,1,1,4,0.855,0.678,3,3,1,o,dinozaur,dinozaur,OIDZUARN,none,815,16,8,8
31,1,0,2,1.367,1.586,3,3,0,p,klasztor,klasztor,ARLZOSTK,none,2093,17,8,8
31,1,1,3,0.502,0.575,3,3,1,o,dzielnica,dzielnica,NZLDIACIE,none,2569,18,9,9
31,0,1,3,0.324,0.541,1,3,0,o,stolnica,stolica,ILOTNCSA,added,1780,19,8,7
31,0,0,4,0.359,0.503,1,3,1,p,kosiarka,sikorka,RSKIOAKA,added,1040,20,8,7
31,0,0,4,0.998,0.421,2,3,1,p,klamerka,kelnerka,ELAMKRKA,changed,1927,21,8,8
31,1,1,3,0.816,1.194,3,3,1,o,tabletka,tabletka,KTALAETB,none,2875,22,8,8
31,0,1,3,0.288,1.353,1,3,0,o,bratanek,kabaret,RNATBKEA,added,0,23,8,7
31,1,1,NaN,1.74,NaN,3,3,1,o,trucizna,trucizna,CNRIZAUT,none,0,24,8,8
31,1,1,4,0.702,0.43,3,3,1,o,cmentarz,cmentarz,RNACTMZE,none,1078,25,8,8
31,0,1,3,0.388,1.045,1,3,0,o,katalog,lokata,KTGALOA,added,0,26,7,6
31,0,1,3,0.71,0.621,2,3,0,o,czujnik,czajnik,KZIJUNC,changed,1751,27,7,7
31,0,0,3,0.731,1.754,1,3,1,p,spotkanie,eksponat,TPNSKAOIE,added,0,28,9,8
31,0,0,3,0.348,0.809,1,3,1,p,naparstek,pasterka,RAEKNSTPA,added,2978,29,9,8
31,0,0,4,0.864,0.655,2,3,1,p,bratowa,watroba,TRWAOBA,changed,977,30,7,7
31,0,0,4,0.388,1.16,0,3,1,p,sliniak,slimak,IALNKIS,added&changed,0,31,7,6
31,0,0,NaN,1.269,NaN,1,3,1,p,koszula,kalosz,OULZKSA,added,1692,32,7,6
31,1,1,4,1.061,0.657,3,3,1,o,potrawa,potrawa,PAOATWR,none,1381,33,7,7
31,1,1,3,0.431,1.232,3,3,1,o,remanent,remanent,TRMNAENE,none,2522,34,8,8
31,1,0,3,0.309,1.309,3,3,0,p,prowincja,prowincja,RPWIJNOAC,none,1205,35,9,9
31,0,1,3,0.67,0.805,2,3,0,o,koniczyna,zakonnica,NYNICZKOA,changed,1922,36,9,9
31,0,0,3,0.432,2.766,2,3,1,p,rakieta,karetka,RKEAIAT,changed,0,37,7,7
31,0,0,4,0.44,0.457,1,3,1,p,wanilia,lawina,WLNIAIA,added,1258,38,7,6
31,1,1,3,0.75,0.951,3,3,1,o,plantacja,plantacja,CJATLANPA,none,0,39,9,9
31,1,1,3,0.664,0.698,3,3,1,o,kurczak,kurczak,CKRAZKU,none,2048,40,7,7
31,1,1,3,0.192,0.657,3,3,1,o,korytarz,korytarz,RTZKYARO,none,2564,41,8,8
31,1,0,3,1.095,0.418,3,3,0,p,kochanka,kochanka,AKNAOHCK,none,1741,42,8,8
32,0,1,NaN,2.005,NaN,1,2,0,o,trucizna,intruz,CNRIZAUT,added,NaN,3,8,6
32,0,1,NaN,1.764,NaN,1,2,0,o,korytarz,aktorzy,RTZKYARO,added,NaN,4,8,7
32,1,1,3,1.704,2.832,3,2,1,o,bratowa,bratowa,TRWAOBA,none,NaN,5,7,7
32,1,0,2,1.127,1.9,3,2,0,p,naparstek,naparstek,RAEKNSTPA,none,NaN,6,9,9
32,1,1,4,1.317,2.348,3,2,1,o,kregoslup,kregoslup,UGELROKSP,none,NaN,7,9,9
32,1,1,4,0.827,2.201,3,2,1,o,koniczyna,koniczyna,NYNICZKOA,none,NaN,8,9,9
32,0,0,NaN,2.116,NaN,1,2,1,p,bankomat,komnata,AKMOTABN,added,NaN,9,8,7
32,0,0,3,1.298,2.517,1,2,1,p,nadzieja,niedziela,ZDAEJNAI,added,NaN,10,8,7
32,1,1,4,0.851,1.662,3,2,1,o,wanilia,wanilia,WLNIAIA,none,NaN,11,7,7
32,0,1,NaN,1.81,NaN,1,2,0,o,tabletka,baletka,KTALAETB,added,NaN,12,8,7
32,0,0,NaN,1.144,NaN,0,2,1,p,kochanka,choinka,AKNAOHCK,added&changed,NaN,13,8,7
32,1,0,4,0.973,1.817,3,2,0,p,koszula,koszula,OULZKSA,none,NaN,14,7,7
32,1,0,NaN,1.18,NaN,3,2,0,p,katalog,katalog,KTGALOA,none,NaN,15,7,7
32,0,0,NaN,1.221,NaN,1,2,1,p,bakteria,bateria,AREIAKTB,added,NaN,16,8,7
32,1,0,4,1.089,0.118,3,2,0,p,czujnik,czujnik,KZIJUNC,none,NaN,17,7,7
32,0,0,4,1.086,1.214,2,2,1,p,remanent,atrament,TRMNAENE,changed,NaN,18,8,8
32,0,0,NaN,1.069,NaN,2,2,1,p,potrawa,poprawa,PAOATWR,changed,NaN,19,7,7
32,1,1,NaN,1.354,NaN,3,2,1,o,spotkanie,spotkanie,TPNSKAOIE,none,NaN,20,9,9
32,0,1,4,1.668,1.017,1,2,0,o,lakomstwo,klamstwo,TLKOASOWM,added,NaN,21,9,8
32,0,0,4,0.586,1.601,1,2,1,p,dinozaur,rodzina,OIDZUARN,added,NaN,22,8,7
32,1,1,4,1.203,0.882,3,2,1,o,podstawa,podstawa,AODSTPAW,none,NaN,23,9,9
32,0,0,NaN,1.243,NaN,1,2,1,p,cmentarz,tancerz,RNACTMZE,added,NaN,24,8,7
32,1,0,3,1.443,1.674,3,2,0,p,klamerka,klamerka,ELAMKRKA,none,NaN,25,8,8
32,0,0,3,1.17,1.204,2,2,1,p,dzielnica,niedziela,NZLDIACIE,changed,NaN,26,9,9
32,0,0,NaN,0.579,NaN,2,2,1,p,parowka,oprawka,RAOKAPW,changed,NaN,27,7,7
32,0,0,NaN,0.585,NaN,0,2,1,p,mieszkanie,zamieszki,ZKESIAIENM,added&changed,NaN,28,10,9
32,0,0,NaN,0.571,NaN,2,2,1,p,kurczak,kucharz,CKRAZKU,changed,NaN,29,7,7
32,0,0,3,1.236,1.61,2,2,1,p,klasztor,kloszard,ARLZOSTK,changed,NaN,30,8,8
32,0,0,4,0.699,1.764,0,2,1,p,rachunek,rabunek,ENCKRHAU,added&changed,NaN,31,8,7
32,0,1,4,1.328,1.374,2,2,0,o,prowincja,pracownik,RPWIJNOAC,changed,NaN,32,9,9
32,1,0,4,0.476,2.64,3,2,0,p,sniezyca,sniezyca,ICEYZANS,none,NaN,33,8,8
32,1,0,4,0.96,0.976,3,2,0,p,kosiarka,kosiarka,RSKIOAKA,none,NaN,34,8,8
32,1,0,NaN,0.507,NaN,3,2,0,p,sliniak,sliniak,IALNKIS,none,NaN,35,7,7
32,1,1,NaN,1.558,NaN,3,2,1,o,rakieta,rakieta,RKEAIAT,none,NaN,36,7,7
32,0,0,NaN,0.814,NaN,2,2,1,p,plantacja,policjant,CJATLANPA,changed,NaN,37,9,9
32,1,0,4,0.507,0.983,3,2,0,p,zmiennik,zmiennik,NZIEKNMI,none,NaN,38,8,8
32,1,0,4,0.631,0.723,3,2,0,p,stolnica,stolnica,ILOTNCSA,none,NaN,39,8,8
32,1,0,4,0.67,0.791,3,2,0,p,doniczka,doniczka,OCDAIZKN,none,NaN,40,8,8
32,1,1,4,1.162,1.213,3,2,1,o,uzdrowisko,uzdrowisko,ISDRKWOZUO,none,NaN,41,10,10
32,1,0,4,0.659,0.797,3,2,0,p,bratanek,bratanek,RNATBKEA,none,NaN,42,8,8
33,1,NaN,NaN,NaN,NaN,3,3,0,NaN,kosiarka,kosiarka,RSKIOAKA,none,0,3,8,8
33,1,NaN,2,NaN,1.771,3,3,0,NaN,zmiennik,zmiennik,NZIEKNMI,none,2078,4,8,8
33,0,NaN,NaN,NaN,NaN,0,3,0,NaN,rachunek,rabunek,ENCKRHAU,added&changed,2402,5,8,7
33,1,1,4,1.06,2.272,3,3,1,o,uzdrowisko,uzdrowisko,ISDRKWOZUO,none,867,6,10,10
33,1,1,4,1.097,1.444,3,3,1,o,kregoslup,kregoslup,UGELROKSP,none,688,7,9,9
33,0,0,NaN,1.097,NaN,1,3,1,p,korytarz,aktorzy,RTZKYARO,added,1053,8,8,7
33,1,0,2,0.896,1.068,3,3,0,p,bratanek,bratanek,RNATBKEA,none,1063,9,8,8
33,0,1,3,1.185,2.219,1,3,0,o,nadzieja,niedziela,ZDAEJNAI,added,1413,10,8,7
33,0,NaN,1,NaN,1.685,2,3,0,NaN,parowka,oprawka,RAOKAPW,changed,856,11,7,7
33,0,1,2,1.275,2.663,1,3,0,o,tabletka,baletka,KTALAETB,added,857,12,8,7
33,0,0,1,1.088,2.552,2,3,1,p,potrawa,poprawa,PAOATWR,changed,1043,13,7,7
33,0,NaN,NaN,NaN,NaN,1,3,0,NaN,lakomstwo,klamstwo,TLKOASOWM,added,891,14,9,8
33,1,0,1,0.883,1.238,3,3,0,p,sniezyca,sniezyca,ICEYZANS,none,823,15,8,8
33,0,1,3,0.779,2.196,0,3,0,o,mieszkanie,zamieszki,ZKESIAIENM,added&changed,705,16,10,9
33,0,NaN,2,NaN,1.348,0,3,0,NaN,kochanka ,choinka,AKNAOHCK,added&changed,921,17,8,7
33,1,0,2,1.085,2.348,3,3,0,p,sliniak,sliniak,IALNKIS,none,2263,18,7,7
33,1,0,2,0.943,2.517,3,3,0,p,spotkanie,spotkanie,TPNSKAOIE,none,905,19,9,9
33,1,1,4,0.888,1.076,3,3,1,o,wanilia,wanilia,WLNIAIA,none,771,20,7,7
33,0,NaN,2,NaN,1.145,2,3,0,NaN,plantacja,policjant,CJATLANPA,changed,1093,21,9,9
33,1,1,4,0.827,1.347,3,3,1,o,katalog,katalog,KTGALOA,none,904,22,7,7
33,0,1,3,0.909,2.464,1,3,0,o,cmentarz,tancerz,RNACTMZE,added,0,23,8,7
33,1,0,NaN,1.159,NaN,3,3,0,p,klamerka,klamerka,ELAMKRKA,none,866,24,8,8
33,0,1,3,0.911,2.267,1,3,0,o,dinozaur,rodzina,OIDZUARN,added,95,25,8,7
33,0,1,NaN,0.789,NaN,2,3,0,o,kurczak,kucharz,CKRAZKU,changed,1565,26,7,7
33,0,0,1,1.012,1.239,2,3,1,p,remanent,atrament,TRMNAENE,changed,741,27,8,8
33,0,0,NaN,1.181,NaN,1,3,1,p,bankomat,komnata,AKMOTABN,added,1290,28,8,7
33,1,1,3,0.692,2.272,3,3,1,o,stolnica,stolnica,ILOTNCSA,none,1751,29,8,8
33,0,1,2,1.235,1.904,2,3,0,o,prowincja,pracownik,RPWIJNOAC,changed,1201,30,9,9
33,1,1,2,0.95,2.724,3,3,1,o,koniczyna,koniczyna,NYNICZKOA,none,606,31,9,9
33,1,1,3,0.632,1.86,3,3,1,o,naparstek,naparstek,RAEKNSTPA,none,2804,32,9,9
33,1,0,NaN,1.397,NaN,3,3,0,p,rakieta,rakieta,RKEAIAT,none,1931,33,7,7
33,1,1,4,0.898,2.403,3,3,1,o,koszula,koszula,OULZKSA,none,2304,34,7,7
33,0,1,2,1.263,2.067,2,3,0,o,dzielnica,niedziela,NZLDIACIE,changed,2154,35,9,9
33,0,0,3,0.598,2.707,1,3,1,p,trucizna,intruz,CNRIZAUT,added,2921,36,8,6
33,1,1,3,1.008,2.785,3,3,1,o,podstawa,podstawa,AODSTPAW,none,2485,37,9,9
33,0,NaN,NaN,NaN,NaN,1,3,0,NaN,bakteria,bateria,AREIAKTB,added,1495,38,8,7
33,1,1,3,1.035,1.629,3,3,1,o,bratowa,bratowa,TRWAOBA,none,2663,39,7,7
33,1,0,3,1.178,2.011,3,3,0,p,doniczka,doniczka,OCDAIZKN,none,2178,40,8,8
33,0,0,1,1.23,1.899,2,3,1,p,klasztor,kloszard,ARLZOSTK,changed,228,41,8,8
33,1,0,3,0.455,1.575,3,3,0,p,czujnik,czujnik,KZIJUNC,none,1141,42,7,7
34,0,NaN,NaN,NaN,NaN,0,2,0,NaN,rachunek,rabunek,ENCKRHAU, ,NaN,3,8,7
34,0,1,3,2.063,1.193,0,2,0,o,bankomat,komnata,AKMOTABN, ,NaN,4,8,7
34,0,1,NaN,2.475,NaN,0,2,0,o,remanent,atrament,TRMNAENE, ,NaN,5,8,8
34,1,1,NaN,2.318,NaN,0,2,1,o,katalog,katalog,KTGALOA, ,NaN,6,7,7
34,0,0,NaN,1.634,NaN,0,2,1,p,dinozaur,rodzina,OIDZUARN, ,NaN,7,8,7
34,1,1,2,1.05,1.497,0,2,1,o,naparstek,naparstek,RAEKNSTPA, ,NaN,8,9,9
34,0,1,4,0.935,2.001,0,2,0,o,cmentarz,tancerz,RNACTMZE, ,NaN,9,8,7
34,1,1,3,0.623,2.782,0,2,1,o,sniezyca,sniezyca,ICEYZANS, ,NaN,10,8,8
34,1,1,4,0.746,1.706,0,2,1,o,klamerka,klamerka,ELAMKRKA, ,NaN,11,8,8
34,1,0,NaN,0.599,NaN,0,2,0,p,rakieta,rakieta,RKEAIAT, ,NaN,12,7,7
34,0,1,3,1.359,2.418,0,2,0,o,dzielnica,niedziela,NZLDIACIE, ,NaN,13,9,9
34,1,1,4,0.621,1.647,0,2,1,o,kregoslup,kregoslup,UGELROKSP, ,NaN,14,9,9
34,0,0,4,0.348,2.361,0,2,1,p,nadzieja,niedziela,ZDAEJNAI, ,NaN,15,8,7
34,0,0,4,0.511,2.869,0,2,1,p,trucizna,intruz,CNRIZAUT, ,NaN,16,8,6
34,1,1,3,0.668,1.906,0,2,1,o,koniczyna,koniczyna,NYNICZKOA, ,NaN,17,9,9
34,1,0,4,1.169,2.271,0,2,0,p,zmiennik,zmiennik,NZIEKNMI, ,NaN,18,8,8
34,0,0,4,0.391,1.848,0,2,1,p,kochanka ,choinka,AKNAOHCK, ,NaN,19,8,7
34,0,0,3,1.44,2.704,0,2,1,p,tabletka,baletka,KTALAETB, ,NaN,20,8,7
34,1,0,2,2.832,2.355,0,2,0,p,bratanek,bratanek,RNATBKEA, ,NaN,21,8,8
34,0,1,3,0.582,1.813,0,2,0,o,lakomstwo,klamstwo,TLKOASOWM, ,NaN,22,9,8
34,0,0,NaN,2.462,NaN,0,2,1,p,klasztor,kloszard,ARLZOSTK, ,NaN,23,8,8
34,0,1,3,0.312,1.564,0,2,0,o,kurczak,kucharz,CKRAZKU, ,NaN,24,7,7
34,1,1,4,0.661,2.099,0,2,1,o,spotkanie,spotkanie,TPNSKAOIE, ,NaN,25,9,9
34,1,1,3,0.508,1.684,0,2,1,o,stolnica,stolnica,ILOTNCSA, ,NaN,26,8,8
34,1,1,4,0.667,1.169,0,2,1,o,wanilia,wanilia,WLNIAIA, ,NaN,27,7,7
34,1,1,4,0.664,1.634,0,2,1,o,podstawa,podstawa,AODSTPAW, ,NaN,28,9,9
34,0,0,2,1.05,1.4,0,2,1,p,prowincja,pracownik,RPWIJNOAC, ,NaN,29,9,9
34,0,0,4,0.62,1.579,0,2,1,p,korytarz,aktorzy,RTZKYARO, ,NaN,30,8,7
34,0,0,4,0.51,1.869,0,2,1,p,potrawa,poprawa,PAOATWR, ,NaN,31,7,7
34,1,0,4,0.274,2.83,0,2,0,p,uzdrowisko,uzdrowisko,ISDRKWOZUO, ,NaN,32,10,10
34,1,1,3,0.514,1.907,0,2,1,o,czujnik,czujnik,KZIJUNC, ,NaN,33,7,7
34,1,1,3,0.617,2.827,0,2,1,o,kosiarka,kosiarka,RSKIOAKA, ,NaN,34,8,8
34,1,0,3,0.582,2.463,0,2,0,p,koszula,koszula,OULZKSA, ,NaN,35,7,7
34,1,1,4,0.664,0.918,0,2,1,o,sliniak,sliniak,IALNKIS, ,NaN,36,7,7
34,0,0,2,2.067,1.996,0,2,1,p,mieszkanie,zamieszki,ZKESIAIENM, ,NaN,37,10,9
34,1,1,4,1.12,1.343,0,2,1,o,bratowa,bratowa,TRWAOBA, ,NaN,38,7,7
34,0,1,3,1.787,2.671,0,2,0,o,plantacja,policjant,CJATLANPA, ,NaN,39,9,9
34,0,0,4,0.487,2.743,0,2,1,p,bakteria,bateria,AREIAKTB, ,NaN,40,8,7
34,1,1,3,0.858,1.169,0,2,1,o,doniczka,doniczka,OCDAIZKN, ,NaN,41,8,8
34,0,0,4,0.322,1.323,0,2,1,p,parowka,oprawka,RAOKAPW, ,NaN,42,7,7
35,0,1,NaN,1.899,NaN,1,2,0,p,bratanek,kabaret,RNATBKEA,added,NaN,3,8,7
35,1,1,NaN,1.248,NaN,3,2,1,p,bakteria,bakteria,AREIAKTB,none,NaN,4,8,8
35,0,0,2,1.527,2.373,1,2,1,o,kosiarka,sikorka,RSKIOAKA,added,NaN,5,8,7
35,1,1,NaN,0.68,NaN,3,2,1,p,plantacja,plantacja,CJATLANPA,none,NaN,6,9,9
35,0,0,3,1.966,1.835,0,2,1,o,doniczka,odznaka,OCDAIZKN,added&changed,NaN,7,8,7
35,0,0,4,0.941,2.988,2,2,1,o,bratowa,watroba,TRWAOBA,changed,NaN,8,7,7
35,1,1,2,1.024,2.174,3,2,1,p,dzielnica,dzielnica,NZLDIACIE,none,NaN,9,9,9
35,0,0,NaN,1.083,NaN,1,2,1,o,stolnica,stolica,ILOTNCSA,added,NaN,10,8,7
35,0,1,2,2.106,1.742,1,2,0,p,spotkanie,eksponat,TPNSKAOIE,added,NaN,11,9,8
35,1,0,1,1.526,1.411,3,2,0,o,klasztor,klasztor,ARLZOSTK,none,NaN,12,8,8
