Subj_idx,Stimulus,Response,Confidence,Awareness,RT_dec,RT_conf,RT_aware,Trial_count,Block_count,Accuracy
ah,1,2,1,1,2.434478221,0.457777531,0.9529782590000001,0,0,0
ah,1,1,3,2,0.5527300079999999,0.599049501,0.482468633,1,0,1
ah,2,2,3,1,0.9406573490000001,0.6346431570000001,1.070632135,2,0,1
ah,2,2,2,2,1.411246671,0.822884892,0.482393942,3,0,1
ah,1,1,3,2,0.62309726,0.505094956,0.305962986,4,0,1
ah,1,1,3,2,0.517174468,1.128701962,0.43532061,5,0,1
ah,2,2,2,1,2.846467951,0.8228733420000001,1.270628439,6,0,1
ah,1,1,2,2,0.55241238,0.42289959899999996,0.306025357,7,0,1
ah,2,2,2,2,0.564218924,0.6699503689999999,0.6824345209999999,8,0,1
ah,2,2,3,2,0.77532915,0.529380262,0.294237293,9,0,1
ah,1,1,3,1,0.552505551,0.399259945,0.282413038,10,0,1
ah,2,2,3,1,1.5403486519999998,0.305218388,0.282755307,11,0,1
ah,2,2,2,1,1.7052845319999999,0.516996211,1.3176085990000002,12,0,1
ah,2,2,2,2,0.799585966,0.540433353,1.152969173,13,0,1
ah,2,2,2,2,0.576013149,0.6933998309999999,0.624534867,14,0,1
ah,1,1,2,2,0.681740743,0.5404941839999999,0.23551334399999999,15,0,1
ah,1,1,1,2,0.423042821,0.422893824,0.541276898,16,0,1
ah,1,1,1,1,0.917103935,0.434632223,0.6001444539999999,17,0,1
ah,1,1,1,2,0.36435660200000003,0.32862088,0.282445763,18,0,1
ah,2,2,2,1,2.23474988,0.422869954,0.352938142,19,0,1
ah,2,2,3,2,1.470115382,1.222188342,0.31775759600000003,20,0,1
ah,2,2,1,1,1.8111776780000002,0.9757978540000001,0.623656287,21,0,1
ah,1,1,2,1,0.56426012,0.728699729,0.48247979799999996,22,0,1
ah,1,1,2,1,0.681875495,0.52874693,0.729487063,23,0,1
ah,1,1,2,2,0.470083042,0.540487639,0.306051922,24,0,1
ah,2,1,1,2,0.6582266,1.270036302,0.329451334,25,0,0
ah,1,1,3,2,0.599535377,1.6698799130000002,0.389259841,26,0,1
ah,1,1,2,2,0.528940587,0.44638101700000005,0.27069697,27,0,1
ah,2,2,2,2,0.987774571,0.975732788,0.270679259,28,0,1
ah,2,2,3,1,1.364172955,0.44636523100000003,0.88244815,29,0,1
ah,2,2,3,1,1.164211686,0.728698959,0.670678027,30,0,1
ah,1,2,1,1,0.7759882770000001,0.6934213920000001,0.764775025,31,0,0
ah,2,2,1,1,1.211218412,0.787534174,0.32952795,32,0,1
ah,2,2,3,1,0.905462943,0.64634344,0.800061062,33,0,1
ah,2,2,3,1,0.881817513,0.38760432200000006,0.576493634,34,0,1
ah,2,2,1,2,1.081865793,0.411064949,1.3647312109999998,35,0,1
ah,1,1,2,2,0.646492052,0.505285148,0.341323329,36,0,1
ah,1,1,3,1,0.6229128429999999,0.422970825,0.306021892,37,0,1
ah,1,1,2,2,0.411386043,0.6110404629999999,0.270544508,38,0,1
ah,1,1,3,1,0.599506116,0.446389872,0.376592811,39,0,1
ah,2,2,1,2,0.98775301,0.54055694,0.5294795929999999,40,0,1
ah,1,1,1,2,0.423273823,0.493437023,0.364636115,41,0,1
ah,2,2,2,1,1.493738866,0.610668934,0.529520019,42,0,1
ah,1,1,2,1,0.9994351990000001,1.16411505,0.353057878,43,0,1
ah,2,2,1,2,0.8583326309999999,0.305179888,0.35299512200000005,44,0,1
ah,2,2,3,1,0.9646558270000001,0.305216848,0.587831243,45,0,1
ah,2,2,3,1,1.328808762,0.38760509200000004,0.388382416,46,0,1
ah,1,1,2,1,0.458477084,0.328614335,0.317754131,47,0,1
ah,1,1,1,2,0.481740204,0.411224341,0.235436728,48,0,1
ah,1,1,1,1,0.7758677709999999,0.35243840600000004,0.376545071,49,0,1
ah,2,2,2,1,0.7521738309999999,0.9638669529999999,1.247110446,0,1,1
ah,2,1,1,1,1.023052523,0.399295365,1.094162448,1,1,0
ah,1,2,1,1,0.6583532670000001,0.9993008320000001,0.9764985620000001,2,1,0
ah,2,2,3,1,0.717156142,0.43466379299999996,1.999928004,3,1,1
ah,1,1,1,1,0.376011455,0.39937506100000003,0.411857673,4,1,1
ah,2,2,2,1,0.517276109,0.9991868709999999,0.941240245,5,1,1
ah,1,1,2,2,0.43485129,0.564059147,0.27071622,6,1,1
ah,2,2,1,2,0.7287517040000001,0.352263229,0.5061048220000001,7,1,1
ah,1,1,3,1,0.493648005,0.528771955,0.38836124,8,1,1
ah,1,1,3,1,0.505381784,0.669943439,0.9059642179999999,9,1,1
ah,1,1,1,1,0.587756167,0.7052109959999999,0.694147125,10,1,1
ah,2,1,1,2,0.458347338,0.9404660020000001,0.83542949,11,1,0
ah,2,2,1,2,0.575866847,0.9522467509999999,0.5766557210000001,12,1,1
ah,2,2,1,1,2.587578295,0.7875576590000001,1.505929645,13,1,1
ah,1,1,1,1,0.68184508,0.364077474,1.81178252,14,1,1
ah,1,2,1,1,0.599547697,0.646414281,1.12947428,15,1,0
ah,2,2,2,2,0.493668025,0.599317464,0.294204567,16,1,1
ah,1,1,1,2,0.552468975,0.46990979,0.600099023,17,1,1
ah,2,2,1,2,0.55246782,0.7287732640000001,1.152954928,18,1,1
ah,1,1,1,2,0.399510582,0.493421623,0.36477433200000003,19,1,1
ah,2,2,2,2,0.7877632520000001,0.575812176,0.635363885,20,1,1
ah,2,2,3,2,0.56425319,0.575822571,0.8118333409999999,21,1,1
ah,2,2,1,2,0.670255678,0.622829682,0.6469232570000001,22,1,1
ah,1,2,3,1,0.693672029,0.32872560100000003,0.400095019,23,1,0
ah,1,1,3,2,0.657646399,0.529456878,0.6354143210000001,24,1,1
ah,2,2,3,2,0.681883195,0.422807198,0.282471944,25,1,1
ah,1,1,3,1,0.411298262,0.469955605,0.494196636,26,1,1
ah,1,1,2,2,0.552463585,0.328089959,0.282460779,27,1,1
ah,2,2,3,2,0.564165024,0.705209071,0.76480929,28,1,1
ah,1,1,1,2,0.470205858,0.458063205,0.388322355,29,1,1
ah,1,1,2,2,0.48205744799999994,0.422606611,0.282525074,30,1,1
ah,1,1,1,2,0.399613764,0.375717696,0.6118447370000001,31,1,1
ah,2,2,1,2,0.552428165,1.21107981,0.36482746200000005,32,1,1
ah,1,1,2,1,0.470180448,0.422934249,0.400117349,33,1,1
ah,2,2,2,1,2.164155476,1.069685409,0.964788654,34,1,1
ah,2,2,2,1,0.999490639,1.164008019,0.835363654,35,1,1
ah,1,1,3,1,0.458278422,0.45826494700000003,1.070620585,36,1,1
ah,2,2,2,1,1.140672133,1.399309225,0.553011062,37,1,1
ah,2,2,1,2,0.834605195,0.328925803,1.717723638,38,1,1
ah,1,1,3,1,0.352535042,0.387516156,0.6001390639999999,39,1,1
ah,1,2,1,1,0.658350572,0.352260919,0.5294179929999999,40,1,0
ah,2,1,1,1,0.611288021,0.399383916,1.5411660169999999,41,1,0
ah,2,2,1,2,0.45823684200000003,0.399460917,0.258933931,42,1,1
ah,2,2,2,1,1.0231691790000002,1.57570091,1.364652285,43,1,1
ah,2,2,2,1,1.1289040890000002,0.6934571970000001,1.058839835,44,1,1
ah,2,2,1,2,0.611279936,0.669931504,0.588314039,45,1,1
ah,1,1,2,2,0.481883811,0.37579277200000005,0.28247001899999996,46,1,1
ah,1,1,1,1,0.423043591,0.38759508200000004,0.317786471,47,1,1
ah,1,1,3,2,0.305059766,0.269924266,0.306309105,48,1,1
ah,1,1,2,2,0.716923214,2.5286229590000002,1.329613421,49,1,1
ah,1,2,1,1,0.752317438,0.469579841,0.7765561590000001,0,2,0
ah,1,1,2,2,0.540738277,0.7169108940000001,0.37661052100000003,1,2,1
ah,1,1,1,2,0.576020849,0.446521158,0.37654892100000004,2,2,1
ah,2,2,3,2,0.552550211,0.528674934,0.235403232,3,2,1
ah,2,2,2,1,0.7642433340000001,0.7875823000000001,1.541140991,4,2,1
ah,1,1,3,2,0.575957708,0.39928651,0.30605846800000003,5,2,1
ah,1,1,3,2,0.352468051,0.44643453200000005,0.25895587600000003,6,2,1
ah,2,2,1,1,1.67000735,0.36402742299999996,0.5178001,7,2,1
ah,2,2,3,1,0.587591386,0.29361358600000004,0.64718429,8,2,1
ah,2,2,2,1,0.481901521,0.528745775,0.41184111799999995,9,2,1
ah,1,1,2,2,0.45835465299999995,0.669905324,0.376603206,10,2,1
ah,1,2,1,1,0.658402933,0.505794124,0.8353297740000001,11,2,0
ah,2,2,2,2,0.564272825,0.740500113,0.400079234,12,2,1
ah,1,1,2,2,0.49365455,2.846183817,0.517728875,13,2,1
ah,2,2,2,2,0.658345567,0.66998733,0.541282673,14,2,1
ah,2,2,1,2,0.776015998,0.9169349179999999,0.741220841,15,2,1
ah,1,1,1,2,0.42290691399999997,0.822833301,0.317883492,16,2,1
ah,2,2,2,2,0.5641450029999999,0.6463727,0.5530718920000001,17,2,1
ah,1,1,2,2,0.4348305,0.9876301940000001,0.28248772899999997,18,2,1
ah,2,2,2,2,0.623052215,0.6111155389999999,0.564791041,19,2,1
ah,1,1,3,2,0.399514817,1.011045006,0.341269814,20,2,1
ah,1,1,1,1,0.44654733799999996,0.587568285,0.564796816,21,2,1
ah,2,2,1,2,1.1054307559999998,0.49338620200000005,0.611828567,22,2,1
ah,1,1,3,1,0.552751184,0.422498424,0.49426632200000004,23,2,1
ah,2,2,2,2,0.834913584,0.505279758,0.7175184309999999,24,2,1
ah,1,1,3,2,0.42310596100000003,0.7875002940000001,0.282442298,25,2,1
ah,2,2,3,1,1.105520077,0.481302839,0.30605230699999997,26,2,1
ah,2,2,2,1,1.023011327,1.152232275,0.611882852,27,2,1
ah,2,2,1,2,1.29356392,0.458193721,0.8118649109999999,28,2,1
ah,1,1,1,2,0.41131520200000005,0.705285687,0.447176051,29,2,1
ah,1,1,2,2,0.46950592,0.68230901,0.5412037470000001,30,2,1
ah,1,1,3,2,0.328848417,0.6817596090000001,0.25895549100000004,31,2,1
ah,1,1,1,1,0.74066682,0.458134815,2.223540092,32,2,1
ah,2,2,2,2,0.9171151009999999,0.516421015,0.658916143,33,2,1
ah,2,1,1,2,0.458335018,1.1404830959999999,0.5059835460000001,34,2,0
ah,2,2,3,1,0.5289382770000001,0.49343509799999996,1.141230004,35,2,1
ah,1,1,1,1,0.5995446170000001,0.340475935,0.37660012600000004,36,2,1
ah,2,2,2,1,0.7407388159999999,0.410904017,0.294213808,37,2,1
ah,2,2,2,1,0.8346779609999999,0.446486893,0.306065013,38,2,1
ah,1,1,1,1,0.340670362,0.434632608,0.8119026420000001,39,2,1
ah,2,2,2,1,0.634825264,0.646345365,0.42366229299999997,40,2,1
ah,1,1,1,1,0.681898595,0.37582703799999995,1.00001309,41,2,1
ah,1,1,1,1,0.317146979,0.37584474799999995,0.658927693,42,2,1
ah,1,1,1,1,0.328943898,0.352333685,0.917700307,43,2,1
ah,2,2,2,1,0.705401573,0.8934773709999999,1.047101437,44,2,1
ah,1,1,2,2,0.352491537,0.834608275,0.87056961,45,2,1
ah,2,2,3,1,1.317107708,1.316993747,0.6118447370000001,46,2,1
ah,2,2,1,1,0.7052618159999999,0.316962947,0.7531282570000001,47,2,1
ah,2,2,2,1,0.5409019039999999,0.9640925659999999,1.22337993,48,2,1
ah,1,1,1,2,0.705327652,0.552278783,0.6942453009999999,49,2,1
ah,2,2,2,1,0.8581740090000001,0.657802326,0.49422705200000006,0,3,1
ah,1,1,1,2,0.68185432,0.37583974299999995,0.553065732,1,3,1
ah,2,1,1,1,0.811274699,0.528741925,0.6118855470000001,2,3,0
ah,1,1,1,2,0.564238944,0.49344549299999996,0.235382057,3,3,1
ah,2,2,2,1,0.775971722,1.128722752,0.40005805899999997,4,3,1
ah,1,1,1,1,0.35255737200000004,0.49333538200000004,0.576565245,5,3,1
ah,1,2,1,2,0.69374056,0.37578507200000005,0.9998848840000001,6,3,0
ah,1,1,1,2,0.30527498399999997,0.328603939,0.8120720440000001,7,3,1
ah,2,1,2,1,0.5289991079999999,0.34046708,0.81179946,8,3,0
ah,2,2,1,1,0.435155444,0.563674528,0.5882870889999999,9,3,1
ah,1,1,3,1,0.540712866,0.90522578,1.270619199,10,3,1
ah,1,1,1,1,0.49365070000000005,0.469905555,0.470707904,11,3,1
ah,2,2,3,2,0.7524575790000001,1.846256198,0.38834892,12,3,1
ah,1,1,2,2,0.43480201,0.364053988,0.31777761600000004,13,3,1
ah,2,2,1,2,0.728939201,0.364018183,0.294198792,14,3,1
ah,2,1,3,1,0.34066343200000004,0.317013382,0.753041631,15,3,0
ah,1,1,3,1,0.470082272,0.516408309,0.7412139109999999,16,3,1
ah,1,1,1,2,1.5640849430000001,0.43474964899999996,0.35312140399999997,17,3,1
ah,2,2,2,2,0.5171829379999999,0.7287316840000001,0.517734265,18,3,1
ah,2,1,2,2,0.434798545,0.399405091,0.235400152,19,3,0
ah,2,1,2,2,0.458420489,0.411083429,0.258933161,20,3,0
ah,1,1,2,2,0.423015485,0.363516522,0.070683725,21,3,1
ah,1,1,1,2,0.528929422,0.399350806,0.023671995,22,3,1
ah,1,2,1,2,0.905333196,0.446435687,0.635378515,23,3,0
ah,1,1,1,2,0.446507683,0.41113579,0.7883873440000001,24,3,1
ah,2,1,2,2,0.375996824,0.434660713,0.34128713899999996,25,3,0
ah,2,1,2,2,0.5406597360000001,0.517006221,0.447151795,26,3,0
ah,2,2,3,2,0.75248222,0.5875756,0.600111343,27,3,1
ah,1,1,2,2,0.38788114,0.552277628,0.200107955,28,3,1
ah,2,2,2,2,0.670122466,0.658151525,0.600061678,29,3,1
ah,2,1,3,2,0.446583529,0.787550344,0.329506005,30,3,0
ah,2,1,2,2,0.375913664,0.493571004,0.25888465,31,3,0
ah,1,1,2,2,0.375931759,0.59940255,0.294227668,32,3,1
ah,2,1,2,2,0.37600491,1.105182044,0.32951332,33,3,0
ah,2,2,3,1,0.764213303,0.611077808,0.353032853,34,3,1
ah,1,1,2,2,0.328958143,0.45817177600000003,0.294242298,35,3,1
ah,1,1,2,1,0.42300971,1.1404946459999998,0.364833622,36,3,1
ah,2,1,1,1,0.3760334,0.36401009799999995,0.8236164,37,3,0
ah,1,1,1,1,0.25834140899999997,0.24648789399999999,0.364824382,38,3,1
ah,1,1,2,1,0.493767356,0.46985088399999997,0.32950793,39,3,1
ah,2,2,2,2,0.646626803,0.669910714,0.37656971100000003,40,3,1
ah,2,1,2,2,0.634810634,0.811135713,0.35304632799999996,41,3,0
ah,2,2,2,2,0.952454653,0.5758044760000001,0.76479004,42,3,1
ah,1,1,2,2,0.48177755,0.8817385870000001,0.306053462,43,3,1
ah,1,1,3,2,0.38783609399999996,0.716996365,0.258891195,44,3,1
ah,2,1,1,2,0.505419514,0.999226141,0.753083981,45,3,0
ah,1,2,2,2,0.7289076309999999,0.52874077,1.423505596,46,3,0
ah,2,2,3,1,0.55247013,0.36403281299999996,1.4118230230000002,47,3,1
ah,1,1,1,2,0.481873416,0.293456889,0.294303899,48,3,1
ah,1,1,1,2,0.446653215,0.363980838,0.564794506,49,3,1
ah,1,1,2,2,0.352022601,0.516673577,0.341299074,0,4,1
ah,1,2,3,1,0.69369359,0.834582095,0.8118233309999999,1,4,0
ah,1,1,3,1,0.39957025799999996,0.364067849,0.470631673,2,4,1
ah,2,2,2,1,0.787759787,0.611117079,0.858902437,3,4,1
ah,2,1,1,2,0.528982168,0.293420699,0.35302669299999995,4,4,0
ah,2,2,2,1,0.517181398,0.48165665799999996,0.447149485,5,4,1
ah,1,1,1,2,0.32892503300000003,0.45820219100000004,0.294216118,6,4,1
ah,2,1,2,2,0.305303859,0.505375624,0.211807854,7,4,0
ah,2,2,3,1,0.658325932,0.540474549,0.35305672299999996,8,4,1
ah,1,1,2,2,0.328946978,0.564039512,0.36478973200000003,9,4,1
ah,1,1,1,2,0.35248499200000005,0.4699121,0.49420395100000003,10,4,1
ah,2,2,2,1,0.446625494,0.44637793600000003,0.317762986,11,4,1
ah,2,2,1,1,0.552478985,0.7758331209999999,0.070686035,12,4,1
ah,2,1,2,2,0.352494617,0.469947135,0.25893277600000003,13,4,0
ah,2,2,1,1,1.6700266,0.669888383,0.917711087,14,4,1
ah,1,1,2,2,0.376038405,0.422815283,0.329483289,15,4,1
ah,1,1,2,1,0.505500365,0.575805631,0.529515784,16,4,1
ah,2,2,2,2,0.75248453,1.12856952,0.882406185,17,4,1
ah,1,1,1,2,0.528961763,0.446314796,0.35306211299999996,18,4,1
ah,1,2,3,1,0.528915947,0.65818117,0.364785882,19,4,0
ah,2,2,2,1,0.62305337,0.49346089299999996,0.623605081,20,4,1
ah,1,1,3,2,0.270119078,0.328778346,0.282469249,21,4,1
ah,2,2,3,2,0.30543091,0.269909636,0.458962575,22,4,1
ah,1,1,2,2,0.45830267700000005,0.37578353200000003,0.282526614,23,4,1
ah,2,2,2,1,1.011177832,0.658099164,0.353139114,24,4,1
ah,2,2,3,1,1.305217618,0.36418566,0.35303593299999997,25,4,1
ah,1,1,2,2,0.505400649,0.434591412,0.9647905790000001,26,4,1
ah,1,1,2,2,0.5760062189999999,0.35226515399999997,0.44717258600000004,27,4,1
ah,1,1,2,2,0.376031475,0.7875372540000001,0.317757981,28,4,1
ah,2,2,3,1,0.658473003,0.6462009879999999,0.43536873600000003,29,4,1
ah,2,1,2,2,0.317219745,0.5052223920000001,0.30593526600000004,30,4,0
ah,1,1,2,1,0.45829998200000005,1.128758942,1.447125615,31,4,1
ah,1,2,3,1,0.68183738,0.31697449699999997,0.364833622,32,4,0
ah,2,1,1,1,0.7642494940000001,0.305288459,0.564801051,33,4,0
ah,1,1,2,2,0.45831114700000003,0.564025652,0.34132255899999997,34,4,1
ah,2,2,3,2,0.68189513,0.422220066,0.776474538,35,4,1
ah,2,1,1,1,0.48181143,0.399273035,0.529592785,36,4,0
ah,1,1,1,2,0.445856641,0.376756053,0.517509807,37,4,1
ah,2,2,3,2,0.5289848629999999,0.411053784,0.30695552800000003,38,4,1
ah,1,1,2,1,0.32884225699999997,0.328778346,0.31783074699999997,39,4,1
ah,2,2,3,2,0.481861866,0.611098983,0.329506005,40,4,1
ah,2,2,3,1,0.5524863010000001,0.269845725,1.176529132,41,4,1
ah,2,1,2,1,0.305446696,0.5521432620000001,0.329664627,42,4,0
ah,1,1,3,1,0.364271131,0.32880144699999997,0.40003418799999996,43,4,1
ah,1,1,2,1,0.36428345100000004,0.505161561,0.44715603,44,4,1
ah,1,2,3,1,0.7171942570000001,0.375776987,0.517728105,45,4,0
ah,2,1,2,1,0.470149262,0.493490153,0.517710009,46,4,0
ah,2,2,3,2,0.658380602,0.43463645799999995,0.43536334600000004,47,4,1
ah,1,1,2,2,0.364283066,0.7404754729999999,0.729482827,48,4,1
ah,1,1,1,2,0.3641949,0.48170593899999997,0.48245977799999995,49,4,1
ah,2,2,1,2,0.399321545,0.293322522,0.27066308899999997,0,5,1
ah,2,2,1,2,0.72886374,0.26992657600000003,0.294283108,1,5,1
ah,1,2,1,2,0.658329782,0.317014537,0.505989706,2,5,0
ah,1,2,1,1,0.48184377100000003,0.881658121,0.223688319,3,5,0
ah,1,1,3,1,0.269601247,0.39985400600000004,0.223647123,4,5,1
ah,1,1,2,1,0.25838491399999997,0.516961946,0.11776129199999999,5,5,1
ah,2,1,2,1,0.211332758,0.71693977,0.5412699679999999,6,5,0
ah,2,2,2,2,0.599204658,0.434938686,1.282384163,7,5,1
ah,2,2,2,1,0.505394104,0.52871613,0.352970867,8,5,1
ah,1,2,2,1,0.45834156299999995,0.552262613,0.44720338600000004,9,5,0
ah,2,1,3,1,0.31721243,0.258149292,0.282453464,10,5,0
ah,1,1,1,2,0.540703626,0.458159456,0.38832813,11,5,1
ah,1,2,2,1,0.458363123,0.858140899,0.23539861199999998,12,5,0
ah,2,2,3,1,0.505416819,0.434655323,0.329508315,13,5,1
ah,2,2,1,1,0.5283215,0.576345022,0.247182827,14,5,1
ah,1,1,2,1,0.270146028,0.328767181,0.25883883399999996,15,5,1
ah,2,2,3,1,0.552497466,0.411091129,0.22361824800000002,16,5,1
ah,1,2,1,2,0.634672417,1.081883503,0.270736625,17,5,0
ah,1,1,3,2,0.576022389,0.328704041,0.223654054,18,5,1
ah,2,2,3,2,0.552452805,0.8346213659999999,0.482442452,19,5,1
ah,1,2,2,1,0.47009613200000006,0.681703783,0.258931621,20,5,0
ah,1,1,2,2,0.423356984,0.457108394,0.388245739,21,5,1
ah,2,2,2,2,0.446616254,0.575713615,0.776564629,22,5,1
ah,2,2,2,2,0.670079346,0.540539229,0.6000739979999999,23,5,1
ah,1,1,2,2,0.376068435,0.46978658799999995,0.36481013700000003,24,5,1
ah,2,2,2,2,0.7761380440000001,0.387534636,0.564444152,25,5,1
ah,1,1,1,2,0.35245111100000004,0.481682839,0.36485056200000004,26,5,1
ah,2,2,2,1,0.446559659,0.517032787,0.176422485,27,5,1
ah,2,2,1,1,0.364239561,0.481733274,0.14127197,28,5,1
ah,1,1,1,2,0.293666331,0.305297699,0.247156646,29,5,1
ah,2,2,1,1,0.45824415700000004,0.411120775,0.02370857,30,5,1
ah,1,1,2,2,0.328852267,0.611056248,0.270797456,31,5,1
ah,1,2,1,1,0.423037816,0.7287016540000001,0.42360415700000004,32,5,0
ah,1,2,2,1,0.470092667,0.72881292,0.42363688200000005,33,5,0
ah,2,2,1,1,0.37584975299999995,0.6101218420000001,0.341426126,34,5,1
ah,1,2,1,1,0.42309017600000004,0.928681787,0.31775721100000004,35,5,0
ah,2,1,2,1,0.317182784,0.340547931,0.10599401800000001,36,5,0
ah,1,1,2,1,0.481887661,0.6346485470000001,0.41184804799999997,37,5,1
ah,2,2,3,2,0.728894156,0.316999137,0.600082853,38,5,1
ah,2,2,2,1,0.9171316559999999,0.64637116,0.44718798600000004,39,5,1
ah,2,2,2,2,0.775971722,0.38758237700000003,0.258927385,40,5,1
ah,2,2,1,2,0.658278961,0.25831561399999997,0.800072227,41,5,1
ah,1,1,3,2,0.39952174799999995,0.364068234,0.282488499,42,5,1
ah,1,1,3,2,0.49366533,0.563442755,0.32951563,43,5,1
ah,2,2,2,1,0.9171270359999999,0.7640365859999999,0.482457853,44,5,1
ah,1,1,2,2,0.44648419799999994,0.422888434,0.24725251199999998,45,5,1
ah,1,1,2,2,0.481784865,0.387590462,0.35309868899999997,46,5,1
ah,2,2,2,2,0.5877577079999999,0.364044363,0.306011882,47,5,1
ah,2,2,2,1,0.705424673,0.41110037,0.3177241,48,5,1
ah,1,1,2,2,0.36436314700000005,0.44641220200000004,0.305845945,49,5,1
ah,1,1,2,2,0.353249995,0.281415492,0.258013385,0,6,1
ah,2,2,2,2,0.587796208,0.41111423,0.317722175,1,6,1
ah,2,2,3,2,0.375986429,0.845777253,0.835392914,2,6,1
ah,2,2,3,2,0.505404114,0.540538459,0.411878078,3,6,1
ah,1,1,3,2,0.399584118,0.305245723,0.294189937,4,6,1
ah,1,1,3,2,0.446660145,0.352179298,0.305994942,5,6,1
ah,2,2,3,2,0.599516897,0.293431479,0.36485364299999995,6,6,1
ah,2,2,3,2,0.799450445,0.28169154,0.294276563,7,6,1
ah,1,1,3,2,0.481875341,0.375789307,0.258933161,8,6,1
ah,1,1,3,2,0.37600491,0.43460065200000003,0.25891853,9,6,1
ah,2,2,3,2,0.705406578,0.305224548,0.37653852600000004,10,6,1
ah,1,1,3,2,0.41127747200000003,0.29354698,0.294222278,11,6,1
ah,2,2,3,2,0.5877584779999999,0.293471904,0.658905748,12,6,1
ah,2,2,2,2,0.599533067,0.317033403,1.18826445,13,6,1
ah,2,2,2,2,0.47008881700000005,0.799351884,1.329448639,14,6,1
ah,2,2,1,2,0.47013963700000005,0.411086894,0.42364034700000003,15,6,1
ah,1,1,3,2,0.470169283,0.421895508,0.270683109,16,6,1
ah,1,1,2,2,0.352483837,0.340542155,0.27068079899999997,17,6,1
ah,1,1,2,2,0.505403729,0.28174852100000003,0.24714047600000003,18,6,1
ah,1,1,2,2,0.39893423100000003,0.317539298,0.211924895,19,6,1
ah,2,2,3,2,0.54056695,0.3286332,0.317988598,20,6,1
ah,1,1,3,2,0.42309325600000003,0.44640719700000003,0.294201102,21,6,1
ah,2,2,3,2,0.340679602,0.293520415,0.341291759,22,6,1
ah,2,2,3,2,0.328943513,0.258173162,0.42360454200000003,23,6,1
ah,1,1,3,2,0.717124572,0.516991591,0.306002257,24,6,1
ah,1,1,3,2,0.50544454,0.39931500000000003,0.305978772,25,6,1
ah,2,2,3,2,0.505429524,0.317044568,1.1765041059999999,26,6,1
ah,1,1,3,2,0.34108963200000003,0.316589493,0.211895635,27,6,1
ah,1,1,3,2,0.375923674,0.269832635,0.282185501,28,6,1
ah,2,2,3,2,0.24658453,0.23464323399999998,0.5295435039999999,29,6,1
ah,1,1,3,2,0.376098851,0.540361742,0.294246148,30,6,1
ah,2,2,3,2,0.45838699299999996,0.26989,0.306031132,31,6,1
ah,1,1,2,2,0.318015934,0.316962947,0.258074986,32,6,1
ah,1,1,3,2,0.293510405,0.646519002,0.200139911,33,6,1
ah,2,2,3,2,0.328934658,0.211101756,0.37651658,34,6,1
ah,2,2,2,1,0.8112716190000001,0.634625062,0.988302797,35,6,1
ah,1,1,2,2,0.41129441200000005,0.8346725709999999,0.36538995399999996,36,6,1
ah,2,2,2,2,0.48193655700000004,0.446338281,0.7294789770000001,37,6,1
ah,1,1,3,2,0.423081706,0.36351459700000005,0.282430748,38,6,1
ah,2,2,3,2,0.352445721,0.222895595,0.38836201,39,6,1
ah,2,2,2,1,1.387710583,0.90519113,0.376568171,40,6,1
ah,1,1,3,1,0.48191499600000004,0.646411971,0.458918299,41,6,1
ah,1,1,1,2,0.39954176799999996,0.375812022,0.37657433100000004,42,6,1
ah,1,1,2,1,0.36422031,0.622910533,0.294180697,43,6,1
ah,2,2,3,1,0.575978883,0.317014537,0.400125049,44,6,1
ah,2,2,3,1,0.658334402,0.258164692,0.400105799,45,6,1
ah,1,1,3,1,0.41127323600000004,0.375776602,0.43546460200000003,46,6,1
ah,2,2,2,2,0.45833309299999997,0.470292869,0.35306211299999996,47,6,1
ah,2,2,2,2,0.540741742,0.587641436,0.788269532,48,6,1
ah,1,1,2,2,0.34122014799999995,0.7164315640000001,0.5759157429999999,49,6,1
ah,1,1,2,2,0.434596802,0.48144105600000003,0.376597046,0,7,1
ah,1,1,2,1,0.387797209,0.78758769,0.505986626,1,7,1
ah,1,1,3,1,0.45837236299999995,0.269965461,0.341272124,2,7,1
ah,1,1,2,2,0.387732143,0.375879398,0.141337036,3,7,1
ah,2,2,3,2,0.528900932,0.246418208,0.376568556,4,7,1
ah,2,2,3,1,1.046602471,0.34035850799999995,0.36486288299999997,5,7,1
ah,2,2,2,2,0.517191023,0.41111731,0.705823153,6,7,1
ah,2,2,3,2,0.305416665,0.24639164300000002,0.376524665,7,7,1
ah,2,2,3,2,0.446635889,0.175740643,0.36477163700000004,8,7,1
ah,1,1,2,2,0.55153303,0.553262469,0.35305402799999996,9,7,1
ah,2,2,2,2,0.30544823600000004,0.634645852,0.623580826,10,7,1
ah,1,1,3,2,0.399519823,0.7406206190000001,0.09422250900000001,11,7,1
ah,1,1,3,1,0.34069731200000003,0.340556401,0.494226282,12,7,1
ah,1,1,3,1,0.481868026,0.258162767,0.658881878,13,7,1
ah,2,2,2,2,0.42304667100000004,0.39981820100000004,0.5647879610000001,14,7,1
ah,2,1,2,1,0.36425265100000004,0.39930884,0.458933315,15,7,0
ah,1,1,3,1,0.987727985,0.458201806,0.6706911179999999,16,7,1
ah,2,2,3,1,0.74070917,0.398819115,0.270674639,17,7,1
ah,2,2,3,1,0.6347817579999999,0.811042927,1.4000426590000001,18,7,1
ah,1,1,2,1,0.446621259,0.8581208779999999,0.658886883,19,7,1
ah,1,1,1,1,0.516979271,0.317124264,0.42358375200000004,20,7,1
ah,1,1,1,1,0.399683064,0.6698699029999999,0.646987937,21,7,1
ah,1,1,2,1,0.340718872,0.811087587,0.317741426,22,7,1
ah,2,2,2,1,0.517191408,0.434742334,0.470708289,23,7,1
ah,1,1,1,2,0.293672876,0.764096262,0.282438063,24,7,1
ah,2,2,3,1,0.7524325540000001,0.340383919,0.294246148,25,7,1
ah,2,2,1,1,0.528962148,0.293437639,0.317733341,26,7,1
ah,1,1,2,2,0.305331964,0.552269158,0.353123329,27,7,1
ah,2,2,3,1,0.493689201,0.646327655,0.353065578,28,7,1
ah,2,2,2,1,0.481898441,0.481708249,0.317767221,29,7,1
ah,1,1,2,2,0.611284941,0.375875933,0.447189526,30,7,1
ah,2,2,2,1,0.587718822,0.46992827,0.611895558,31,7,1
ah,1,1,2,2,0.587775803,0.670155961,0.694127875,32,7,1
ah,2,2,1,2,0.411181605,1.2934307090000001,0.753114012,33,7,1
ah,1,1,1,1,0.905425597,1.246329657,0.35303708799999994,34,7,1
ah,2,2,2,1,0.7994265740000001,0.458198726,0.411939679,35,7,1
ah,2,2,3,1,0.8936679479999999,0.316927141,0.305960291,36,7,1
ah,1,1,3,1,0.481904216,0.669942284,0.57652713,37,7,1
ah,2,2,2,1,0.670184837,0.434525576,0.82362256,38,7,1
ah,1,1,2,1,0.387716358,0.481758685,0.6000847779999999,39,7,1
ah,1,1,1,1,0.494620526,0.422877269,0.281487873,40,7,1
ah,2,2,3,1,0.47008689200000003,0.399280735,0.34127404899999997,41,7,1
ah,1,1,3,1,0.505437994,0.387637047,0.35301052299999996,42,7,1
ah,1,1,3,2,0.481890356,0.458157916,0.411855363,43,7,1
ah,2,2,3,2,0.623018334,0.281717335,0.317793786,44,7,1
ah,1,1,2,2,0.517303445,0.269747164,0.18830025600000003,45,7,1
ah,2,2,3,1,0.634783683,0.622823137,0.6706699420000001,46,7,1
ah,1,1,2,2,0.36344491100000004,0.258962421,0.294214193,47,7,1
ah,2,2,3,1,0.7400943179999999,0.27050215699999997,0.36480436200000005,48,7,1
ah,2,2,3,1,0.49354597899999997,0.32880645199999997,0.317856927,49,7,1
ah,2,2,2,1,0.422886124,0.351630282,0.31772718,0,8,1
ah,2,2,3,1,0.340741203,0.399325395,0.270691965,1,8,1
ah,2,2,2,1,0.411459194,0.587523625,0.470554672,2,8,1
ah,1,1,2,2,0.364240716,0.305204143,0.117692376,3,8,1
ah,1,1,3,1,0.24657452,0.611149419,0.258925845,4,8,1
ah,1,1,1,1,1.658249701,0.516971956,0.44716835,5,8,1
ah,1,1,2,2,0.340723493,0.599333249,0.56472944,6,8,1
ah,1,1,3,2,0.364172185,0.28169231,0.31782805199999997,7,8,1
ah,2,2,3,2,0.39950634700000004,0.269915411,0.341333725,8,8,1
ah,2,2,2,2,0.563667598,0.30580398,0.329539885,9,8,1
ah,2,2,3,2,0.34074736299999997,0.34052406,0.647108444,10,8,1
ah,2,2,2,2,0.305458246,0.35231636,0.564779876,11,8,1
ah,1,1,2,2,0.434843205,0.44641759200000003,0.329509085,12,8,1
ah,1,1,3,2,0.5758845570000001,0.340662277,0.36486865799999996,13,8,1
ah,2,2,3,1,0.37601569,0.38764782700000006,0.47067286799999997,14,8,1
ah,1,1,3,1,0.35249038200000005,0.5052427970000001,0.5411983570000001,15,8,1
ah,1,1,3,1,0.29366748600000003,0.305130992,0.694178695,16,8,1
ah,2,2,3,1,0.48185416600000003,0.316982967,1.623578516,17,8,1
ah,1,1,3,1,0.164293692,0.270166434,0.18831604100000002,18,8,1
ah,2,2,1,1,0.787761712,0.411066489,0.74114538,19,8,1
ah,1,1,2,1,0.35256468700000004,0.246315797,0.717707853,20,8,1
ah,1,1,2,1,0.328946978,0.29344572399999996,0.941232545,21,8,1
ah,2,2,1,1,0.575036008,0.40021206,0.411924279,22,8,1
ah,1,1,2,1,0.21136047800000002,0.258123111,0.35302361299999996,23,8,1
ah,2,2,2,2,0.458352728,0.552132097,0.44715218,24,8,1
ah,2,2,2,1,0.43484898,0.564051062,0.353022843,25,8,1
ah,1,1,2,1,0.328850342,0.39950865700000004,0.41189809899999996,26,8,1
ah,2,2,1,2,0.434853215,0.387556966,0.470700974,27,8,1
ah,1,1,2,1,0.328915408,0.305233788,0.34131793899999996,28,8,1
ah,2,2,2,1,0.564287455,0.42283684299999996,0.364815912,29,8,1
ah,1,1,1,1,1.787611945,0.37585013799999994,0.494198176,30,8,1
ah,2,2,2,1,0.7172239029999999,0.47003414600000004,0.470661703,31,8,1
ah,1,2,1,1,0.964230012,0.446374471,0.388359315,32,8,0
ah,2,2,2,1,0.658444513,0.36395850700000004,0.282471174,33,8,1
ah,2,1,1,1,0.411108455,0.37603725,0.341349895,34,8,0
ah,2,2,1,1,0.611299571,0.258186252,0.45892907899999996,35,8,1
ah,1,1,3,1,0.458404704,0.528736535,0.317745276,36,8,1
ah,1,1,2,2,0.352472286,0.340583736,0.247146251,37,8,1
ah,2,2,3,1,0.846657373,0.222247248,0.32933275300000003,38,8,1
ah,1,1,1,2,0.423040511,0.305254578,0.541296533,39,8,1
ah,2,2,3,1,0.5172118139999999,0.43467380299999997,0.341281364,40,8,1
ah,2,2,1,1,0.799539766,0.540483404,0.400112729,41,8,1
ah,1,1,1,1,0.434807785,0.37585398799999997,0.294204567,42,8,1
ah,2,2,2,1,0.658345567,0.46992134,0.835342094,43,8,1
ah,1,1,2,2,0.470069566,0.622837767,0.011956696000000001,44,8,1
ah,1,1,3,1,0.270119463,0.8346725709999999,0.247142786,45,8,1
ah,1,1,2,1,0.270070952,0.269933121,0.482496738,46,8,1
ah,2,2,3,2,0.870091435,0.634588871,0.294259623,47,8,1
ah,2,2,3,2,0.317192794,0.646361535,0.411842658,48,8,1
ah,1,1,3,1,0.352372955,0.328816462,0.294116786,49,8,1
ah,1,1,2,1,0.211138716,0.222639182,0.329438244,0,9,1
ah,2,2,3,1,0.411257836,0.364083249,0.270673869,1,9,1
ah,2,2,1,1,0.493545594,0.282000698,0.317848072,2,9,1
ah,1,1,2,1,0.423102496,0.316952552,0.294211113,3,9,1
ah,2,2,3,1,0.646658374,0.45813366,0.247130851,4,9,1
ah,1,1,1,1,0.505417589,0.28175622100000003,0.270733545,5,9,1
ah,1,1,2,1,0.293690972,0.328715976,0.41187884799999996,6,9,1
ah,1,1,1,1,0.517184093,0.375706146,1.176527592,7,9,1
ah,2,2,3,1,0.5643390460000001,0.587455479,0.38834353,8,9,1
ah,2,2,3,2,0.47012269700000003,0.234549678,0.305907931,9,9,1
ah,2,2,2,2,0.317202805,0.6817172579999999,0.7412077509999999,10,9,1
ah,1,1,3,1,0.305348134,0.39934041,0.353138344,11,9,1
ah,2,2,2,2,0.493605655,0.38755003600000004,0.352999742,12,9,1
ah,1,1,2,2,0.36424264100000003,0.622838537,1.282401103,13,9,1
ah,2,2,2,1,0.587772338,0.893469286,0.423631107,14,9,1
ah,1,1,1,1,0.328861507,0.305279989,0.27074779,15,9,1
ah,2,2,2,1,0.458327703,0.422867259,0.448125856,16,9,1
ah,2,2,2,1,0.340718872,0.43448168600000003,0.317754131,17,9,1
ah,1,1,2,1,0.39954946799999996,0.48153345700000005,0.6824287459999999,18,9,1
ah,1,2,1,1,0.340984911,0.340308458,0.305979157,19,9,0
ah,2,1,1,1,0.434847825,0.352267464,0.63536119,20,9,0
ah,1,2,1,1,0.481804115,0.43466456299999995,0.329613806,21,9,0
ah,1,1,2,1,0.411194696,0.364076704,0.282559725,22,9,1
ah,2,2,3,1,0.705452009,0.316961407,0.270690425,23,9,1
ah,1,1,2,1,0.528671469,0.38781838399999996,0.388258444,24,9,1
ah,2,2,3,1,0.364388172,0.258228988,0.282304852,25,9,1
ah,2,2,1,1,0.999479474,0.44637485600000004,0.305928336,26,9,1
ah,2,2,3,1,0.493581399,0.293607426,0.282483879,27,9,1
ah,1,1,2,1,1.093640382,1.046357993,0.27067579399999997,28,9,1
ah,1,2,1,1,0.599475701,0.234764125,0.258974741,29,9,0
ah,1,1,1,1,0.317151599,0.469927885,0.8471651929999999,30,9,1
ah,1,2,1,1,0.68186279,0.30521723300000003,0.31771717,31,9,0
ah,1,1,1,1,0.646550957,0.43467226299999995,0.400118504,32,9,1
ah,1,2,1,1,0.599485711,0.37585167799999997,0.505981621,33,9,0
ah,1,1,2,1,0.5289894829999999,0.5757994710000001,0.294189937,34,9,1
ah,2,2,3,1,0.5994895610000001,0.917029245,0.43537913100000003,35,9,1
ah,2,1,2,1,0.493602575,0.258180862,0.494194711,36,9,0
ah,2,2,2,1,0.5054310639999999,0.422833763,0.294211883,37,9,1
ah,2,1,1,1,0.47018660799999995,0.622858942,0.48241280700000005,38,9,0
ah,2,2,1,1,0.5406801410000001,0.32864167,0.43540993100000003,39,9,1
ah,1,2,1,1,0.36352999700000005,1.470454186,0.411943529,40,9,0
ah,1,1,2,1,0.36415640000000005,0.2935362,0.294284648,41,9,1
ah,1,1,1,1,0.517150598,0.352271699,0.247172047,42,9,1
ah,2,1,2,1,0.611266845,0.446436457,0.517763525,43,9,0
ah,2,1,2,1,0.37604033,0.5757994710000001,0.9412491009999999,44,9,0
ah,2,2,2,1,0.81131551,0.940446751,3.023366686,45,9,1
ah,2,2,1,1,0.56430863,0.293419159,0.294206492,46,9,1
ah,1,1,1,1,0.45835619299999997,0.339604285,0.858912062,47,9,1
ah,2,2,3,1,0.528919412,1.069863666,0.29425423300000003,48,9,1
ah,1,1,1,1,0.48189228100000003,0.8581355079999999,0.482407417,49,9,1
av,2,2,2,2,0.49341158700000004,0.6226291820000001,0.858892269,0,0,1
av,1,1,1,2,1.775732541,0.881796653,1.635455268,1,0,1
av,2,2,2,2,0.44652210700000006,0.481728969,0.306057336,2,0,1
av,1,1,1,1,1.375923581,0.622887521,0.43541661299999995,3,0,1
av,2,2,2,2,2.270004231,0.176049709,0.800086857,4,0,1
av,1,1,2,2,0.505466506,0.846389203,0.37654806,5,0,1
av,2,2,1,2,0.6230461429999999,0.37582809899999997,0.764790289,6,0,1
av,2,2,1,2,0.45835718799999997,0.493358071,0.6706648239999999,7,0,1
av,1,1,1,2,0.8580752859999999,0.7170195309999999,1.223778887,8,0,1
av,1,2,1,2,0.49365722100000003,0.352269205,0.5294773970000001,9,0,0
av,1,2,1,2,0.659151994,0.740641951,0.857914354,10,0,0
av,2,2,2,2,0.37603330799999996,0.846395363,0.56478128,11,0,1
av,2,1,1,2,1.258322768,0.269784778,0.670657894,12,0,0
av,1,1,1,1,2.070040268,1.622785879,0.40009887,13,0,1
av,1,2,1,1,1.881696936,0.552272439,0.411905459,14,0,0
av,1,1,1,1,0.728925452,1.7757479409999999,1.329444902,15,0,1
av,2,2,2,2,0.30537318,1.1404651559999999,0.58836905,16,0,1
av,2,2,2,2,0.35308926799999996,0.328791932,0.634747627,17,0,1
av,2,2,2,2,0.43562374600000003,0.551549783,0.729246547,18,0,1
av,1,1,1,2,1.082382786,0.280977283,0.435508629,19,0,1
av,1,2,1,1,0.811278208,0.846412304,0.7647617990000001,20,0,0
av,1,1,2,1,1.0583383990000002,2.3757010480000003,0.317742264,21,0,1
av,2,2,2,2,0.375958616,0.91698927,0.623632892,22,0,1
av,2,2,1,1,0.705415839,0.928740804,1.6823420519999999,23,0,1
av,2,2,1,2,0.869794865,0.705224106,0.812114056,24,0,1
av,2,2,1,2,0.623194756,1.093282302,1.8470544930000001,25,0,1
av,1,1,1,2,1.187751577,0.7875152609999999,2.694049311,26,0,1
av,1,1,1,1,1.093650368,0.528725095,2.7293531939999998,27,0,1
av,2,1,1,1,1.7171227130000002,1.140471316,1.0470823679999999,28,0,0
av,1,2,1,2,0.482058534,0.49360717,2.399597977,29,0,0
av,2,2,1,1,0.505388735,0.54052976,0.388352725,30,0,1
av,1,1,2,2,0.599744433,1.716651465,0.9882707959999999,31,0,1
av,1,1,2,1,2.258403619,0.48168392299999996,0.25879055,32,0,1
av,1,1,1,1,2.2464772930000003,0.728724864,0.388366971,33,0,1
av,2,2,1,2,0.42303790399999996,0.752318024,1.11772594,34,0,1
av,2,2,1,2,0.423081795,0.611092481,2.2822893840000003,35,0,1
av,1,2,1,1,2.599284351,1.6580793669999998,0.447250153,36,0,0
av,2,2,2,1,1.28269518,1.9992423080000001,0.34038214899999997,37,0,1
av,1,2,1,1,0.834825167,0.258178776,0.623653298,38,0,0
av,2,2,1,1,0.858343635,0.38754228799999996,0.623587077,39,0,1
av,1,2,1,1,0.623178585,0.469803797,0.8118272259999999,40,0,0
av,1,1,1,1,0.999560708,0.5875674670000001,1.564703894,41,0,1
av,2,2,1,1,0.43472052200000005,0.328774607,0.25901000399999996,42,0,1
av,2,2,1,1,0.423038289,0.364058085,1.576509329,43,0,1
av,2,2,1,1,1.105392662,0.5875770929999999,0.611831307,44,0,1
av,1,2,1,1,1.7876434680000002,0.56410675,0.682439844,45,0,0
av,2,2,1,1,0.493676086,1.340510356,0.8353033440000001,46,0,1
av,1,2,1,1,0.5760034310000001,0.999172237,1.20005213,47,0,0
av,1,1,1,1,0.376004047,0.869971968,1.035310043,48,0,1
av,2,2,1,2,0.964253745,0.458166225,1.305893708,49,0,1
av,1,1,1,2,1.446338844,0.540265646,1.235323288,0,1,1
av,1,2,1,1,1.270218294,0.422845786,0.17648053,1,1,0
av,2,2,1,2,0.199547387,0.305268844,0.988287351,2,1,1
av,1,1,1,1,0.9877960840000001,0.352266895,0.294200695,3,1,1
av,2,1,1,1,1.04657339,0.399286892,0.5412874520000001,4,1,0
av,2,2,1,2,0.516529264,0.376481069,2.8940252089999996,5,1,1
av,1,1,1,1,0.50542685,0.422866577,0.282470336,6,1,1
av,2,2,1,1,2.258344328,0.399248007,0.6354009820000001,7,1,1
av,1,1,1,1,0.752445076,0.305246898,0.588331319,8,1,1
av,2,1,1,1,0.552486888,0.24641107199999998,0.658909055,9,1,0
av,1,2,1,1,0.5407264979999999,0.364095431,0.40012505,10,1,0
av,1,2,1,1,0.588191947,0.352308091,0.45840415799999995,11,1,0
av,2,2,1,1,0.599536145,0.199328704,0.44713619200000004,12,1,1
av,2,1,1,1,0.45771846299999996,0.317684898,1.517661567,13,1,0
av,2,2,1,1,0.36428831899999997,0.340502656,0.317694523,14,1,1
av,2,2,1,1,3.411102337,0.43448797899999997,1.388239534,15,1,1
av,2,1,1,1,0.823043602,0.269903745,0.035439405,16,1,0
av,1,2,1,1,0.517162599,0.211137989,0.341276133,17,1,0
av,1,1,1,1,0.376001352,0.30526460899999996,1.035353549,18,1,1
av,1,2,1,1,0.5524957429999999,1.046410918,0.482419669,19,1,0
av,1,1,1,1,2.293483429,0.517027462,0.6118636479999999,20,1,1
av,1,2,1,1,0.42319190700000003,0.481676993,0.38820680799999996,21,1,0
av,2,1,1,1,0.6230415229999999,0.716819713,0.7177448820000001,22,1,0
av,1,2,1,1,0.376039853,0.504678399,0.8000699170000001,23,1,0
av,2,2,1,1,0.387822957,0.351578505,0.541230856,24,1,1
av,2,2,1,1,0.48189144100000003,0.246392206,0.494216634,25,1,1
av,1,2,1,1,0.434817544,0.293496904,0.811828766,26,1,0
av,2,2,1,1,0.364482362,0.234343833,0.411881204,27,1,1
av,1,1,1,1,0.29366091699999997,0.37565908200000003,0.40012351,28,1,1
av,2,2,2,1,0.646586942,1.199307913,0.035371259,29,1,1
av,2,2,1,1,0.51721188,0.340570032,1.000006545,30,1,1
av,2,1,1,1,0.470016705,0.352258425,0.44717238200000003,31,1,0
av,1,2,1,1,0.44654867299999995,0.505246282,0.282475341,32,1,0
av,1,1,1,1,0.575992651,0.340526141,0.75302143,33,1,1
av,2,2,1,1,0.41130793,0.211107188,0.29422264,34,1,1
av,2,2,1,1,0.505351389,0.29352039,0.188407242,35,1,1
av,1,1,1,1,0.258352414,0.269949175,0.28247072100000004,36,1,1
av,1,2,1,1,0.434844109,0.258223437,0.5412273910000001,37,1,0
av,1,2,1,1,0.517199175,0.152277136,0.42363543299999995,38,1,0
av,2,2,1,1,0.799659116,0.399181401,0.4824651,39,1,1
av,1,1,2,1,0.411331416,1.069907441,0.458890036,40,1,1
av,1,2,1,1,1.38767242,0.611096331,0.6942498990000001,41,1,0
av,1,1,1,2,0.5524807279999999,1.3051887629999999,0.600067838,42,1,1
av,2,1,1,1,1.458300977,0.422836931,0.341291533,43,1,0
av,2,1,1,1,0.340699009,0.328805408,0.364831177,44,1,0
av,1,2,1,1,0.39956640600000004,0.493471648,0.29420724,45,1,0
av,1,2,1,1,0.7054131440000001,0.56316695,0.36479306100000003,46,1,0
av,2,2,1,1,0.340686304,0.28174537,0.34127459299999996,47,1,1
av,2,2,2,1,0.364215167,0.305288864,0.30598226,48,1,1
av,2,2,1,1,0.564241117,0.270079692,0.317686438,49,1,1
av,2,1,1,1,0.7404998840000001,0.587305278,1.894127621,0,2,0
av,2,2,1,1,0.7524239009999999,0.516949306,0.705929822,1,2,1
av,1,1,1,1,0.823044372,0.481695858,1.329451447,2,2,1
av,2,1,1,1,0.481924167,0.516992427,1.223543263,3,2,0
av,2,1,1,2,0.49365991600000003,0.375832335,2.646962708,4,2,0
av,1,2,1,2,0.940814588,1.7873065869999998,0.823576065,5,2,0
av,1,2,1,2,1.022786572,0.411159318,1.3178758609999999,6,2,0
av,1,2,1,1,1.3288947290000002,0.258126415,6.552575824,7,2,0
av,2,2,1,2,0.5642646020000001,0.19931522899999998,1.235305192,8,2,1
av,1,2,1,1,0.517160289,0.39935619299999997,0.28247572600000004,9,2,0
av,1,1,1,1,0.35241435299999996,0.305236118,0.270741517,10,2,1
av,2,2,1,1,0.646584632,0.328753817,0.45894278200000005,11,2,1
av,2,2,1,2,0.646601187,0.505214712,0.65889943,12,2,1
av,2,2,1,2,0.41149735299999995,0.25811448,0.941216534,13,2,1
av,2,2,1,1,0.364248663,0.164081416,1.352945661,14,2,1
av,1,1,1,1,0.728932768,0.340533841,1.047101618,15,2,1
av,1,1,1,1,1.058270638,4.551924393999999,0.48251515100000003,16,2,1
av,1,1,1,1,0.540694158,0.352325801,0.294247281,17,2,1
av,2,1,1,1,0.540768079,0.71695716,1.3764683640000002,18,2,0
av,1,1,1,1,1.776090982,0.481702404,1.176350013,19,2,1
av,1,1,1,1,0.940646725,0.44640853,0.494228185,20,2,1
av,2,2,2,1,0.516197774,0.41215917799999996,0.9059311309999999,21,2,1
av,1,2,1,1,0.9524864259999999,0.36402844,0.7647548690000001,22,2,0
av,2,2,1,1,0.48187835100000004,0.316991118,1.341207987,23,2,1
av,2,2,1,1,0.564209931,0.858186938,1.72940055,24,2,1
av,2,2,1,1,1.293588536,0.24641107199999998,1.058863932,25,2,1
av,2,1,1,1,0.35247056299999996,0.317029618,0.917698065,26,2,0
av,1,2,1,1,0.5878127160000001,0.964005801,0.517656177,27,2,0
av,1,1,1,1,0.317202871,0.458166225,0.317734564,28,2,1
av,1,2,1,1,0.84653897,0.17581601,0.42364544299999995,29,2,0
av,2,2,1,1,0.505439555,0.246365256,0.376570391,30,2,1
av,2,2,1,1,0.44660565399999996,0.31712048,0.447183547,31,2,1
av,2,2,1,1,0.387792542,0.14053676699999998,0.976522342,32,2,1
av,1,1,1,1,0.43481138399999997,0.258233447,0.411426897,33,2,1
av,2,2,2,1,0.517141424,0.9757889059999999,3.9410313460000004,34,2,1
av,1,2,1,1,0.493645671,0.316983032,0.388327315,35,2,0
av,1,2,1,1,0.43485219399999997,0.293391798,0.941253879,36,2,0
av,1,2,2,1,0.69366854,0.6934694920000001,0.35301727200000005,37,2,0
av,2,1,1,1,0.328927454,0.39935426799999996,0.6118782779999999,38,2,0
av,1,1,1,1,0.458318302,0.28171688,0.600112114,39,2,1
av,2,2,1,1,0.423101045,0.752244488,0.34124340700000005,40,2,1
av,2,1,1,1,6.316704672999999,0.293471109,1.3176852829999999,41,2,0
av,1,1,1,1,0.528976119,0.21047269899999999,0.599822974,42,2,1
av,1,1,1,1,0.96421948,0.43463582100000003,0.48237770399999996,43,2,1
av,2,2,1,1,0.587775756,0.364043455,0.541214301,44,2,1
av,1,1,1,1,0.493544414,0.422841166,0.388395846,45,2,1
av,1,2,1,1,0.6113123189999999,0.35216833399999997,0.258916447,46,2,0
av,1,2,1,1,3.08167938,0.45752904,0.6236271170000001,47,2,0
av,2,1,1,1,0.940866564,0.30520647300000003,3.340912687,48,2,0
av,2,1,1,1,0.9289556370000001,0.49341428200000004,1.141209758,49,2,0
av,1,1,1,1,1.8463006519999998,0.56378681,4.717408002,0,3,1
av,1,2,1,1,1.0701284340000001,0.44638774,0.74122408,1,3,0
av,2,2,1,1,0.8465940259999999,0.858131112,0.423597703,2,3,1
av,2,1,1,1,0.728935078,0.199356809,8.281854327000001,3,3,0
av,1,1,1,1,0.387789847,0.493425062,0.40011042,4,3,1
av,2,1,1,1,0.352474798,0.234691108,0.694175978,5,3,0
av,2,1,1,1,0.717158903,0.328626765,6.258512961,6,3,0
av,1,1,1,1,0.623033053,0.35231887100000003,0.8353992109999999,7,3,1
av,2,1,1,1,0.4112856,0.246409147,0.353095428,8,3,0
av,1,1,1,1,0.646575007,0.540517055,1.8588106480000002,9,3,1
av,2,1,1,1,1.058143201,0.376044473,0.9300575240000001,10,3,0
av,2,2,1,1,0.470158388,0.305211093,0.317761129,11,3,1
av,1,2,1,1,0.340755605,0.364007264,0.305974945,12,3,0
av,1,2,1,1,1.928882486,0.46991621899999997,0.35299340100000004,13,3,0
av,1,1,1,1,0.564263062,0.21040339800000002,0.34127459299999996,14,3,1
av,1,1,1,1,2.293499599,0.41115816299999997,0.517769368,15,3,1
av,2,1,1,1,0.681956661,0.41101686600000004,0.57656092,16,3,0
av,1,1,1,1,0.694585239,0.269813268,0.563777185,17,3,1
av,2,2,1,1,1.328910899,0.728725249,0.988266561,18,3,1
av,2,1,1,1,0.47018957299999997,0.26991491,0.164795987,19,3,0
av,2,2,1,1,6.681391858,0.540574036,0.529517437,20,3,1
av,2,2,1,1,1.223018115,0.71694253,4.799786168,21,3,1
av,1,1,1,1,0.37597709700000004,0.24638527600000001,0.270737667,22,3,1
av,2,2,1,2,0.423039829,1.328750737,1.176501321,23,3,1
av,2,2,1,1,0.764219711,0.116231347,0.34130577799999995,24,3,1
av,2,1,1,1,1.2111791840000001,0.246461892,0.43540159799999995,25,3,0
av,1,2,1,1,0.45832484700000004,0.175838341,0.8824407679999999,26,3,0
av,1,1,2,1,0.553108672,1.528869473,0.3053393,27,3,1
av,1,1,1,1,1.528879483,0.787591107,0.788294513,28,3,1
av,1,1,1,1,0.741075853,0.587553222,1.317273712,29,3,1
av,2,2,1,1,0.340719414,0.36405847,0.505991654,30,3,1
av,2,2,1,1,0.940793412,1.799101627,1.164746707,31,3,1
av,2,2,2,1,1.293612406,0.999295824,0.717713312,32,3,1
av,2,1,1,1,1.211304311,1.187475528,0.45890120100000004,33,3,0
av,1,1,1,1,0.95245601,9.433971301,1.36473069,34,3,1
av,1,1,1,1,0.8474514340000001,2.222759391,1.422592452,35,3,1
av,1,1,1,1,0.6230703989999999,0.5169908870000001,0.55299471,36,3,1
av,2,2,1,1,0.9288720909999999,0.79930645,2.341157166,37,3,1
av,1,1,2,1,0.611275744,2.293326347,0.43540891299999995,38,3,1
av,1,1,2,1,0.63528856,0.90523042,0.352564505,39,3,1
av,2,2,1,1,0.611325795,0.587568622,0.38833232,40,3,1
av,1,2,1,1,0.6466300629999999,1.528654254,0.353016502,41,3,0
av,1,1,1,1,0.481846011,0.328808488,0.141306394,42,3,1
av,1,1,1,1,0.846614047,0.764030288,0.753010265,43,3,1
av,2,1,2,1,2.18762491,1.658066662,0.8589149840000001,44,3,0
av,2,1,1,1,1.070081848,0.9515427759999999,0.5883197689999999,45,3,0
av,1,1,1,1,0.85833555,0.516974331,1.118596823,46,3,1
av,1,2,1,1,0.399527906,0.493484353,0.423454481,47,3,0
av,2,1,1,1,0.50542685,1.140448986,0.764800684,48,3,0
av,2,2,2,1,0.6466608629999999,0.822770248,0.576529734,49,3,1
av,2,2,1,1,0.469493482,0.5050275989999999,0.576604425,0,4,1
av,1,1,1,1,0.62316434,0.5756881110000001,0.564814391,1,4,1
av,2,2,1,1,0.34072865399999996,0.305246898,0.341249952,2,4,1
av,1,1,1,1,0.834833637,0.39927534200000003,1.223164802,3,4,1
av,2,2,1,1,0.505394895,0.505285553,1.058801946,4,4,1
av,2,1,1,1,2.786633212,0.564391654,1.235302882,5,4,0
av,1,1,1,1,0.917152897,0.434644676,0.529507427,6,4,1
av,1,1,1,1,1.258297743,1.31614295,0.36482424700000005,7,4,1
av,2,1,1,1,0.42304021399999997,0.293461484,0.376567696,8,4,0
av,1,2,1,1,0.59952267,0.340536921,0.482433145,9,4,0
av,2,1,1,1,0.634810768,0.46996858,0.270706867,10,4,0
av,2,1,1,1,0.49353517399999997,0.799293745,2.341227622,11,4,0
av,2,2,1,1,1.481906842,0.44627608799999996,0.364797296,12,4,1
av,1,1,1,1,0.505380265,0.505230882,0.6824675640000001,13,4,1
av,2,1,1,1,2.128799864,0.505238967,0.376607736,14,4,0
av,1,1,1,1,0.58774149,0.37583657,0.141344895,15,4,1
av,1,2,1,1,0.54081582,0.30515180199999997,0.576516644,16,4,0
av,1,1,1,1,0.42304059899999996,0.36456282799999995,0.694178673,17,4,1
av,1,1,1,1,0.7172016390000001,0.305234193,0.047139349000000004,18,4,1
av,2,1,1,1,0.31720133100000003,0.210989762,0.788307988,19,4,0
av,1,1,1,1,1.0230071809999999,0.587565927,0.8589111340000001,20,4,1
av,1,2,1,1,0.493794668,0.41098337,0.376567696,21,4,0
av,2,2,2,1,0.7407077870000001,2.281521297,1.788201726,22,4,1
av,2,2,2,1,1.04657416,1.516913885,0.38833694,23,4,1
av,1,1,1,1,0.9406748309999999,0.469933544,0.83534454,24,4,1
av,1,2,1,1,0.646548827,1.752239483,0.517753583,25,4,0
av,2,1,1,1,0.517259236,0.44629495399999997,2.846980572,26,4,0
av,2,2,1,1,1.07015962,1.375745323,1.117553457,27,4,1
av,1,2,1,1,0.47014606700000006,0.5169958920000001,0.023639745,28,4,0
av,2,2,1,1,1.293632811,0.5169951220000001,1.4823415130000002,29,4,1
av,1,2,1,1,1.223024275,0.71696871,0.870623783,30,4,0
av,1,2,1,1,1.0348372559999999,0.516934291,0.788318383,31,4,0
av,1,1,1,1,1.2465338879999999,0.5993617370000001,0.717699451,32,4,1
av,2,2,1,1,2.19943535,0.364065015,0.800008701,33,4,1
av,2,2,1,1,2.787588412,0.9875015540000001,0.7294956459999999,34,4,1
av,1,1,1,1,1.775886928,1.246364486,0.9412303940000001,35,4,1
av,1,2,1,1,1.1524411490000002,0.693455632,0.9059084159999999,36,4,0
av,2,1,1,1,2.235641302,1.858089532,0.505041074,37,4,0
av,2,1,1,1,0.634788822,0.39934194799999995,0.5059308229999999,38,4,0
av,2,1,1,1,1.658336936,0.552225469,0.105983646,39,4,0
av,1,1,1,1,1.8817958830000001,0.481705869,0.482440075,40,4,1
av,2,2,1,2,0.740690847,0.316977642,0.7412606559999999,41,4,1
av,2,2,1,1,0.9406921559999999,0.281632563,0.41186772899999996,42,4,1
av,1,1,1,2,0.705396974,0.235276702,1.45817046,43,4,1
av,2,1,1,1,0.38779369700000005,0.19938068,0.658838214,44,4,0
av,1,1,1,1,0.528842907,0.22287104300000002,0.988385913,45,4,1
av,2,2,1,2,1.552356756,0.55229939,0.811863032,46,4,1
av,1,2,1,1,1.234587156,0.387535743,2.247179543,47,4,0
av,2,2,1,2,0.19951081199999998,0.352399722,1.72942288,48,4,1
av,1,2,1,1,1.364108136,0.352296926,0.964780048,49,4,0
av,2,2,1,1,0.5405397710000001,0.257887711,0.388288814,0,5,1
av,1,2,1,1,0.83471698,0.599365202,0.423696264,1,5,0
av,1,2,1,1,0.752450851,0.45818278,3.729257713,2,5,0
av,1,2,1,1,0.7995224390000001,0.705234886,0.905942681,3,5,0
av,2,1,1,1,0.5642280270000001,0.43459424,0.047166299,4,5,0
av,1,1,1,1,1.57593644,0.305084426,0.15305253800000002,5,5,1
av,1,2,1,1,1.187778528,0.340451835,0.8000495120000001,6,5,0
av,2,1,1,1,0.63465561,0.434636206,0.23557238600000002,7,5,0
av,2,1,1,1,1.505335989,0.8699176820000001,0.600060138,8,5,0
av,2,1,1,1,1.3524205130000002,0.328735722,0.9882892759999999,9,5,0
av,1,1,1,1,1.387688975,0.25811217,2.623493905,10,5,1
av,2,1,1,1,1.317019223,0.670107336,3.235026833,11,5,0
av,2,1,1,1,0.564419375,0.211080623,0.176419315,12,5,0
av,1,2,1,1,0.38778638200000004,0.152360683,0.447107701,13,5,0
av,2,2,1,1,0.623174735,1.3638794419999998,1.352965681,14,5,1
av,1,2,1,1,0.470074841,0.234694958,1.082419746,15,5,0
av,1,1,1,1,0.623068859,0.375846965,0.282446851,16,5,1
av,2,2,1,1,0.658320381,0.564023974,0.388380446,17,5,1
av,2,1,1,1,0.8347793509999999,0.23469457300000002,0.36484234200000004,18,5,0
av,1,1,1,1,0.740886815,0.505128856,0.552869583,19,5,1
av,1,2,1,1,0.846560146,0.17580369,1.388236069,20,5,0
av,1,1,1,1,0.293647442,0.42289083200000005,0.717713697,21,5,1
av,1,2,1,1,1.0583133740000001,0.18757639999999998,0.764778354,22,5,0
av,1,1,1,1,0.258336243,0.340546932,0.40013429,23,5,1
av,2,1,1,1,0.340697469,0.19935642399999998,0.847130725,24,5,0
av,1,2,1,1,0.49363643,0.24641222699999998,0.41189082899999996,25,5,0
av,2,2,1,1,0.517182234,0.528843677,4.12919873,26,5,1
av,2,2,1,1,0.411316786,0.234647217,0.43537772700000005,27,5,1
av,2,2,1,1,1.9053220519999998,0.399373903,1.023538489,28,5,1
av,2,1,1,1,0.376050248,0.340665128,1.9293787580000001,29,5,0
av,2,2,1,1,1.375980177,0.634723371,0.553025126,30,5,1
av,1,2,1,1,0.576022296,0.528989209,0.458916986,31,5,0
av,1,1,1,1,0.470109877,0.411133908,0.6353902020000001,32,5,1
av,2,1,1,1,0.670112726,1.128697067,0.5294177210000001,33,5,0
av,2,2,1,1,0.45832253700000003,0.340547317,0.388338095,34,5,1
av,1,2,1,1,0.42306062,0.30527731399999997,0.56478051,35,5,0
av,2,2,1,1,0.457892101,0.199761065,0.482412739,36,5,1
av,1,2,1,1,0.552424902,0.19937143899999998,0.658902895,37,5,0
av,1,2,1,1,0.834850192,0.71693637,0.20010102600000002,38,5,0
av,2,2,1,1,0.281910153,0.164053696,0.388205268,39,5,1
av,2,1,1,1,0.27016477899999997,0.17578675,0.435399288,40,5,0
av,2,2,1,1,0.35246786799999996,0.36418513700000005,0.48242891,41,5,1
av,2,1,1,1,0.564224947,0.293449164,0.517751658,42,5,0
av,1,2,1,1,0.399547926,0.14066420400000001,0.505236657,43,5,0
av,1,1,1,1,0.49366761600000003,0.281728045,0.37653574,44,5,1
av,1,1,1,1,0.446612584,0.46993931899999997,0.411850019,45,5,1
av,2,2,1,1,0.36425405299999997,0.222891063,0.576534739,46,5,1
av,1,2,1,1,1.387732096,0.7875364359999999,1.964673401,47,5,0
av,2,2,1,1,0.30601229,0.199365664,0.41113236799999997,48,5,1
av,1,2,1,1,0.799498953,0.222949199,0.635394437,49,5,0
av,1,2,1,1,0.458160065,0.305012815,0.42362503799999995,0,6,0
av,2,1,1,1,0.587769981,0.37583426,0.30598842,1,6,0
av,2,2,1,1,0.423001329,0.29349382399999996,0.176638383,2,6,1
av,2,1,1,1,0.423101045,0.305222258,0.47064849999999997,3,6,0
av,2,2,1,1,0.30529810399999996,0.223018115,0.258928382,4,6,1
av,1,2,1,1,0.293647057,0.246475368,0.5059458379999999,5,6,0
av,1,2,1,1,0.21125349100000002,0.29355349999999997,0.647148281,6,6,0
av,1,2,1,1,0.44676312100000004,0.32873995699999997,0.49404299700000004,7,6,0
av,2,2,1,1,0.9995010320000001,0.352239945,0.153071789,8,6,1
av,1,1,1,1,0.37601328700000003,0.387650475,0.341265353,9,6,1
av,1,2,1,1,3.6345797639999997,0.3640423,0.741283371,10,6,0
av,2,2,1,1,0.799545154,0.599313227,0.47065851,11,6,1
av,2,2,1,1,0.575983796,0.258414015,0.364836182,12,6,1
av,1,1,1,1,0.623076559,0.305203008,0.635373646,13,6,1
av,1,2,1,1,0.35246825299999995,0.28170918,0.42364505799999996,14,6,0
av,2,2,1,1,0.528947244,0.516991657,0.964757333,15,6,1
av,2,1,1,1,0.411043431,0.24643147699999998,0.36503061,16,6,0
av,1,2,1,1,1.6935357130000002,0.72873988,1.43520871,17,6,0
av,1,2,1,1,0.32923969399999997,0.34021043700000003,0.92947347,18,6,0
av,2,1,1,1,0.611285754,0.24641222699999998,0.611852098,19,6,0
av,1,1,1,1,0.281875117,0.176100915,0.647143276,20,6,1
av,1,2,1,1,0.270127048,0.258234602,0.49421740399999997,21,6,0
av,2,1,1,1,4.469824202,2.681518525,0.7764821470000001,22,6,0
av,2,1,1,1,0.37602522299999996,0.352304241,0.376563076,23,6,0
av,2,1,1,1,0.870077074,0.19939531,0.141311399,24,6,0
av,1,1,1,1,0.681862335,0.352279601,1.235333683,25,6,1
av,2,1,1,1,0.539732798,0.270949421,1.211788649,26,6,0
av,2,1,1,1,0.49378042299999997,0.7639024659999999,0.6354056020000001,27,6,0
av,1,1,1,1,0.705354623,0.38755730299999996,0.553054771,28,6,1
av,1,1,1,1,0.670229768,0.363889452,0.164836028,29,6,1
av,1,1,1,1,1.034802606,0.62282746,1.070632792,30,6,1
av,2,2,1,1,0.7524385309999999,0.328852378,1.129491719,31,6,1
av,1,2,1,1,0.9995168179999999,0.35226805,0.56478205,32,6,0
av,1,2,1,1,1.5523571409999999,0.51722574,0.882437303,33,6,0
av,2,1,1,1,0.352539864,0.5640051079999999,2.152911626,34,6,0
av,1,2,1,1,0.540779244,0.16396707,1.341207217,35,6,0
av,1,1,1,1,0.776014365,0.281652199,0.858877639,36,6,1
av,2,1,1,1,0.7642381909999999,0.293451859,1.141198208,37,6,0
av,2,2,1,1,1.1171730709999999,0.44638851,0.717685206,38,6,1
av,2,2,1,1,0.364230183,1.069938241,1.799986371,39,6,1
av,2,2,1,1,0.293653602,0.24642647199999998,0.7765645390000001,40,6,1
av,2,2,1,1,0.37602291200000004,0.223026585,0.917702685,41,6,1
av,2,1,1,1,0.587713,0.36406078,1.118223752,42,6,0
av,1,2,1,1,0.41115893299999995,0.246530423,0.529414641,43,6,0
av,2,2,1,1,0.634848883,0.281590598,0.541856491,44,6,1
av,1,1,1,1,0.6817221929999999,0.328846603,1.941174568,45,6,1
av,1,1,1,1,0.5642280270000001,0.29330940699999997,0.376610431,46,6,1
av,2,2,1,1,0.9053867329999999,0.43462773600000004,0.576512794,47,6,1
av,1,2,1,1,2.105408062,0.446318439,0.729489486,48,6,0
av,1,2,1,1,0.41128945,0.293464564,0.7295025759999999,49,6,0
av,2,2,1,1,0.611074771,0.175669708,0.682417513,0,7,1
av,2,1,1,2,0.740709327,0.5169720210000001,0.6118328470000001,1,7,0
av,2,2,1,1,0.634859663,0.328743422,0.117740955,2,7,1
av,2,1,1,1,0.68185271,0.281704175,0.38830229,3,7,0
av,1,1,1,1,0.505429545,0.199245157,0.35301958200000005,4,7,1
av,2,2,1,1,0.517152204,0.19937683,0.470702401,5,7,1
av,1,1,1,1,0.43487106,0.18755599399999998,0.56476665,6,7,1
av,1,1,1,1,0.51719956,2.057985349,0.411899299,7,7,1
av,1,1,1,1,0.446564843,0.222879128,0.36483233200000004,8,7,1
av,1,1,1,1,0.8230374420000001,0.258135655,1.270656046,9,7,1
av,2,1,1,1,0.458361423,0.246424547,0.576543209,10,7,0
av,1,1,1,1,0.552346361,0.258268097,0.588323234,11,7,1
av,1,1,1,1,0.7290024540000001,0.399263022,0.6000639879999999,12,7,1
av,1,1,1,1,0.670104256,0.5993459520000001,0.635358246,13,7,1
av,1,2,1,1,1.399729264,0.41084476799999997,0.84714574,14,7,0
av,1,2,1,1,1.9987321759999999,0.400054209,0.670660589,15,7,0
av,2,1,1,1,0.57594568,0.199221672,0.423643903,16,7,0
av,2,2,1,1,0.999492947,0.234637592,1.376528425,17,7,1
av,2,2,1,1,0.38775211600000004,0.199372594,0.411886594,18,7,1
av,2,2,1,1,0.246609735,0.152302932,0.576200169,19,7,1
av,1,1,1,1,0.44658909799999996,0.164153413,0.611837082,20,7,1
av,2,2,1,1,0.7642428109999999,0.375802304,0.505970479,21,7,1
av,2,1,1,1,0.399794715,0.18721834399999998,1.141270204,22,7,0
av,1,1,1,1,1.034866132,0.846259071,0.976561998,23,7,1
av,2,2,1,1,0.6466446929999999,0.258162221,0.635382501,24,7,1
av,1,1,1,1,0.423100275,0.317030003,0.611852483,25,7,1
av,2,1,1,1,0.505417225,0.269936855,0.47066621,26,7,0
av,2,1,1,1,1.540779629,0.387551143,0.47052876299999996,27,7,0
av,1,1,1,1,0.446613739,0.364029595,0.364770731,28,7,1
av,1,1,1,1,0.446592948,0.305253444,0.541225081,29,7,1
av,1,1,1,1,0.305436706,0.352281526,0.45891929600000003,30,7,1
av,2,2,1,1,0.38782180200000005,0.23457676100000002,0.30599149999999997,31,7,1
av,2,2,1,1,0.328953635,0.19939762,0.36481616200000005,32,7,1
av,1,1,1,1,0.411299075,0.364062705,0.05896749900000001,33,7,1
av,2,2,1,1,0.564193376,0.316992273,1.0353577840000001,34,7,1
av,1,2,1,1,0.4230637,0.34058658700000005,0.717720627,35,7,0
av,2,1,1,1,0.881822833,0.458274026,0.21191146600000002,36,7,0
av,2,2,1,1,0.564202231,0.458194715,1.458845375,37,7,1
av,1,1,1,1,1.505362939,0.28169994,0.5177139279999999,38,7,1
av,1,1,1,1,0.564159111,0.23415903,0.44723128799999995,39,7,1
av,2,1,1,1,0.634795367,0.328798093,0.647147896,40,7,0
av,1,1,1,1,0.564176436,0.246376806,0.67074144,41,7,1
av,2,1,1,1,0.317240986,0.269779388,0.411891599,42,7,0
av,1,2,1,1,0.37598171700000005,0.187542519,0.388357346,43,7,0
av,1,1,1,1,0.634848498,0.316969557,0.43537849700000003,44,7,1
av,1,1,1,1,0.434794058,0.211141069,1.364756101,45,7,1
av,1,1,1,1,0.528929149,0.38767088,0.35302497200000005,46,7,1
av,2,2,1,1,0.434825244,0.32878115199999997,1.364727995,47,7,1
av,2,2,1,1,0.376052558,0.25814451,0.470663515,48,7,1
av,2,1,1,1,0.50543378,0.26994802,0.36480076100000003,49,7,0
av,2,1,1,1,0.6581486679999999,1.128451818,2.094076954,0,8,0
av,1,1,1,1,0.717162753,0.787564541,1.258884492,1,8,1
av,1,1,1,1,0.576034232,0.305161427,0.776469827,2,8,1
av,1,1,1,1,0.58774765,0.293468414,0.5295132020000001,3,8,1
av,2,1,1,1,0.35243514299999995,0.775877688,0.38831846,4,8,0
av,1,1,1,1,0.399568331,0.458130804,0.529503962,5,8,1
av,2,2,1,1,0.823065163,0.975621813,0.717737182,6,8,1
av,2,1,1,1,1.140680375,0.399345028,1.141212068,7,8,0
av,2,2,1,1,0.9994806270000001,1.540439284,0.6000893979999999,8,8,1
av,1,1,1,1,1.375989032,0.222823302,0.658894425,9,8,1
av,1,1,1,1,0.8465867109999999,0.22286603800000002,0.882391487,10,8,1
av,2,2,1,1,0.50540991,0.187632995,0.36481462200000003,11,8,1
av,1,1,1,1,0.387727861,0.175832181,0.494212014,12,8,1
av,1,1,1,1,0.305467122,0.175926122,0.317703378,13,8,1
av,2,2,2,1,0.270168244,0.928721938,0.600060908,14,8,1
av,1,1,1,1,0.7289489379999999,0.787542211,1.317680663,15,8,1
av,1,1,1,1,0.576011131,0.37581077399999996,1.588199647,16,8,1
av,2,2,1,1,0.517017452,0.43465122100000003,0.45904018799999996,17,8,1
av,2,2,1,1,0.5289129779999999,0.375804229,0.564809771,18,8,1
av,2,2,1,1,0.764246276,0.516981646,1.364719525,19,8,1
av,2,2,1,1,0.5290408000000001,0.52867004,0.588283578,20,8,1
av,1,1,1,1,0.693681245,0.705164815,0.870639953,21,8,1
av,1,1,1,1,0.5524391470000001,0.622875586,0.65893485,22,8,1
av,1,1,1,1,0.528939159,0.399377369,0.65891714,23,8,1
av,2,1,1,1,0.517163369,0.49344007700000003,0.529507427,24,8,0
av,2,1,1,1,0.470127587,0.799338021,0.435394283,25,8,0
av,2,1,1,1,0.30539666600000004,0.564027054,0.541267432,26,8,0
av,1,2,1,1,0.59951882,0.328774992,0.353018812,27,8,0
av,2,2,1,1,0.5054384,0.24639875100000003,0.5059508429999999,28,8,1
av,1,1,1,1,0.423052149,0.41115084799999996,0.529490872,29,8,1
av,2,2,1,1,0.446550213,0.257538511,0.400129285,30,8,1
av,2,1,1,1,0.575977251,0.681684462,0.635368641,31,8,0
av,2,2,1,1,0.717183158,0.187565619,0.423628503,32,8,1
av,2,1,1,1,0.11715767099999999,0.6816013009999999,0.282540022,33,8,0
av,1,2,1,1,0.387784457,0.34053807700000005,0.48242968,34,8,0
av,1,1,1,1,0.587757275,0.316980337,0.458902356,35,8,1
av,1,2,1,1,1.081853403,0.269920685,0.5882943589999999,36,8,0
av,1,1,1,1,0.105419612,0.470005925,0.305978025,37,8,1
av,2,2,1,1,0.6348407979999999,0.19935757899999998,0.48242583,38,8,1
av,1,1,1,1,0.764250126,0.29345801899999996,0.588295899,39,8,1
av,2,2,1,1,0.364214782,0.152277521,0.5177755279999999,40,8,1
av,1,1,1,1,0.50538989,0.222884133,0.376593491,41,8,1
av,2,2,1,1,0.32893708,0.152265201,0.67069524,42,8,1
av,1,1,1,1,0.505247052,0.270036187,0.30605117600000004,43,8,1
av,2,1,1,1,1.011067379,0.23478196899999998,0.6824571690000001,44,8,0
av,2,2,2,1,0.528921063,0.869935392,0.44716699200000004,45,8,1
av,1,1,1,1,0.505446486,0.211196895,0.600080928,46,8,1
av,1,1,1,1,0.9876709570000001,0.35227652,1.682430219,47,8,1
av,2,2,1,1,0.78782057,0.18737273100000001,1.153058698,48,8,1
av,1,1,1,1,0.50539836,0.34053846200000004,0.56479514,49,8,1
av,2,2,1,1,0.575695426,0.399099394,0.588407935,0,9,1
av,1,1,1,1,1.622996863,0.611106726,2.964609105,1,9,1
av,1,1,1,1,1.845583771,2.0588662419999997,1.200153386,2,9,1
av,1,1,1,1,0.681803044,0.39923530100000004,0.58837521,3,9,1
av,1,1,1,1,0.50538527,0.222276594,0.376578091,4,9,1
av,1,1,1,1,0.505454186,0.222881823,0.376549986,5,9,1
av,2,1,1,1,0.44754429799999995,0.18762568,0.5403241670000001,6,9,0
av,2,1,1,1,0.058180547,0.469960495,0.306105462,7,9,0
av,2,1,1,1,0.128937696,0.5052482079999999,0.41192009,8,9,0
av,2,2,1,1,0.270219449,0.19919895699999998,0.447195868,9,9,1
av,1,1,1,1,0.152545871,0.41109155700000005,0.411864264,10,9,1
av,1,1,1,1,0.517196095,0.164031751,0.341247642,11,9,1
av,2,2,1,1,0.740693542,0.09345363,0.353054617,12,9,1
av,2,2,1,1,0.258474075,0.140546008,0.341145231,13,9,1
av,2,1,1,1,0.657782913,0.24694546,0.329507658,14,9,0
av,2,2,1,1,0.423045989,0.164243889,0.411816908,15,9,1
av,1,1,1,1,0.9406798359999999,0.328756897,0.505973174,16,9,1
av,2,2,1,1,0.459253866,0.117652404,0.504869362,17,9,1
av,1,1,1,1,0.611288449,0.364103131,0.553019351,18,9,1
av,1,1,1,1,2.658179854,0.658134808,0.8588803340000001,19,9,1
av,1,1,1,1,0.822892295,3.1286585660000004,0.564790135,20,9,1
av,1,1,1,1,0.493661071,0.364052695,0.48247126,21,9,1
av,2,1,2,1,1.799520899,0.564181826,0.517704687,22,9,0
av,1,2,1,1,0.517133724,0.222949199,0.48245355,23,9,0
av,2,2,1,1,0.881839389,0.8222870659999999,0.44715390200000005,24,9,1
av,1,1,1,1,0.10531566099999999,0.41125249,0.38829382,25,9,1
av,2,2,1,1,0.31715128,0.117058725,0.376562691,26,9,1
av,2,2,1,1,0.846606347,0.84620363,0.411868884,27,9,1
av,2,2,1,1,0.399523671,0.116991734,0.18834487100000002,28,9,1
av,1,1,1,1,0.45837335799999995,0.270007311,0.623600167,29,9,1
av,1,1,1,1,1.9876705719999999,0.22282022199999998,1.0000608309999999,30,9,1
av,1,1,1,1,0.31722173600000003,0.222862958,0.435378882,31,9,1
av,2,1,1,1,0.39958565700000004,0.211070998,0.447111936,32,9,0
av,2,2,1,1,0.6936354290000001,0.328713391,0.411885824,33,9,1
av,2,1,1,1,0.8935778329999999,0.24553633800000002,0.506017064,34,9,0
av,1,1,1,1,0.669981054,0.258354724,0.5059512279999999,35,9,1
av,2,2,1,1,0.6936258040000001,0.06993092599999999,0.43540159799999995,36,9,1
av,2,1,1,1,0.552503828,0.316985342,0.494210474,37,9,0
av,1,1,1,1,1.070067603,0.305211478,0.741269126,38,9,1
av,1,1,1,1,0.446585633,0.246410687,1.011854716,39,9,1
av,1,2,1,1,0.411346046,0.105232884,0.40008115899999996,40,9,0
av,1,1,1,1,0.493633735,0.281696474,0.517763208,41,9,1
av,2,2,1,1,0.352492894,0.552267049,0.553037061,42,9,1
av,2,2,1,1,0.38777290700000006,0.093441695,0.32952228899999997,43,9,1
av,1,1,1,1,0.47011103200000004,0.37642370399999997,6.4819715229999995,44,9,1
av,2,2,1,1,0.5171479689999999,0.14087249300000002,0.705970633,45,9,1
av,1,1,1,1,0.646595797,0.352303086,0.529475472,46,9,1
av,2,2,1,1,1.093504065,0.317088139,0.352982621,47,9,1
av,1,1,1,1,0.5054526460000001,0.293390643,0.564787825,48,9,1
av,2,1,1,1,0.528968419,0.269878334,0.670701785,49,9,0
bj,1,1,2,1,2.23451003584,0.869625613559,0.635356593266,0,0,1
bj,2,1,3,2,0.47010156148500004,0.45814164704599997,0.647160579101,1,0,0
bj,2,2,1,1,0.752647609508,0.6932515266529999,0.7530033576620001,2,0,1
bj,1,1,3,2,0.39932038240699996,0.5000282981490001,0.506164953957,3,0,1
bj,2,2,2,1,0.599382522836,0.7288532935340001,0.811830012448,4,0,1
bj,1,2,3,2,0.34072203787199995,0.469942937852,0.611851418929,5,0,0
bj,1,1,2,1,0.7759760647600001,0.7757608448450001,0.8941841720520001,6,0,1
bj,1,1,3,2,0.340504122869,0.516976387022,1.00020328467,7,0,1
bj,2,2,2,2,0.7759856899940001,0.681669305894,1.24706363387,8,0,1
bj,2,2,1,1,1.31709597076,0.693465976583,0.400105030407,9,0,1
bj,1,1,2,2,0.49367603739699994,1.11696568377,0.411877445527,10,0,1
bj,2,2,2,2,0.446644898257,0.6699319265899999,0.5882777130319999,11,0,1
bj,1,2,2,1,3.22284157309,1.54047540121,0.247190301787,12,0,0
bj,2,1,1,1,3.7169819311500003,0.811031889127,0.447177750495,13,0,0
bj,1,2,2,2,0.8818815997660001,0.634649332031,0.34124603489200006,14,0,0
bj,2,2,3,2,0.38778320768299995,0.39933000762500004,0.38831913998000006,15,0,1
bj,2,1,1,2,1.8700110074,0.76527320419,0.0236634129542,16,0,0
bj,1,1,2,2,0.646618101659,1.9286316824599998,0.964737040893,17,0,1
bj,2,2,2,2,0.693671186295,1.35225613252,1.14115155372,18,0,1
bj,1,1,2,1,2.62293235818,0.52872878169,1.93025718974,19,0,1
bj,1,1,3,1,0.423003815828,0.693466361583,0.647151723897,20,0,1
bj,2,1,1,1,0.92889079341,0.6816404302369999,2.01174161442,21,0,0
bj,2,1,3,2,0.470182413337,0.68163504012,0.5412627442710001,22,0,0
bj,2,1,2,2,1.4936244462200001,0.928738329894,0.258869929763,23,0,0
bj,1,1,3,2,0.410221907543,0.45915961042900005,0.34133497193400003,24,0,1
bj,2,1,2,1,0.540850784819,0.528749187157,1.4704419092899998,25,0,0
bj,1,1,2,1,0.881903545276,1.0344944814700001,0.882422922194,26,0,1
bj,1,1,1,1,1.4936467767299997,3.9048673971800008,0.941269212432,27,0,1
bj,1,1,3,1,0.293582326252,0.458292185518,0.858967029009,28,0,1
bj,2,2,3,2,0.422983795361,0.42296916504,0.423649090633,29,0,1
bj,1,1,2,1,1.7641466683400002,0.999302363998,1.22355999959,30,0,1
bj,1,1,2,1,1.4702370845800001,1.15222633284,0.717553284252,31,0,1
bj,1,2,3,2,1.04654025286,0.940451453658,0.553033234348,32,0,0
bj,1,1,2,2,0.481973308881,0.481598310274,0.9176057994769999,33,0,1
bj,1,1,2,1,1.6230043548299997,0.46989750680200004,1.40002456357,34,0,1
bj,2,1,3,2,0.564270487201,0.634646251958,0.42361559486,35,0,0
bj,2,2,2,1,0.43453444538999997,0.646414046962,2.4354642417299996,36,0,1
bj,2,2,3,2,0.446623337775,1.35221147149,0.96478747706,37,0,1
bj,2,1,2,2,0.293608121836,0.740544856802,1.22358348513,38,0,0
bj,2,1,2,1,1.84650621808,1.340422886,1.3646980780000002,39,0,0
bj,2,1,3,2,0.492743931012,0.30599963114900003,0.976585302749,40,0,0
bj,1,1,2,1,0.681933421962,1.48158945507,6.48196868878,41,0,1
bj,1,2,3,1,0.6349531039890001,0.38741090415,0.411834324535,42,0,0
bj,2,1,2,1,0.634820660969,0.646331270065,1.30593879976,43,0,0
bj,1,2,3,2,0.328950777781,0.269948558969,1.35291757769,44,0,0
bj,1,1,2,1,0.552478436613,3.38730541173,2.1764591738599997,45,0,1
bj,1,1,1,2,3.0111082748799998,0.658133330871,5.85849616319,46,0,1
bj,2,2,2,2,0.54070217142,1.3169223317799998,0.964805187454,47,0,1
bj,2,2,1,1,0.91717805466,1.59923775951,1.00002656561,48,0,1
bj,2,1,1,1,1.3759511161899998,1.06988218345,2.24702590301,49,0,0
bj,1,1,3,2,0.481686862302,0.834400385313,0.376574830516,0,1,1
bj,1,1,2,1,0.552435700636,0.775793570589,0.694199803402,1,1,1
bj,2,2,3,2,0.446577521725,1.0934343288500001,0.6824108329170001,2,1,1
bj,2,2,3,2,0.37602272784,0.564070667606,1.88229009414,3,1,1
bj,2,2,2,1,0.6230316904550001,0.752254900493,0.034597663834599994,4,1,1
bj,2,1,1,1,1.2818387867899999,2.10505697553,3.7645455375,5,1,0
bj,1,1,1,1,1.2818318566299998,1.6462946942299999,2.19994817782,6,1,1
bj,1,1,3,1,0.187788443814,0.564066047504,1.10589359973,7,1,1
bj,2,2,3,2,0.29360889185,0.269944708882,0.31784057786,8,1,1
bj,1,1,3,2,0.38779475794600005,1.78748859893,0.8000656825169999,9,1,1
bj,2,2,1,1,0.999470612849,0.7405121310580001,0.705986848858,10,1,1
bj,1,1,2,2,1.45825830473,0.811086945381,0.553015908954,11,1,1
bj,2,1,3,2,0.411328807939,0.8581076892730001,0.764783857958,12,1,0
bj,2,1,2,2,1.24651615132,0.634495713501,0.7294654575820001,13,1,0
bj,1,1,2,2,0.470203203819,0.705142909501,0.811816537127,14,1,1
bj,2,2,3,2,0.352490987905,0.646394026509,0.752996812502,15,1,1
bj,1,2,3,2,0.375923010564,0.7052383917030001,2.44701489176,16,1,0
bj,1,1,3,2,0.634809495707,0.49350393844400003,0.6235849481600001,17,1,1
bj,2,1,3,2,0.317198383127,0.352306568675,1.11764868945,18,1,0
bj,1,1,2,1,0.905361748519,1.26980264061,0.717774279328,19,1,1
bj,2,1,1,1,0.834800024488,1.22277997169,1.7058574859,20,1,0
bj,1,1,2,1,0.423060027111,1.152234033,0.717714987972,21,1,1
bj,2,1,3,1,0.387802843135,0.799332625698,1.09413234987,22,1,0
bj,1,2,1,1,1.19944035115,0.434716554577,0.435397250199,23,1,0
bj,1,1,3,2,0.328905731745,0.575881198602,4.11745387498,24,1,1
bj,2,1,2,1,1.09363222339,0.905173864216,3.77631910764,25,1,0
bj,2,2,2,1,0.6583038897810001,1.03465580018,1.1410926473799998,26,1,1
bj,1,1,1,1,0.36422875223800005,0.952276229975,5.72909315405,27,1,1
bj,2,1,1,1,2.79931876538,1.5521985352,33.468206548000005,28,1,0
bj,1,1,1,1,2.5405358475799997,1.05813055881,3.6821540320199997,29,1,1
bj,1,1,3,2,0.7054312811229999,0.352163345378,1.69414359212,30,1,1
bj,2,2,2,1,0.48189823215899996,0.516988322299,1.6941074012900001,31,1,1
bj,1,1,2,2,0.576020571796,0.8645973981910001,0.7765320175239999,32,1,1
bj,2,1,1,1,0.9759596633959999,1.41098769011,7.39958026337,33,1,0
bj,1,1,3,1,0.223015212076,1.7874839788099999,0.941305018248,34,1,1
bj,2,2,3,1,0.799290274721,0.9404887995190001,0.600309239089,35,1,1
bj,2,2,2,1,0.75244586487,0.622812620437,2.30583446237,36,1,1
bj,1,1,3,1,0.717189835923,0.7640126852779999,3.4822308797900003,37,1,1
bj,2,2,2,1,2.89345496532,0.999272718313,1.55299973859,38,1,1
bj,1,1,3,1,0.446572131594,0.41109972768799996,1.08242384621,39,1,1
bj,1,1,3,1,0.270720886692,3.69330812295,2.9757278880699998,40,1,1
bj,2,2,3,2,0.905392549234,0.952213858545,1.50589044266,41,1,1
bj,2,1,1,1,0.658360486079,0.316956982584,1.23530007395,42,1,0
bj,2,1,1,1,1.21118427561,0.375921470521,1.36471963848,43,1,0
bj,2,2,2,2,0.458392287808,0.7522129345309999,2.17643607332,44,1,1
bj,1,2,3,2,2.62291079768,0.881708730813,1.40004689408,45,1,0
bj,1,1,3,2,0.611236559824,1.26988580253,0.353078896398,46,1,1
bj,2,2,3,2,0.9045643952269999,0.564849925489,3.31754912616,47,1,1
bj,1,1,3,2,0.552456106103,0.5875966324090001,0.35300227963299996,48,1,1
bj,1,1,3,2,1.85839837094,1.3992845765900002,0.0941327348701,49,1,1
bj,1,1,3,2,0.575794571618,0.481522078524,0.823589722262,0,2,1
bj,2,1,2,1,0.27014760853500003,1.12879777527,0.482417224062,1,2,0
bj,2,1,2,2,10.492952220800001,0.822903251508,1.58823151197,2,2,0
bj,2,1,1,1,0.8112678995389999,1.0228502743,2.36465534201,3,2,0
bj,1,1,3,1,0.399407394405,0.552336368361,1.30599693609,4,2,1
bj,2,1,3,2,0.5995399914389999,0.893419159504,2.16463516754,5,2,0
bj,1,1,2,2,0.6819049313050001,1.0100067646,0.741241337775,6,2,1
bj,1,1,3,2,0.47025980011699997,0.43467728367200004,1.32930383088,7,2,1
bj,1,2,2,2,0.893669415236,0.387516396557,0.305939184764,8,2,0
bj,2,1,1,1,1.4583580220399999,0.6345627050320001,0.6235541474449999,9,2,0
bj,2,2,2,1,0.7288744690160001,0.834559778974,3.7881150082999997,10,2,1
bj,1,2,3,1,0.7171247694349999,0.564029086658,1.14126089624,11,2,0
bj,2,1,2,1,0.493623291186,0.928724084573,2.88229432925,12,2,0
bj,1,2,1,1,3.22287930397,1.11706463105,0.8353617523829999,13,2,0
bj,1,1,2,2,0.352436701665,1.10521790922,1.4941572984399998,14,2,1
bj,2,2,3,2,1.04653062765,0.599363272384,0.72929913376,15,2,1
bj,2,2,2,2,0.858310588927,0.41091954354500004,1.61180637289,16,2,1
bj,2,1,2,1,0.223068343315,0.587829947763,0.788299427528,17,2,0
bj,1,1,1,1,0.9171395537710001,0.8933506279279999,0.8824367825149999,18,2,1
bj,1,2,1,1,1.32889379647,1.2581114623799998,42.1508352959,19,2,0
bj,2,1,3,2,0.41013104545699997,0.45874149083099997,1.17701358658,20,2,0
bj,2,2,2,1,0.47014853255000005,0.6699896779169999,0.211869206338,21,2,1
bj,1,2,1,1,0.823053789965,1.1167901197499999,0.576553039005,22,2,0
bj,2,2,3,1,0.834857775815,0.634390221079,1.34114708762,23,2,1
bj,2,1,3,1,0.517169276456,1.5169151706200001,1.54120768802,24,2,0
bj,1,1,3,1,0.539662262541,0.600320789366,2.48233136709,25,2,1
bj,1,2,1,1,0.752427384446,0.8698993548459999,0.800067222546,26,2,0
bj,1,1,3,1,1.18771875721,0.834618300316,0.788295192426,27,2,1
bj,1,1,3,2,0.39956832809500004,0.46987094118999995,2.0235082543900003,28,2,1
bj,2,2,3,2,0.5760082515039999,0.575789181486,1.18823043395,29,2,1
bj,1,2,3,2,1.50541919183,1.99864977402,2.07036113444,30,2,0
bj,2,2,1,1,0.834826975115,0.963988583724,9.152393811669999,31,2,1
bj,2,2,3,2,0.305401712438,0.375847548828,1.1529397542,32,2,1
bj,2,1,2,1,3.3757705470599997,2.1756906962299998,0.882411756946,33,2,0
bj,1,1,1,2,0.8112844549179999,0.91693318903,4.05866379604,34,2,1
bj,1,1,3,2,0.39955254273100005,0.31700241362,0.376520929261,35,2,1
bj,1,1,2,1,2.15235839087,0.752178668743,3.09403840771,36,2,1
bj,2,2,2,2,0.423107383205,0.540487336475,1.45882426773,37,2,1
bj,2,2,2,2,0.423052326936,0.35228192810599995,0.5530236091290001,38,2,1
bj,1,2,1,1,5.728580707280001,3.22264021348,1.01182246626,39,2,0
bj,2,1,1,1,3.19929096774,1.32867934655,1.83532517654,40,2,0
bj,1,1,3,2,0.952471044438,1.71692725988,4.50565019714,41,2,1
bj,1,1,2,2,1.16427017917,0.9286601731,1.5529181167100001,42,2,1
bj,1,2,2,1,1.36416253071,2.6227367736900002,2.91753149276,43,2,0
bj,2,2,3,2,0.481865121401,0.387549122315,0.635422429768,44,2,1
bj,1,1,2,2,4.2933940569199995,2.75203814052,0.5530224541,45,2,1
bj,1,2,1,1,1.83976740847,1.3286520109200002,2.20667428215,46,2,0
bj,2,1,1,2,0.764217894975,3.2344515144800003,13.1638439744,47,2,0
bj,2,2,2,2,0.7759525792209999,0.340546088832,0.411902086096,48,2,1
bj,2,2,1,1,1.51722471773,0.952163807407,0.8471145320360001,49,2,1
bj,1,2,1,1,0.846386480334,0.610582044799,0.7177392435259999,0,3,0
bj,1,2,3,1,0.352454797074,0.411047366491,0.6824812895360001,1,3,0
bj,1,1,1,1,0.364463222606,0.281386016402,0.635408184447,2,3,1
bj,2,2,3,2,0.281739069513,0.364176776042,1.48235831771,3,3,1
bj,2,2,2,2,0.48189515207199995,0.740511361029,3.0116311168700003,4,3,1
bj,1,2,2,2,1.03481018872,0.469909057065,1.3412032989,5,3,0
bj,2,1,2,2,0.528903960701,2.02274747695,1.60002818264,6,3,0
bj,2,2,3,2,0.481934037976,0.846345284401,0.611812918054,7,3,1
bj,2,1,1,1,0.787743474764,2.26960590111,2.7881904700300004,8,3,0
bj,1,2,2,2,0.634850691655,0.66997042748,3.8233548668800004,9,3,0
bj,1,1,2,2,0.41130878747199995,1.31679797394,0.447156189999,10,3,1
bj,1,2,3,2,0.740736976208,0.27007060677,0.7177138329430001,11,3,0
bj,2,2,1,1,2.5169933274200003,2.09332691139,0.635400484258,12,3,1
bj,2,1,2,2,1.0818374777600002,2.37568777015,0.888294306904,13,3,0
bj,2,1,3,2,0.435798044389,0.481663761777,0.952026359242,14,3,0
bj,2,1,2,1,0.646641587184,2.98735053476,1.75288862502,15,3,0
bj,1,2,1,1,1.26999938014,0.375850243887,2.72939923606,16,3,0
bj,1,1,2,2,0.42310815321999995,1.34043443626,1.3176553886,17,3,1
bj,1,1,2,2,0.400495429378,0.41112205819799996,0.493284483411,18,3,1
bj,2,2,3,1,0.764237145413,2.66976098267,1.64706702196,19,3,1
bj,1,1,2,2,1.3641644557600001,0.587563521651,3.7998427624,20,3,1
bj,1,1,2,2,0.446599852236,0.44645739896799996,0.505925478457,21,3,1
bj,2,2,1,1,1.4700276397799998,1.16399412784,0.44718160058300005,22,3,1
bj,1,1,1,1,0.8818970001299999,0.9757636939030001,14.3048861856,23,3,1
bj,1,1,2,1,0.9877840546979999,0.799369971544,0.5059512740550001,24,3,1
bj,2,2,1,1,0.9876570017799999,1.48161371062,1.6589071986200001,25,3,1
bj,2,2,2,2,0.258375193414,0.75225990561,0.85886654169,26,3,1
bj,2,2,3,2,0.35251562847400003,0.305102175567,0.717702667695,27,3,1
bj,2,2,2,1,1.04656181336,0.858138875003,0.0824785174773,28,3,1
bj,1,1,3,2,0.270107182616,0.622871141779,0.564819124775,29,3,1
bj,1,1,2,2,0.470098096397,0.728724315588,0.541283919767,30,3,1
bj,1,1,2,1,0.37604775342299995,0.669896120758,0.364177931056,31,3,1
bj,2,2,3,2,0.44658753194399997,0.552282467121,0.6118198482,32,3,1
bj,1,2,1,1,0.634867247034,0.728685814698,1.17649998479,33,3,0
bj,2,2,2,2,0.30544021332800003,0.43463493269500003,0.835344426989,34,3,1
bj,1,1,2,2,0.7406950102600001,0.9640286246430001,0.505927403516,35,3,1
bj,1,1,2,1,2.30524963395,1.70515253472,0.9882606956380001,36,3,1
bj,2,1,1,1,1.62293274319,0.7757369742899999,150.447380265,37,3,0
bj,2,1,1,1,0.375988847067,1.0464324503799998,0.8942107376639999,38,3,0
bj,2,2,3,2,0.16424130351500002,0.528861994739,0.7882805620899999,39,3,1
bj,2,2,2,1,0.8818889149410001,0.23457356228,0.341252195038,40,3,1
bj,1,1,2,2,1.71711321917,0.646353215576,0.5763158735639999,41,3,1
bj,2,1,2,1,0.764207114727,3.64617110639,3.7645867334400003,42,3,0
bj,1,2,1,2,0.823032614484,3.1991242589099995,1.34122100931,43,3,0
bj,2,1,1,1,1.5994448942700001,1.5992373745100001,1.8941175655200002,44,3,0
bj,2,2,3,2,0.42306926733000005,0.39965380005,0.411868975338,45,3,1
bj,1,1,2,1,0.47012389199500004,0.705169860128,3.31746211417,46,3,1
bj,1,1,2,1,1.55234445355,0.540513517073,0.811881988644,47,3,1
bj,1,1,2,1,0.328994668787,0.705201045828,1.09415468038,48,3,1
bj,2,2,1,1,0.61133473707,2.25793666835,0.635395094141,49,3,1
bj,2,2,1,1,0.810763537971,0.587186212986,0.41177772823700004,0,4,1
bj,2,1,3,2,0.29369474882,0.528777677799,0.541257354154,1,4,0
bj,1,2,1,1,0.599513040826,0.705209901047,0.164796871264,2,4,0
bj,1,1,3,1,0.199539298424,0.44633997126900005,0.623572242868,3,4,1
bj,2,2,2,1,0.44630532048199995,0.775813591055,0.7062012987880001,4,4,1
bj,2,2,2,1,1.0818455629500001,2.52859672364,1.0588351249799999,5,4,1
bj,2,1,1,2,0.44645316386600004,2.06976437074,1.7413310448500001,6,4,0
bj,1,2,2,1,0.905398709365,2.52857323812,0.8824059818000001,7,4,0
bj,1,1,3,2,0.7053612095039999,2.05809090289,3.7292837334099995,8,4,1
bj,1,2,1,1,0.48186550641500003,0.7404948056499999,0.58834970968,9,4,0
bj,2,2,1,1,1.61121076424,0.952248509348,1.32944551413,10,4,1
bj,1,1,2,2,0.376046983394,0.42284596221,0.7294731577570001,11,4,1
bj,1,1,1,1,0.8465735946230001,2.09332075126,0.5412723694899999,12,4,1
bj,1,2,1,1,0.7289845815389999,0.940434513264,0.8706054610519999,13,4,0
bj,2,2,1,1,1.5994660697499998,0.858161975528,0.411840869696,14,4,1
bj,1,2,3,1,0.37599231214,0.6934617414659999,0.658899113434,15,4,0
bj,2,2,3,1,0.41136961887199996,0.411031966127,0.6941982633730001,16,4,1
bj,2,1,2,1,0.505560105084,0.787654152722,0.823418393338,17,4,0
bj,1,1,2,1,0.434786241167,0.634620841374,0.741308329321,18,4,1
bj,2,1,1,1,0.58779491196,0.987504538294,4.446827777469999,19,4,0
bj,2,2,2,1,0.893618594084,1.95209912591,0.988337312403,20,4,1
bj,1,2,2,1,0.411292617122,1.05830227275,0.600108649494,21,4,0
bj,1,1,2,1,0.258331687408,1.2228200126100002,0.42364755059,22,4,1
bj,2,2,3,1,6.846114664090001,5.4107124088,1.68229148019,23,4,1
bj,2,2,1,1,1.693571469,20.2685197912,4.76446776572,24,4,1
bj,2,1,2,1,0.517153491091,0.469937162721,0.400108880494,25,4,0
bj,1,1,2,1,0.540727196989,0.575793416574,0.705926787501,26,4,1
bj,1,2,3,1,2.23474181115,0.5404415204249999,0.564842995329,27,4,0
bj,1,2,3,1,1.24649998095,0.6817520828039999,0.9412083810169999,28,4,0
bj,2,2,3,1,0.446614482571,0.305191497609,1.10592517046,29,4,1
bj,1,1,3,1,0.481909397407,0.646358990707,0.435377999747,30,4,1
bj,2,1,3,2,0.6819064713490001,0.611061380798,0.764755752316,31,4,0
bj,2,2,1,1,1.2816720779700002,1.0465144572799998,0.9177367024680001,32,4,1
bj,1,1,2,1,0.42319285516000005,0.505320244571,1.11758862807,33,4,1
bj,1,2,1,1,1.46997681861,0.964030164672,1.24712754534,34,4,0
bj,2,2,3,1,0.399145973395,0.9875726848549999,0.659140898977,35,4,1
bj,1,1,3,1,0.44659446211900006,0.528778447828,0.341261820242,36,4,1
bj,1,2,3,2,0.42310045303000005,0.881676390069,0.647108217905,37,4,0
bj,2,2,3,2,0.446611787513,0.375800192734,0.517726769234,38,4,1
bj,2,2,3,2,0.493642926638,0.376123600159,0.941210306075,39,4,1
bj,2,1,2,1,3.24642220917,2.09329726572,1.01183093646,40,4,0
bj,2,1,3,1,1.49591178368,0.679334997345,0.305971140508,41,4,0
bj,1,1,2,2,0.470250944898,1.2697999455600002,0.917698201592,42,4,1
bj,2,2,1,1,2.10525872017,1.70513174424,0.9294856320479999,43,4,1
bj,1,1,2,1,1.8111354565,1.71692802991,0.65887447288,44,4,1
bj,1,1,1,1,0.6702106729789999,0.293473368743,0.647034681198,45,4,1
bj,2,2,1,1,2.03469199101,1.10515168771,192.785241302,46,4,1
bj,1,1,2,1,0.31720146318500003,0.964014379308,0.516425054375,47,4,1
bj,1,1,2,1,0.470676379671,0.552111908211,0.434856697786,48,4,1
bj,2,2,3,2,0.35245903217600005,0.375809047939,1.01178165532,49,4,1
bj,1,1,2,2,0.48164951645599996,0.31675215787300004,1.0353403458900001,0,5,1
bj,1,2,1,1,0.317183367777,0.340967288503,1.1176829552399998,1,5,0
bj,2,1,2,1,0.39950326160800004,0.44644738873499995,2.79995672501,2,5,0
bj,2,2,2,2,0.211254732247,0.317050924743,0.941230711542,3,5,1
bj,1,1,3,2,0.328970028204,0.38758646817599995,0.7294727727420001,4,5,1
bj,2,1,2,1,0.18775764309999998,0.481835090701,0.5647829339429999,5,5,0
bj,1,2,1,1,0.728872543987,0.622816855539,0.9295210528650001,6,5,0
bj,2,1,3,1,0.717207931346,1.42276857543,0.847115302051,7,5,0
bj,2,2,2,2,0.434872098151,0.787513624498,1.90587265525,8,5,1
bj,1,2,2,2,0.34064272604900003,0.834727642825,1.0941554504000002,9,5,0
bj,1,2,2,1,0.870128435097,2.91679959097,4.952697044630001,10,5,0
bj,1,1,1,1,0.8103207778039999,0.764911680904,0.953040087508,11,5,1
bj,2,2,1,1,1.6229419834099998,0.575813052041,0.658893338303,12,5,1
bj,2,2,2,1,0.328985428569,0.846336429182,0.6236088187,13,5,1
bj,2,2,3,2,0.293650857813,0.646414816991,0.9647559063310001,14,5,1
bj,2,2,1,1,0.62299164955,0.728800162324,1.35298649428,15,5,1
bj,2,2,2,2,0.211248187086,0.328796774236,0.823607047671,16,5,1
bj,1,2,3,2,0.25834208267,0.411168644263,0.423369574215,17,5,0
bj,1,1,2,2,0.387746631852,0.5640595023430001,0.494191179212,18,5,1
bj,1,1,2,2,0.387528331834,0.669975047582,0.38856246556699997,19,5,1
bj,1,1,2,1,0.305378226913,0.728787842032,0.788334848345,20,5,1
bj,2,1,2,2,0.517176591617,0.446397722597,0.811809221952,21,5,0
bj,1,1,2,2,0.41124179594000004,0.422906793596,0.235409031462,22,5,1
bj,1,1,2,1,0.7877504049390001,0.458058870165,0.7413233446709999,23,5,1
bj,2,2,1,2,0.293707069111,1.32854882855,0.364881342204,24,5,1
bj,2,2,3,2,0.28190269824700004,0.44643737851599996,0.835330181653,25,5,1
bj,2,1,1,1,1.54064750015,219.582448679,1.6353019219999998,26,5,0
bj,2,2,1,1,1.3642179719799998,0.528673340406,0.647095127599,27,5,1
bj,1,1,2,1,0.165199205498,0.505250942981,0.8226148798999999,28,5,1
bj,1,1,2,1,0.128959478985,0.493492773196,0.635379693791,29,5,1
bj,1,1,1,1,0.282069792083,0.8578474233069999,0.635406644404,30,5,1
bj,2,2,1,1,0.941496367624,0.599318996377,0.9168338567540001,31,5,1
bj,1,1,1,2,1.55287230066,0.469928692517,0.6937170023450001,32,5,1
bj,2,2,3,2,0.364244152574,0.48170226265199995,2.07056133903,33,5,1
bj,1,1,2,1,0.399462450659,0.599346332005,1.3646819076199999,34,5,1
bj,1,1,1,1,0.623048245834,0.611094876571,0.717760804007,35,5,1
bj,1,1,1,1,1.07008277305,0.434615297258,0.8469320378499999,36,5,1
bj,2,1,1,1,1.09367226431,0.705116728903,1.30587989342,37,5,0
bj,2,2,1,1,1.41117364938,0.622831485874,1.68239812762,38,5,1
bj,2,2,2,2,0.258318212116,0.458178992922,0.576564204253,39,5,1
bj,1,2,2,1,0.376044288336,1.03366363241,0.65888987323,40,5,0
bj,2,2,3,1,0.43479663641500005,0.552275921975,0.447144639737,41,5,1
bj,1,1,2,1,0.317105210983,0.540603994159,0.905954277114,42,5,1
bj,2,2,2,2,0.258334382481,0.39948285614100004,0.541222703352,43,5,1
bj,2,2,3,2,0.776170494239,0.257932048247,0.447150799882,44,5,1
bj,2,2,2,2,0.21125742730500002,0.352355079784,0.505981304741,45,5,1
bj,1,1,3,1,0.48184548594899995,1.31689769123,0.447166200232,46,5,1
bj,2,1,3,2,0.364272643244,0.493379195585,1.3411763482899999,47,5,0
bj,1,2,2,1,0.37597575676,0.55230633766,3.59987841421,48,5,0
bj,1,1,2,2,0.364204496669,0.44644122860299995,0.35304655565399995,49,5,1
bj,1,1,3,2,0.211092258513,0.234390298079,0.40010772546499995,0,6,1
bj,1,1,3,2,1.1406217815700002,0.211072238046,0.411849724886,1,6,1
bj,2,2,3,2,0.6229154178,0.340397860433,0.635493271388,2,6,1
bj,2,2,3,1,0.717183675777,0.258161898528,0.31772969530699996,3,6,1
bj,2,2,3,2,0.211362149712,0.352319273967,0.611815998112,4,6,1
bj,1,1,3,1,0.18772337731199998,0.375916465404,0.9294983373260001,5,6,1
bj,2,2,3,2,0.305361286519,0.528852754534,0.529488019107,6,6,1
bj,1,1,3,2,0.58773408056,0.51711768526,0.48242800431,7,6,1
bj,2,1,2,1,0.223111464293,0.281650902471,0.8471002867149999,8,6,0
bj,1,1,2,2,0.175950192177,0.8110896404539999,0.670743525217,9,6,1
bj,2,1,1,1,1.08175624089,2.22263905845,13.058001965899999,10,6,0
bj,2,2,1,1,1.4229837953600002,0.458167827659,2.4352628820900004,11,6,1
bj,2,2,1,1,0.987723993327,0.516921330753,0.7530295382600001,12,6,1
bj,1,1,1,1,0.422989955507,0.434656493191,0.811403422646,13,6,1
bj,1,1,1,1,0.575978990833,0.446455473924,0.517721379118,14,6,1
bj,2,2,3,2,0.352428231461,0.21121276628400001,0.635313857274,15,6,1
bj,1,1,3,2,0.246605473352,0.246409118859,0.44712461927,16,6,1
bj,1,1,3,2,0.234791477298,0.293539975275,0.5765622792239999,17,6,1
bj,2,2,3,2,0.234843453494,0.222903174508,0.505972064522,18,6,1
bj,1,1,3,2,0.19956085892,0.316997408503,1.15298133515,19,6,1
bj,1,2,3,2,0.223083358651,0.246457244968,1.16476992065,20,6,0
bj,2,2,3,2,0.293689743703,0.269915448211,0.223631996225,21,6,1
bj,1,1,2,2,0.199452286426,0.47034065196900005,0.40011311559600005,22,6,1
bj,1,1,3,2,0.187778433567,0.24644877476399998,0.5412673643729999,23,6,1
bj,1,1,3,2,0.211135379504,1.26996703939,0.35305117577100004,24,6,1
bj,2,2,2,1,0.481730368308,0.9640120692640001,0.6119357358690001,25,6,1
bj,1,1,1,1,0.246521156427,0.25823043008900004,0.423679121319,26,6,1
bj,2,1,2,1,1.16424245854,0.611030580098,0.7059217823839999,27,6,0
bj,2,1,1,1,1.0583580990399999,0.281626261916,0.929452136275,28,6,0
bj,2,1,1,1,0.423092752855,0.599332856698,0.800055287269,29,6,0
bj,2,2,1,1,2.10525872017,2.78742276241,2.1528950931799997,30,6,1
bj,1,1,1,1,0.646549955083,0.469979513684,1.4705808974799999,31,6,1
bj,1,1,1,1,1.57590121905,0.305228843485,13.387348532699999,32,6,1
bj,1,1,1,1,0.405861682506,0.39933616777099995,0.323201055842,33,6,1
bj,2,1,1,1,0.35244286181100004,0.5641160986420001,0.764828903993,34,6,0
bj,1,1,3,1,0.258302811751,1.0699996111499999,0.705967983435,35,6,1
bj,2,2,3,2,0.27019111454100003,0.458094675982,0.270696631123,36,6,1
bj,2,2,1,1,0.787376946362,0.587593167336,1.3768308613799998,37,6,1
bj,1,1,3,1,0.387186829001,0.6587435698749999,0.62359303335,38,6,1
bj,2,2,1,1,2.76406350643,0.552287087223,1.2353247145200001,39,6,1
bj,2,1,1,1,1.30538900715,0.528667565275,1.39998298261,40,6,0
bj,2,2,3,2,1.22302021721,0.269938548736,0.870629331592,41,6,1
bj,1,1,3,2,0.6465923060600001,0.399302286984,1.4823744880899998,42,6,1
bj,1,1,1,1,1.17596405248,0.716949205394,0.494175008847,43,6,1
bj,2,2,3,2,0.7760161056939999,0.24635367759,0.7177099828550001,44,6,1
bj,2,2,3,2,0.870106489587,0.481734603411,0.917727462249,45,6,1
bj,1,2,3,2,0.623077891534,0.38756182760700003,3.3410327400099997,46,6,0
bj,2,2,3,1,0.493707993126,0.269877332335,0.9059069210340001,47,6,1
bj,1,1,1,1,0.8465797547689999,0.6810221060439999,0.78832599314,48,6,1
bj,1,2,1,1,2.1052467848900003,0.317025899159,0.7060041742659999,49,6,0
bj,2,1,1,1,0.658129480784,0.716739375581,0.447160425087,0,7,0
bj,2,2,1,1,2.41321496622,0.36221746608499994,1.03533572578,1,7,1
bj,1,1,2,1,0.5524453258550001,2.82244432098,1.4235624636500002,2,7,1
bj,1,2,2,1,1.02302468331,0.952258904581,0.45895324567400003,3,7,0
bj,2,2,2,1,0.740809357871,0.575685614109,1.3764581728299998,4,7,1
bj,1,2,1,1,1.48180351999,0.8581215496089999,0.38831875498,5,7,0
bj,1,1,1,1,1.0818655834,0.43459566180500003,2.18819578315,6,7,1
bj,1,1,3,2,0.47023515954800005,2.17572303697,1.4939867395299997,7,7,1
bj,2,1,2,2,0.469998379107,0.528837739184,1.27069624612,8,7,0
bj,2,1,1,1,0.740686540055,0.59933054664,0.670685003861,9,7,0
bj,1,1,1,2,1.32877020864,1.31684378999,1.51776604015,10,7,1
bj,1,1,3,2,0.36425069773400004,0.281190431924,0.341252965052,11,7,1
bj,2,1,1,1,2.29356692589,0.57576069083,0.9647405059659999,12,7,0
bj,1,1,3,2,0.38765653978,0.669092607335,0.670687313919,13,7,1
bj,1,1,3,2,0.39947169087800005,0.576047522409,0.7177604190219999,14,7,1
bj,1,1,1,2,0.387782437669,0.952233493997,0.7882986575130001,15,7,1
bj,2,1,1,2,0.281866122416,0.38756644770900006,0.553040164508,16,7,0
bj,2,1,1,1,0.351437603735,0.318050407659,0.423626760123,17,7,0
bj,2,1,1,1,0.705373529796,0.540513517073,0.482432624412,18,7,0
bj,2,2,2,1,0.42305194192199996,0.446411967918,0.494235070233,19,7,1
bj,2,2,3,2,0.21133442907000002,0.24647688042,0.623595343393,20,7,1
bj,1,2,1,1,0.305354741358,0.446380782203,0.541261974256,21,7,0
bj,1,1,3,2,0.470047660245,0.29348761407900004,0.776565513297,22,7,1
bj,1,2,2,2,1.12894561866,0.7286723393919999,1.0117905105299998,23,7,0
bj,2,1,1,1,0.446586376915,0.5993367067859999,0.764816968716,24,7,0
bj,1,1,3,2,0.576003631402,1.45802267933,0.388384976497,25,7,1
bj,2,1,1,1,0.611321261764,0.681703571681,0.882353235589,26,7,0
bj,1,1,1,1,1.01013535756,0.45917270072099997,0.035488959300000004,27,7,1
bj,2,1,1,1,3.1515564174599997,90.4989448833,0.78832753317,28,7,0
bj,2,2,1,1,0.75249206592,0.799296049838,0.6824046727709999,29,7,1
bj,2,2,3,2,0.281851877095,0.364108629481,0.835372917631,30,7,1
bj,1,1,1,1,0.176006403461,0.22280114717399999,0.917731312336,31,7,1
bj,2,2,2,2,0.211314793618,0.281814916234,0.541243878833,32,7,1
bj,1,1,3,2,0.623081741607,0.6817228221330001,1.2117775742399999,33,7,1
bj,2,1,2,2,0.7877369296179999,0.787521709688,0.964774386739,34,7,0
bj,1,1,2,2,0.411314947632,0.387618038905,0.517699818636,35,7,1
bj,2,1,2,2,1.24640295871,0.44654056087899996,0.9177035917090001,36,7,0
bj,1,1,2,1,0.42316898460600005,0.563965945199,0.76474073698,37,7,1
bj,2,2,1,1,0.693611509909,1.2463944885200002,0.800082622896,38,7,1
bj,1,1,1,1,0.43483359726099996,0.257468497613,0.47068677490500005,39,7,1
bj,1,2,1,1,1.2818961531200002,0.693340848709,0.7059837687989999,40,7,0
bj,1,1,1,1,0.48122254165399997,0.505920858355,1.45881310246,41,7,1
bj,2,1,1,1,0.411261046378,0.528755347303,0.764780777899,42,7,0
bj,1,1,1,1,0.39958449846,0.28161971677,0.576551113976,43,7,1
bj,1,1,1,1,1.4347107794299998,1.06990297392,0.23541942669500002,44,7,1
bj,2,2,1,1,0.681909166407,1.55150821435,0.729513198676,45,7,1
bj,2,2,1,1,0.7055956799009999,0.893218569909,1.47059244775,46,7,1
bj,2,2,3,2,0.5407071765370001,0.340530303467,0.658892953288,47,7,1
bj,2,2,3,2,0.17596058741,0.222942060398,0.682433548427,48,7,1
bj,1,1,3,2,0.564377519651,0.540501581811,0.5650420448800001,49,7,1
bj,1,1,2,2,0.34088181653399996,0.351648203563,0.45890511958,0,8,1
bj,2,1,1,1,0.881932035933,0.9168538772210001,0.6588648476460001,1,8,0
bj,2,2,3,2,0.446589457002,0.18762134996399998,0.40011581065499996,2,8,1
bj,2,2,3,2,0.305435978225,0.269925073429,0.905945421924,3,8,1
bj,2,2,3,2,0.093715000301,0.105185183464,0.494210429664,4,8,1
bj,1,1,2,2,0.42311662340899997,0.564010606235,0.517683648242,5,8,1
bj,2,2,3,2,0.246679010044,0.25807642655900004,0.588267317798,6,8,1
bj,1,1,3,2,0.30544021332800003,1.8463398942700002,0.635370068572,7,8,1
bj,1,1,2,2,0.434682288789,0.38773893166199996,0.9059504270409999,8,8,1
bj,1,2,3,2,0.62302399028,0.446443153633,0.658915283813,9,8,0
bj,2,1,1,1,0.446557501258,1.08160647246,6.070299148019999,10,8,0
bj,1,1,1,2,2.32884913545,0.481607165479,0.37661448641999995,11,8,1
bj,2,2,1,1,2.0582260409999997,0.42282247666999995,0.7295439993899999,12,8,1
bj,2,2,3,2,0.305409797627,0.44642082312200004,1.9764705701099998,13,8,1
bj,1,1,2,1,0.31715872720800004,0.692858047623,0.858895032346,14,8,1
bj,2,1,2,1,0.458403838071,0.19929443280900003,0.08243462647080001,15,8,0
bj,2,2,2,2,0.28175369984799997,0.56417269494,0.423732637544,16,8,1
bj,1,1,1,1,0.964372822535,0.77575237464,3.31733891135,17,8,1
bj,1,1,3,2,0.258339002597,0.705214906149,1.21179104954,18,8,1
bj,1,1,3,2,0.434271869366,0.7410049423489999,0.6824658891859999,19,8,1
bj,1,1,3,2,0.38775972215800003,0.399346178005,0.37659023086599996,20,8,1
bj,1,1,1,1,1.58769519467,0.552267451771,1.69407852563,21,8,1
bj,1,1,2,2,0.48190554732,0.375851783931,0.364786245016,22,8,1
bj,2,2,2,1,0.305387082102,0.5170899646329999,1.01182131124,23,8,1
bj,1,1,2,1,0.187790753858,0.634511498865,0.43537414966000004,24,8,1
bj,1,1,3,2,0.834817349882,0.834585189557,0.623599963496,25,8,1
bj,2,1,1,1,1.10532994679,0.693408610256,0.41193981697099996,26,8,0
bj,2,2,3,1,0.83481311478,0.671292162791,0.576516463174,27,8,1
bj,2,2,2,1,0.258278556197,0.6229546886899999,0.37661025133299997,28,8,1
bj,2,2,3,1,0.99965387705,0.399321922436,0.658752810094,29,8,1
bj,1,1,2,2,1.8465439489500002,0.681636965164,0.317707749797,30,8,1
bj,1,1,1,1,1.12890172764,0.634629311564,0.953023147114,31,8,1
bj,1,1,1,1,1.83473880807,0.29342909273699996,1.35295107347,32,8,1
bj,1,1,1,1,7.97542257607,0.587592012307,1.28235854872,33,8,1
bj,2,1,1,1,1.1286264463299998,0.505240162733,0.776737997265,34,8,0
bj,2,2,2,1,0.587677099247,0.43471616956200004,2.12941686947,35,8,1
bj,2,2,3,2,0.37596420649800005,0.811063844871,1.15305756692,36,8,1
bj,1,2,3,1,1.11678511463,0.23460859809700002,0.282781288421,37,8,0
bj,2,2,3,2,0.317155262135,0.375857944062,1.65881248645,38,8,1
bj,2,2,1,1,1.7170450726100002,0.37580789291,0.917738627511,39,8,1
bj,2,2,3,2,0.270069451755,0.258248140497,1.62350794639,40,8,1
bj,2,1,1,1,0.5760090215339999,0.7993222304500001,1.58813525976,41,8,0
bj,1,1,3,2,0.446567126477,0.528803088397,0.564798719308,42,8,1
bj,2,2,3,2,0.24661586859999998,0.23459704783500002,0.564812579614,43,8,1
bj,1,1,3,2,0.17596867260000001,0.37589991002499995,0.411863200206,44,8,1
bj,1,1,3,2,0.199339863844,0.140496268679,0.329750056117,45,8,1
bj,2,2,3,2,0.128961019014,0.199333318713,0.5295269049970001,46,8,1
bj,1,1,2,1,0.22327547805599998,0.24640449875700002,0.364616456136,47,8,1
bj,1,1,3,1,0.187760723173,0.399365428428,0.49418732913900004,48,8,1
bj,2,1,1,1,0.235364370441,0.822905176552,3.28164820741,49,8,0
cm,2,2,1,1,1.4345968359999999,1.728381116,1.117686963,0,0,1
cm,1,2,2,2,0.328974714,0.9752885790000001,0.647125067,1,0,0
cm,2,2,1,1,1.175921755,1.7992409280000001,0.600120429,2,0,1
cm,2,1,1,1,1.128921352,0.999305839,2.505815856,3,0,0
cm,2,2,2,2,0.3525061,1.081624882,0.611842617,4,0,1
cm,1,1,1,2,0.35252535100000004,1.599283047,0.65886073,5,0,1
cm,1,1,1,2,0.45835653,0.78757418,0.564779844,6,0,1
cm,1,1,2,1,1.516994805,1.258199218,0.917704442,7,0,1
cm,1,1,3,2,0.505367328,1.058155866,1.059817924,8,0,1
cm,2,2,2,2,0.434780483,0.7993598940000001,0.894184221,9,0,1
cm,1,1,2,2,0.38768690899999997,0.622906835,0.6353474379999999,10,0,1
cm,2,2,1,1,1.07004168,0.940466593,0.353087455,11,0,1
cm,2,2,3,2,0.434837463,0.975767523,1.247097269,12,0,1
cm,1,2,1,1,1.5053630930000002,0.7757665220000001,0.32954336300000003,13,0,0
cm,2,2,2,1,0.6465675820000001,5.11665092,0.588363206,14,0,1
cm,2,2,1,1,1.328831108,1.093409826,1.247100735,15,0,1
cm,2,2,2,2,0.399679369,1.1637810690000001,0.682473737,16,0,1
cm,1,1,1,1,0.540714458,1.164079446,0.776543843,17,0,1
cm,1,2,1,1,0.740699674,1.34044434,0.341309442,18,0,0
cm,1,1,1,1,1.611126896,2.664686981,0.353112095,19,0,1
cm,1,1,2,1,0.658374471,0.869862038,1.1284778290000002,20,0,1
cm,1,1,3,2,0.528903719,1.105218639,0.600069224,21,0,1
cm,1,1,2,2,0.387885186,0.964066895,1.117566842,22,0,1
cm,2,1,1,1,1.9288318009999998,1.058144316,0.282440165,23,0,0
cm,2,1,2,1,0.728892785,0.916952916,0.7530490320000001,24,0,0
cm,1,1,1,2,0.24660331100000002,0.799297138,0.388367595,25,0,1
cm,2,1,3,2,1.293565983,1.081653373,0.400104413,26,0,0
cm,2,2,1,2,0.328930438,1.128939832,0.482455026,27,0,1
cm,2,2,2,2,0.28183956,0.7993652840000001,0.44719105600000003,28,0,1
cm,1,1,1,1,1.775908588,1.352203488,0.411864716,29,0,1
cm,2,2,3,2,0.928876076,0.8346307940000001,1.3882990640000001,30,0,1
cm,1,1,2,2,0.587747201,0.999308535,0.458949434,31,0,1
cm,2,2,1,1,0.893592086,0.928725155,0.31777690000000003,32,0,1
cm,2,2,2,1,1.270093887,1.387547923,1.247056459,33,0,1
cm,1,2,1,1,0.5877645260000001,0.8463418159999999,2.0117391280000003,34,0,0
cm,1,2,2,1,0.7289570809999999,1.234572735,0.62361139,35,0,0
cm,1,1,3,2,1.0112624940000001,0.6463654560000001,2.623475099,36,0,1
cm,1,1,3,2,0.375967416,0.540533506,1.6823967359999998,37,0,1
cm,2,2,3,2,0.881865663,0.916869371,0.564837979,38,0,1
cm,2,2,3,2,0.517184226,1.1993153109999999,0.976500569,39,0,1
cm,1,2,2,1,1.0700886509999998,1.081645672,0.36480001799999995,40,0,0
cm,1,1,3,1,0.775830047,0.552288035,0.517467589,41,0,1
cm,1,1,2,2,0.399503038,1.7052189469999999,0.38838261,42,0,1
cm,1,1,2,2,0.752429562,0.8464099620000001,1.129477297,43,0,1
cm,2,2,3,2,0.44659160600000003,0.740507557,0.576585962,44,0,1
cm,2,2,2,1,0.999559942,0.999568797,0.294212018,45,0,1
cm,2,2,2,1,0.858341207,0.752255925,0.811840538,46,0,1
cm,2,2,2,2,0.481901006,0.622857939,0.494207629,47,0,1
cm,2,2,3,2,0.505435473,0.7523121359999999,0.929437025,48,0,1
cm,1,1,2,2,0.76419333,0.6816875609999999,0.9059422140000001,49,0,1
cm,2,2,2,1,0.8110786170000001,0.540277094,0.341277871,0,1,1
cm,2,2,3,1,0.7759767329999999,0.975778303,0.588340491,1,1,1
cm,2,1,1,1,1.481840946,0.9639852740000001,0.623571735,2,1,0
cm,1,1,1,1,1.281686329,1.175740419,0.788449677,3,1,1
cm,1,1,2,2,0.846554723,0.7287553390000001,0.411867026,4,1,1
cm,2,2,2,1,0.881862198,0.799376834,1.635288148,5,1,1
cm,1,1,1,2,0.376008997,1.493358697,0.353046645,6,1,1
cm,2,2,1,2,0.387736575,0.7405106370000001,0.388334099,7,1,1
cm,1,1,2,2,0.434798578,0.811104797,0.517750566,8,1,1
cm,1,1,1,2,0.46986273100000003,1.069864579,0.37682943799999996,9,1,1
cm,1,1,1,2,0.26992910600000003,0.375824965,0.37673511299999995,10,1,1
cm,2,2,2,2,0.38774235,1.152264472,0.9412331340000001,11,1,1
cm,2,2,3,1,1.17595756,1.9404411830000001,0.529489694,12,1,1
cm,2,1,3,2,0.434686542,3.705138867,0.529494699,13,1,0
cm,1,1,2,2,0.423096795,1.5286342169999998,0.529524729,14,1,1
cm,2,2,2,2,1.458299164,2.187429496,1.000039655,15,1,1
cm,1,1,2,2,0.728931285,0.705203162,0.553036481,16,1,1
cm,2,1,3,1,0.52901383,2.034430053,2.6822981759999998,17,1,0
cm,1,1,1,2,0.44654810100000003,1.681645595,0.5530857610000001,18,1,1
cm,1,1,1,2,0.44654001600000004,0.5993469579999999,0.600150844,19,1,1
cm,1,1,3,2,2.2817406140000003,0.587676745,3.4704433160000003,20,1,1
cm,2,2,1,2,1.2464855,0.834804045,0.8706112540000001,21,1,1
cm,2,2,2,1,1.470043297,1.92876019,0.435403033,22,1,1
cm,1,1,2,2,0.340642616,1.164059811,0.9882681870000001,23,1,1
cm,1,2,1,1,1.21123847,1.4228049630000001,0.400096713,24,1,0
cm,1,2,1,1,1.481794361,0.92873478,0.917669792,25,1,0
cm,2,2,3,2,0.90537395,1.174881477,1.6706067880000002,26,1,1
cm,1,1,1,2,0.340728472,0.481707735,0.400066683,27,1,1
cm,2,2,2,1,1.270094657,0.869829698,1.153053729,28,1,1
cm,2,2,1,1,0.823057987,2.010990682,0.847112208,29,1,1
cm,2,2,2,1,0.846511603,2.328659011,0.529534739,30,1,1
cm,1,2,1,1,1.046383243,1.399303991,0.94135903,31,1,0
cm,1,2,3,1,1.011239394,1.058092726,0.7765627079999999,32,1,0
cm,1,2,1,1,3.3639071960000004,2.140458354,0.9765444590000001,33,1,0
cm,2,2,3,1,1.4700571580000001,5.6577188110000005,1.070668465,34,1,1
cm,1,1,2,2,0.97601046,1.516866214,0.38831446399999997,35,1,1
cm,2,2,3,2,0.375988592,0.9757921629999999,1.3647183969999999,36,1,1
cm,2,2,2,1,1.140692436,2.57564925,0.917649002,37,1,1
cm,1,1,2,2,0.32914681,1.304786127,0.9647926259999999,38,1,1
cm,2,2,2,2,0.31716051,0.646419356,0.623596375,39,1,1
cm,1,1,2,2,3.5169539939999996,0.893450405,1.10593744,40,1,1
cm,1,1,2,2,0.481775495,0.952242681,0.517823331,41,1,1
cm,1,2,2,1,1.317174755,1.9402251959999999,0.341275946,42,1,0
cm,2,2,2,1,3.728676028,1.2228012670000001,1.152983273,43,1,1
cm,2,2,2,2,0.270198223,1.081659918,0.49422379899999996,44,1,1
cm,2,2,3,2,0.316618811,1.058720666,0.7059250429999999,45,1,1
cm,2,2,1,2,0.540671338,0.411142835,0.705954303,46,1,1
cm,2,2,3,2,0.35246067,1.458197524,0.8706447490000001,47,1,1
cm,1,1,1,2,0.25832087800000003,0.340576781,0.329505633,48,1,1
cm,1,1,1,2,0.21134550100000002,0.328772587,0.37655993600000004,49,1,1
cm,2,2,1,1,0.975713622,1.4696478990000001,0.305998887,0,2,1
cm,2,1,2,1,0.9642028009999999,0.37583151,0.32949985800000003,1,2,0
cm,1,2,2,1,0.470270064,1.704963305,0.635385554,2,2,0
cm,1,1,3,1,0.740685044,1.293369246,0.83538386,3,2,1
cm,2,2,2,2,0.293629508,0.728744559,1.011828449,4,2,1
cm,1,2,2,1,0.646610318,1.199261795,0.294130012,5,2,0
cm,1,1,3,2,0.717168287,0.834593833,0.8353338090000001,6,2,1
cm,1,1,2,2,0.43484554799999997,1.5992637969999999,0.941230439,7,2,1
cm,2,2,3,1,0.469954362,1.175794319,0.376681982,8,2,1
cm,2,2,2,2,1.505394278,2.516763803,0.952783611,9,2,1
cm,1,2,1,1,0.611341343,1.75216237,0.223614008,10,2,0
cm,2,2,2,2,0.29361449300000003,1.14056346,1.211795955,11,2,1
cm,2,1,1,1,0.9642640170000001,1.458031972,0.282430155,12,2,0
cm,1,1,2,2,0.623069691,0.834445992,0.494209554,13,2,1
cm,2,2,1,2,0.258338974,0.9053031090000001,0.36482273299999995,14,2,1
cm,1,1,2,2,0.481917562,0.834560723,0.44714986100000004,15,2,1
cm,1,1,1,2,0.234882278,0.281640513,0.317702594,16,2,1
cm,2,2,2,1,0.693642676,0.82285432,0.270686792,17,2,1
cm,1,1,3,1,0.470207694,1.4933332869999998,0.341244761,18,2,1
cm,2,2,2,2,0.376000912,0.681088881,0.588704318,19,2,1
cm,2,1,1,1,0.90541168,1.293367706,0.235320411,20,2,0
cm,1,2,2,1,0.940689125,1.23455156,4.211572268,21,2,0
cm,2,2,2,1,0.728958236,0.905172593,0.482394195,22,2,1
cm,1,1,3,1,0.352492625,0.9169606159999999,0.364787698,23,2,1
cm,1,2,2,1,0.9759642590000001,0.7993133090000001,0.76476275,24,2,0
cm,1,2,1,1,2.246328033,1.41103773,0.9059826390000001,25,2,0
cm,2,2,3,1,0.340679577,0.869959444,0.9765248240000001,26,2,1
cm,2,2,3,2,0.411307617,1.281593543,0.9059322040000001,27,2,1
cm,1,1,3,1,0.39949110299999996,1.6345628019999998,0.670702654,28,2,1
cm,2,2,2,2,0.234829147,0.881714742,0.37655223600000004,29,2,1
cm,2,2,3,1,1.046464093,0.705144642,0.8825228629999999,30,2,1
cm,1,2,2,1,1.058297547,1.199279505,0.835356909,31,2,0
cm,2,2,3,1,0.44674021799999997,1.3992858959999999,0.894047545,32,2,1
cm,1,1,3,2,0.305440632,1.011062678,0.447187206,33,2,1
cm,1,1,1,2,0.211295066,0.328782982,0.482445016,34,2,1
cm,1,1,1,2,0.24658252,0.340550216,0.341277486,35,2,1
cm,2,2,3,2,0.35248531,0.46993280200000004,0.564799864,36,2,1
cm,1,1,3,1,0.505397358,0.999316235,0.588317775,37,2,1
cm,2,2,1,1,0.611432589,1.281618953,0.36466141700000004,38,2,1
cm,2,2,1,1,0.5400976829999999,0.45830224399999997,0.329979187,39,2,1
cm,1,1,1,1,0.79950042,0.9875528509999999,2.870485743,40,2,1
cm,1,1,2,2,0.540859219,0.458227939,0.411713025,41,2,1
cm,2,2,2,1,1.128937522,1.5168793040000002,0.32942747699999997,42,2,1
cm,1,1,2,1,0.505408138,1.105172054,0.482452331,43,2,1
cm,2,2,2,1,0.375986282,1.2581137470000001,0.7412359829999999,44,2,1
cm,1,1,3,1,0.44659122100000004,1.446331344,0.65889153,45,2,1
cm,2,2,2,2,0.35262006100000004,0.669901847,0.623489729,46,2,1
cm,2,2,3,2,0.446581596,1.2815970079999999,0.635393639,47,2,1
cm,1,1,1,2,0.246572895,0.246551335,0.38830984399999996,48,2,1
cm,2,2,2,2,0.28186035,2.928388277,0.38839108,49,2,1
cm,2,2,1,2,0.328816478,0.822561718,0.682433697,0,3,1
cm,1,1,1,2,0.258392874,0.316972629,0.317756495,1,3,1
cm,2,2,2,1,1.469392257,3.1527149260000003,0.258931108,2,3,1
cm,1,2,2,1,1.164011686,0.634547402,0.470849494,3,3,0
cm,2,2,1,1,0.493682485,1.129271705,3.764528668,4,3,1
cm,1,1,3,1,0.469680625,0.99941364,0.682695114,5,3,1
cm,2,2,3,1,2.1636239880000003,0.552172919,0.98869554,6,3,1
cm,1,1,2,2,0.5062485999999999,0.587830361,0.481500218,7,3,1
cm,2,2,3,1,0.540717538,0.96401569,0.306005817,8,3,1
cm,1,1,2,2,0.481905627,1.422800343,0.611831067,9,3,1
cm,1,1,3,1,2.081802754,0.269875205,0.635348978,10,3,1
cm,2,2,2,2,0.352495705,0.646415506,0.47066969700000005,11,3,1
cm,2,2,3,1,0.5758690870000001,1.987474311,0.330525506,12,3,1
cm,2,2,2,1,1.139739938,1.600057673,0.282551816,13,3,1
cm,2,2,2,1,0.564256625,0.9639717990000001,2.3176302140000002,14,3,1
cm,2,2,2,2,0.352432565,0.58759089,0.58831893,15,3,1
cm,1,1,3,1,0.375974346,0.528760498,0.576576722,16,3,1
cm,1,1,2,2,0.446617017,0.411075845,0.458918249,17,3,1
cm,1,2,2,2,0.34069882700000004,1.1875873479999999,0.6471443170000001,18,3,0
cm,1,1,1,2,0.2465933,0.352323609,0.34130636200000003,19,3,1
cm,2,2,1,1,0.7406823490000001,2.340426245,0.329509868,20,3,1
cm,1,1,1,2,0.31696916399999997,0.22299338300000002,0.32958070899999997,21,3,1
cm,2,1,1,2,0.234824912,0.305242356,0.32952295800000003,22,3,0
cm,1,1,1,2,0.211292371,0.19935265600000002,0.353067435,23,3,1
cm,1,1,3,1,0.8700291290000001,0.681671391,0.529547444,24,3,1
cm,1,1,2,2,0.634832304,0.387595664,1.141153284,25,3,1
cm,1,1,3,1,0.575956867,3.375495018,0.9647718359999999,26,3,1
cm,2,2,2,1,1.093592317,0.869887448,0.376597666,27,3,1
cm,2,2,2,1,0.952415548,1.610999845,48.03179548,28,3,1
cm,2,2,3,2,0.31720517,1.163987815,0.7530174609999999,29,3,1
cm,1,1,2,1,0.787708932,2.916799685,0.988325937,30,3,1
cm,2,2,2,1,0.5406189770000001,0.96406651,0.34133870200000005,31,3,1
cm,2,2,2,2,0.246602541,0.658141544,0.40007245799999996,32,3,1
cm,1,1,1,2,0.199538612,0.281745619,0.28245672,33,3,1
