Subj_idx,Stimulus,Response,Confidence,RT_decConf,Difficulty,Accuracy,Trial_in_block
1,0,1,14,3.61,24,0,1
1,1,1,50,3.059,27,1,2
1,0,0,20,3.329,27,1,3
1,1,1,47,2.631,24,1,4
1,1,1,48,3.107,21,1,5
1,0,0,24,3.885,18,1,6
1,1,1,22,4.017,15,1,7
1,1,1,28,2.539,12,1,8
1,0,0,24,8.224,9,1,9
1,1,1,27,4.68,6,1,10
1,0,1,29,4.064,3,0,11
1,0,1,2,7.112,6,0,12
1,1,1,27,3.732,9,1,13
1,0,0,27,4.008,9,1,14
1,1,1,27,3.11,6,1,15
1,1,1,30,3.728,3,1,16
1,1,1,30,4.317,1,1,17
1,0,1,24,3.86,1,0,18
1,1,0,15,8.635,4,0,19
1,1,1,26,3.757,7,1,20
1,1,1,25,2.487,7,1,21
1,1,0,26,4.624,4,0,22
1,1,0,32,4.207,7,0,23
1,1,1,26,45.397,10,1,24
1,0,0,26,3.746,10,1,25
1,0,1,3,3.981,7,0,26
1,0,1,27,2.893,10,0,27
1,1,1,27,2.276,13,1,28
1,0,0,25,4.735,13,1,29
1,1,1,26,2.352,10,1,30
1,1,1,38,3.059,7,1,31
1,1,1,31,5.024,4,1,32
1,1,1,9,3.346,1,1,33
1,0,1,28,2.354,1,0,34
1,1,1,30,2.168,4,1,35
1,0,0,7,2.733,4,1,36
1,0,1,23,3.423,1,0,37
1,1,1,24,2.313,4,1,38
1,0,0,19,3.527,4,1,39
1,1,0,32,2.797,1,0,40
1,1,1,22,2.066,4,1,41
1,1,1,26,2.98,4,1,42
1,0,1,30,2.175,1,0,43
1,1,1,24,2.511,4,1,44
1,0,1,24,2.429,4,0,45
1,0,1,24,2.448,7,0,46
1,0,0,21,2.852,10,1,47
1,0,1,5,4.167,10,0,48
1,1,1,24,2.241,13,1,49
1,1,1,24,7.341,13,1,50
1,1,1,33,3.415,10,1,51
1,1,1,26,2.098,7,1,52
1,0,1,25,2.496,4,0,53
1,1,1,28,2.187,7,1,54
1,1,1,23,2.087,7,1,55
1,1,1,4,3.677,4,1,56
1,1,1,25,1.986,1,1,57
1,1,1,27,2.482,1,1,58
1,1,0,20,2.534,1,0,59
1,0,1,22,3.589,4,0,60
1,1,1,22,2.206,7,1,1
1,0,1,21,2.008,7,0,2
1,0,0,20,3.534,10,1,3
1,1,1,28,2.531,10,1,4
1,0,0,27,3.153,7,1,5
1,1,1,49,3.204,4,1,6
1,0,1,28,1.751,1,0,7
1,0,1,24,1.728,4,0,8
1,1,1,27,1.702,7,1,9
1,0,1,25,1.986,7,0,10
1,0,0,28,2.075,10,1,11
1,1,1,28,1.897,10,1,12
1,0,1,24,1.958,7,0,13
1,0,1,26,2.026,10,0,14
1,0,0,29,2.018,13,1,15
1,1,1,24,1.724,13,1,16
1,1,1,21,2.278,10,1,17
1,0,0,28,2.312,7,1,18
1,1,1,28,2.568,4,1,19
1,0,0,33,1.659,1,1,20
1,1,1,23,1.838,1,1,21
1,0,0,23,2.781,1,1,22
1,1,1,21,2.027,1,1,23
1,0,1,28,1.813,1,0,24
1,1,1,25,1.849,4,1,25
1,0,0,31,2.263,4,1,26
1,0,1,10,2.753,1,0,27
1,0,1,22,1.884,4,0,28
1,1,1,23,1.917,7,1,29
1,0,0,23,2.096,7,1,30
1,1,1,23,1.722,4,1,31
1,1,1,24,2.042,1,1,32
1,0,1,31,2.755,1,0,33
1,1,1,25,2.184,4,1,34
1,1,1,21,1.957,4,1,35
1,1,0,24,1.716,1,0,36
1,0,0,11,3.774,4,1,37
1,1,1,24,1.916,4,1,38
1,0,1,22,1.783,1,0,39
1,1,0,24,1.938,4,0,40
1,0,0,27,1.876,7,1,41
1,1,0,29,2.319,7,0,42
1,0,0,26,1.993,10,1,43
1,0,1,24,1.781,10,0,44
1,1,1,36,3.629,13,1,45
1,0,0,39,2.222,13,1,46
1,0,0,26,2.931,10,1,47
1,0,0,23,3.497,7,1,48
1,0,0,26,3.313,4,1,49
1,0,0,15,3.655,1,1,50
1,1,1,18,2.08,1,1,51
1,0,0,20,2.624,1,1,52
1,1,1,9,2.649,1,1,53
1,0,0,24,2.622,1,1,54
1,0,1,8,2.718,1,0,55
1,1,1,24,2.246,4,1,56
1,1,1,26,1.922,4,1,57
1,1,0,26,2.133,1,0,58
1,1,1,12,2.486,4,1,59
1,0,0,28,1.764,4,1,60
1,1,1,9,2.027,1,1,1
1,1,1,21,2.372,1,1,2
1,0,1,16,2.707,1,0,3
1,0,0,12,2.292,4,1,4
1,0,1,18,2.641,4,0,5
1,0,0,24,1.803,7,1,6
1,1,0,15,2.269,7,0,7
1,0,0,25,1.972,10,1,8
1,1,1,26,2.231,10,1,9
1,0,1,22,2.389,7,0,10
1,0,0,28,1.874,10,1,11
1,1,1,26,1.972,10,1,12
1,0,1,22,2.094,7,0,13
1,1,1,20,2.51,10,1,14
1,0,0,24,2.01,10,1,15
1,0,1,15,2.029,7,0,16
1,1,1,27,1.87,10,1,17
1,1,1,17,2.198,10,1,18
1,1,1,23,1.973,7,1,19
1,0,1,11,2.4,4,0,20
1,1,0,23,2.199,7,0,21
1,0,0,33,2.096,10,1,22
1,0,0,14,2.231,10,1,23
1,1,1,8,2.915,7,1,24
1,0,0,27,2.792,4,1,25
1,0,0,28,2.474,1,1,26
1,1,1,12,1.831,1,1,27
1,1,0,9,2.372,1,0,28
1,0,1,7,2.293,4,0,29
1,0,1,15,2.171,7,0,30
1,0,1,5,2.402,10,0,31
1,0,0,13,1.961,13,1,32
1,0,0,13,2.195,13,1,33
1,1,1,16,1.93,10,1,34
1,1,1,11,4.189,7,1,35
1,0,1,8,2.067,4,0,36
1,1,1,24,2.194,7,1,37
1,0,1,6,1.977,7,0,38
1,1,1,10,3.017,10,1,39
1,1,1,20,2.653,10,1,40
1,0,0,22,2.001,7,1,41
1,1,1,26,2.512,4,1,42
1,0,0,31,2.73,1,1,43
1,1,0,14,2.244,1,0,44
1,1,1,9,1.936,4,1,45
1,1,1,26,2.866,4,1,46
1,1,1,10,1.754,1,1,47
1,1,0,25,2.63,1,0,48
1,0,1,10,1.612,4,0,49
1,1,1,10,2.248,7,1,50
1,0,0,13,1.843,7,1,51
1,1,1,7,1.713,4,1,52
1,1,0,26,1.82,1,0,53
1,0,0,24,2.43,4,1,54
1,0,1,13,2.112,4,0,55
1,1,0,12,2.199,7,0,56
1,0,0,18,2.407,10,1,57
1,0,0,24,1.806,10,1,58
1,0,0,7,2.635,7,1,59
1,0,0,12,1.891,4,1,60
1,0,0,7,2.076,1,1,1
1,0,1,17,2.71,1,0,2
1,1,0,27,2.025,4,0,3
1,0,0,32,2.427,7,1,4
1,1,1,28,2.535,7,1,5
1,1,0,25,4.486,4,0,6
1,0,1,9,2.217,7,0,7
1,1,1,39,4.318,10,1,8
1,0,0,27,1.892,10,1,9
1,0,0,26,2.184,7,1,10
1,0,0,28,1.968,4,1,11
1,0,0,26,2.382,1,1,12
1,0,0,24,2.012,1,1,13
1,1,1,11,2.334,1,1,14
1,1,0,19,2.523,1,0,15
1,1,0,18,2.398,4,0,16
1,1,1,24,1.827,7,1,17
1,1,1,27,2.093,7,1,18
1,1,1,44,2.881,4,1,19
1,1,0,17,1.83,1,0,20
1,1,0,19,1.853,4,0,21
1,0,0,12,2.026,7,1,22
1,1,0,16,1.932,7,0,23
1,0,0,19,2.465,10,1,24
1,0,1,25,2.527,10,0,25
1,1,1,30,2.053,13,1,26
1,0,0,26,2.593,13,1,27
1,0,0,18,1.959,10,1,28
1,0,0,24,2.485,7,1,29
1,0,0,27,2.009,4,1,30
1,1,1,9,2.635,1,1,31
1,1,0,11,2.144,1,0,32
1,1,0,18,1.851,4,0,33
1,0,1,9,2.111,7,0,34
1,1,1,26,2.158,10,1,35
1,0,0,25,1.925,10,1,36
1,0,1,8,2.666,7,0,37
1,0,0,20,2.208,10,1,38
1,1,1,20,2.072,10,1,39
1,0,0,29,1.793,7,1,40
1,0,1,6,2.122,4,0,41
1,1,1,29,2.29,7,1,42
1,1,1,38,2.564,7,1,43
1,1,0,7,2.145,4,0,44
1,0,0,21,1.916,7,1,45
1,1,1,18,1.949,7,1,46
1,1,1,31,1.747,4,1,47
1,1,1,36,2.146,1,1,48
1,1,0,12,1.941,1,0,49
1,1,0,15,1.977,4,0,50
1,1,0,6,2.205,7,0,51
1,1,1,28,1.781,10,1,52
1,0,1,5,2.585,10,0,53
1,1,1,47,2.31,13,1,54
1,0,0,8,1.971,13,1,55
1,0,0,22,1.949,10,1,56
1,0,0,10,1.699,7,1,57
1,1,0,23,2.289,4,0,58
1,0,0,16,2.39,7,1,59
1,1,1,30,1.819,7,1,60
2,0,0,50,1.8978,15,1,1
2,1,0,50,2.1291,12,0,2
2,0,0,50,1.7142,15,1,3
2,0,0,50,1.5847,18,1,4
2,0,1,50,1.8981,12,0,5
2,1,1,50,1.6103,15,1,6
2,0,0,50,1.8739,15,1,7
2,1,1,50,2.1621,18,1,8
2,1,1,50,1.6812,18,1,9
2,0,0,50,1.8424,18,1,10
2,1,1,49,2.0326,15,1,11
2,0,0,50,1.6488,12,1,12
2,1,0,50,1.9612,6,0,13
2,0,1,50,1.6565,9,0,14
2,0,0,50,2.354,9,1,15
2,0,0,50,3.3452,6,1,16
2,0,1,50,1.6978,1,0,17
2,0,1,50,1.752,4,0,18
2,1,1,48,5.5303,7,1,19
2,1,1,43,2.7364,7,1,20
2,1,1,38,2.0327,4,1,21
2,1,1,37,1.7219,1,1,22
2,0,1,50,1.6491,1,0,23
2,1,1,50,2.7622,4,1,24
2,0,0,50,2.2177,10,1,25
2,1,1,50,2.6729,10,1,26
2,1,1,50,1.5943,7,1,27
2,1,1,50,1.5144,4,1,28
2,1,1,50,1.4485,1,1,29
2,1,1,48,1.6737,1,1,30
2,1,1,50,1.985,1,1,31
2,0,1,49,1.8341,1,0,32
2,0,1,50,1.8742,4,0,33
2,1,1,50,1.9765,7,1,34
2,1,1,48,1.5285,7,1,35
2,1,1,43,1.6337,4,1,36
2,0,1,50,1.442,1,0,37
2,1,1,50,1.6102,4,1,38
2,1,1,50,1.569,1,1,1
2,1,1,50,1.5362,1,1,2
2,0,1,50,1.5834,1,0,3
2,0,1,50,2.1695,4,0,4
2,0,0,50,1.8742,10,1,5
2,1,1,50,1.8743,7,1,6
2,1,1,50,1.4983,7,1,7
2,0,1,50,1.6501,7,0,8
2,1,1,50,1.9372,10,1,9
2,0,0,41,2.7216,7,1,10
2,0,0,49,1.8488,4,1,11
2,1,1,41,2.4971,1,1,12
2,1,1,48,1.6583,1,1,13
2,1,1,47,1.6895,4,1,14
2,0,0,46,1.6007,4,1,15
2,1,0,43,1.6979,1,0,16
2,0,0,45,2.0731,4,1,17
2,1,0,14,3.0574,1,0,18
2,0,0,30,1.4016,4,1,19
2,1,1,36,1.9458,4,1,20
2,0,0,44,1.7139,1,1,21
2,0,1,42,1.8652,1,0,22
2,1,0,42,2.4103,4,0,23
2,0,0,46,1.9216,7,1,24
2,0,0,44,1.7767,7,1,25
2,1,0,46,2.1449,4,0,26
2,1,1,42,1.5141,7,1,27
2,1,1,44,2.0572,7,1,28
2,1,1,41,1.9144,4,1,29
2,0,1,45,1.4254,1,0,30
2,1,0,42,1.9058,4,0,31
2,1,0,47,2.329,7,0,32
2,1,1,45,2.0659,10,1,33
2,1,0,43,2.1302,10,0,34
2,0,1,50,1.8486,13,0,35
2,0,0,50,1.8659,16,1,36
2,0,0,50,1.4902,19,1,37
2,0,1,48,2.0663,19,0,38
2,1,1,50,1.5776,22,1,39
2,0,0,50,1.7857,22,1,40
2,0,0,50,1.7303,22,1,41
2,0,0,50,1.4581,10,1,1
2,1,1,49,1.4265,7,1,2
2,1,1,50,1.6817,1,1,3
2,0,1,50,1.6583,7,0,4
2,1,1,50,1.5208,13,1,5
2,0,1,50,1.682,10,0,6
2,0,1,12,3.3223,10,0,7
2,0,1,45,1.8884,13,0,8
2,0,0,45,2.0017,16,1,9
2,1,1,50,1.8809,16,1,10
2,0,1,50,1.9221,13,0,11
2,0,1,46,1.4813,16,0,12
2,0,0,44,1.4803,19,1,13
2,0,0,48,2.4015,19,1,14
2,1,1,50,1.3379,13,1,15
2,1,1,50,1.8102,13,1,16
2,0,1,50,1.5523,13,0,17
2,1,1,50,1.5216,16,1,18
2,1,1,50,1.7062,7,1,19
2,0,0,50,3.0817,1,1,20
2,0,0,50,1.6578,1,1,21
2,0,1,50,1.6105,1,0,22
2,0,0,50,4.6183,4,1,23
2,0,0,50,2.5936,4,1,24
2,0,0,50,2.7699,1,1,25
2,0,1,50,2.3287,1,0,26
2,1,0,50,2.1209,4,0,27
2,0,0,50,1.6411,7,1,1
2,1,0,50,1.7684,10,0,2
2,1,1,49,1.7374,1,1,3
2,0,0,50,1.8102,4,1,4
2,1,1,50,1.8495,4,1,5
2,1,1,50,1.9456,1,1,6
2,0,1,50,1.8662,4,0,7
2,0,0,45,2.0343,7,1,8
2,1,1,50,1.6175,7,1,9
2,0,0,43,1.6655,4,1,10
2,1,1,43,1.4977,1,1,11
2,0,0,50,1.7699,1,1,12
2,0,0,43,1.49,1,1,13
2,0,0,47,2.0503,1,1,14
2,1,1,35,1.5544,1,1,15
2,0,0,33,1.4495,1,1,16
2,1,1,38,1.3528,1,1,17
2,1,1,38,1.9448,1,1,18
2,1,1,35,1.506,1,1,19
2,1,1,42,1.3541,1,1,20
2,0,1,37,1.2333,1,0,21
2,0,1,50,2.2496,4,0,22
2,0,1,41,1.7857,7,0,23
2,1,1,50,1.9459,10,1,24
2,0,0,42,1.4339,10,1,25
2,1,0,46,1.7059,1,0,26
2,1,0,45,1.7922,4,0,27
2,0,1,45,1.3212,7,0,28
2,0,1,47,1.6404,10,0,29
2,0,0,50,1.8887,13,1,30
2,0,0,48,1.9338,13,1,31
2,1,1,48,1.5058,10,1,32
2,1,1,50,1.4263,7,1,33
2,1,1,48,1.7304,4,1,34
2,0,0,45,1.7376,1,1,35
2,0,0,49,1.7536,1,1,36
2,1,0,47,1.6579,1,0,37
2,1,1,5,2.4791,4,1,38
2,0,0,43,1.682,4,1,39
2,1,0,42,1.8048,1,0,40
2,1,1,42,2.1446,4,1,41
2,1,1,50,1.6737,4,1,42
3,1,0,26,3.341,18,0,1
3,1,1,23,3.552,21,1,2
3,1,1,23,2.839,21,1,3
3,0,0,26,3.91,18,1,4
3,1,0,26,3.01,15,0,5
3,1,1,17,3.815,18,1,6
3,1,0,25,3.557,18,0,7
3,1,1,25,3.97,21,1,8
3,1,1,23,2.722,21,1,9
3,1,1,24,2.918,18,1,10
3,0,0,27,2.575,15,1,11
3,0,0,19,2.871,12,1,12
3,1,1,24,3.597,9,1,13
3,1,0,27,2.59,6,0,14
3,1,0,21,2.688,9,0,15
3,0,0,24,2.254,12,1,16
3,1,0,25,2.745,12,0,17
3,0,0,25,2.245,15,1,18
3,1,1,20,2.275,15,1,19
3,1,0,26,2.886,12,0,20
3,1,1,22,2.317,15,1,21
3,0,0,25,2.254,15,1,22
3,0,0,26,2.371,12,1,23
3,0,0,26,2.463,9,1,24
3,1,0,26,5.275,6,0,25
3,0,0,25,3.113,9,1,26
3,0,1,23,2.356,9,0,27
3,1,1,23,3.057,12,1,28
3,0,1,22,5.519,12,0,29
3,0,1,20,3.237,15,0,30
3,0,0,23,2.597,18,1,31
3,1,0,24,2.95,18,0,32
3,1,1,24,2.471,21,1,33
3,1,1,24,2.502,21,1,34
3,1,1,25,2.331,18,1,35
3,0,1,16,3.269,15,0,36
3,1,0,22,2.723,18,0,37
3,0,0,21,2.528,21,1,38
3,0,0,26,2.348,21,1,39
3,0,0,27,2.191,18,1,40
3,0,0,25,2.278,15,1,41
3,1,1,21,2.669,12,1,42
3,0,1,20,2.213,9,0,43
3,0,0,24,2.448,12,1,44
3,1,1,20,2.802,12,1,45
3,0,0,21,2.948,9,1,46
3,1,1,11,5.156,6,1,47
3,1,1,14,4.549,3,1,48
3,1,0,18,2.592,1,0,49
3,1,0,18,2.826,4,0,50
3,1,1,18,2.098,7,1,51
3,0,0,17,2.533,7,1,52
3,0,1,17,2.769,4,0,53
3,0,0,20,2.863,7,1,54
3,0,0,18,2.494,7,1,55
3,0,0,18,2.076,4,1,56
3,0,0,18,2.434,1,1,57
3,1,0,17,2.474,1,0,58
3,0,0,16,2.013,4,1,59
3,1,1,16,2.15,4,1,60
3,0,1,17,2.915,1,0,1
3,1,0,13,4.339,4,0,2
3,1,1,17,2.153,7,1,3
3,0,0,22,2.388,7,1,4
3,1,1,18,2.308,4,1,5
3,1,0,17,2.815,1,0,6
3,1,1,19,2.683,4,1,7
3,1,0,20,2.355,4,0,8
3,1,1,17,2.721,7,1,9
3,1,0,20,4.294,7,0,10
3,0,0,19,2.401,10,1,11
3,1,1,19,2.221,10,1,12
3,0,0,20,2.363,7,1,13
3,0,1,21,2.707,4,0,14
3,1,0,22,1.904,7,0,15
3,0,1,18,3.635,10,0,16
3,1,1,18,2.487,13,1,17
3,1,0,17,2.441,13,0,18
3,0,0,19,2.557,16,1,19
3,1,0,16,3.823,16,0,20
3,0,0,18,2.089,19,1,21
3,0,0,18,2.028,19,1,22
3,0,0,20,2.636,16,1,23
3,0,0,18,2.019,13,1,24
3,0,0,19,2.262,10,1,25
3,1,1,17,2.613,7,1,26
3,1,0,16,2.348,4,0,27
3,1,1,16,2.474,7,1,28
3,0,0,20,2.799,7,1,29
3,1,1,17,1.97,4,1,30
3,1,0,17,4.379,1,0,31
3,0,1,15,2.511,4,0,32
3,0,1,14,2.248,7,0,33
3,0,0,18,2.432,10,1,34
3,1,1,9,3.363,10,1,35
3,1,1,13,2.791,7,1,36
3,0,1,8,3.011,4,0,37
3,0,0,17,2.303,7,1,38
3,1,0,17,2.153,7,0,39
3,1,1,14,1.95,10,1,40
3,0,0,12,2.097,10,1,41
3,0,0,14,2.187,7,1,42
3,0,1,12,1.997,4,0,43
3,0,0,10,2.729,7,1,44
3,1,1,10,2.098,7,1,45
3,1,1,10,2.622,4,1,46
3,1,1,11,3.089,1,1,47
3,1,1,10,2.321,1,1,48
3,0,0,13,2.419,1,1,49
3,0,1,10,2.167,1,0,50
3,1,1,11,1.947,4,1,51
3,1,1,10,1.92,4,1,52
3,1,0,10,2.042,1,0,53
3,1,0,12,2.207,4,0,54
3,1,1,8,2.769,7,1,55
3,0,0,8,2.495,7,1,56
3,0,1,8,2.496,4,0,57
3,0,1,7,2.378,7,0,58
3,1,0,9,2.69,10,0,59
3,0,0,8,3.528,13,1,60
3,0,1,17,3.985,13,0,1
3,0,0,20,2.802,16,1,2
3,1,1,11,2.058,16,1,3
3,0,0,12,2.24,13,1,4
3,0,0,12,2.245,10,1,5
3,0,1,8,2.394,7,0,6
3,1,0,11,2.629,10,0,7
3,0,1,9,2.817,13,0,8
3,1,0,10,2.302,16,0,9
3,0,0,11,1.958,19,1,10
3,0,0,11,2.113,19,1,11
3,1,1,10,2.245,16,1,12
3,0,0,14,2.121,13,1,13
3,0,0,11,2.306,10,1,14
3,0,0,12,2.448,7,1,15
3,1,0,13,2.208,4,0,16
3,1,0,13,2.137,7,0,17
3,1,0,12,2.723,10,0,18
3,0,0,14,2.145,13,1,19
3,1,1,7,2.331,13,1,20
3,1,0,14,2.238,10,0,21
3,1,0,13,2.378,13,0,22
3,1,1,14,2.167,16,1,23
3,0,0,15,2.293,16,1,24
3,0,0,15,2.229,13,1,25
3,0,1,11,2.425,10,0,26
3,0,0,16,2.261,13,1,27
3,1,0,10,2.95,13,0,28
3,1,1,13,2.135,16,1,29
3,0,0,13,2.191,16,1,30
3,1,1,8,2.565,13,1,31
3,0,0,10,2.035,10,1,32
3,0,0,12,3.019,7,1,33
3,1,0,10,2.111,4,0,34
3,0,0,19,2.455,7,1,35
3,1,0,15,2.817,7,0,36
3,0,1,9,2.495,10,0,37
3,1,1,10,2.488,13,1,38
3,0,0,13,2.731,13,1,39
3,0,0,14,2.285,10,1,40
3,0,1,9,2.889,7,0,41
3,1,0,14,2.621,10,0,42
3,1,0,7,3.113,13,0,43
3,0,0,12,2.152,16,1,44
3,1,1,7,2.011,16,1,45
3,0,0,10,2.02,13,1,46
3,0,1,7,2.2,10,0,47
3,1,1,7,2.176,13,1,48
3,0,0,11,2.331,13,1,49
3,0,0,10,1.955,10,1,50
3,1,1,8,2.043,7,1,51
3,1,1,9,2.106,4,1,52
3,1,0,10,2.325,1,0,53
3,1,1,11,3.598,4,1,54
3,1,1,12,2.371,4,1,55
3,1,1,11,2.369,1,1,56
3,0,0,17,2.439,1,1,57
3,0,0,12,2.863,1,1,58
3,1,0,13,2.332,1,0,59
3,0,0,14,2.271,4,1,60
3,1,0,16,2.571,4,0,1
3,0,0,17,2.408,7,1,2
3,0,0,18,2.277,7,1,3
3,1,0,18,2.355,4,0,4
3,1,0,15,3.208,7,0,5
3,1,1,9,2.785,10,1,6
3,0,0,21,2.471,10,1,7
3,1,1,12,2.167,7,1,8
3,0,0,12,2.558,4,1,9
3,0,0,20,2.192,1,1,10
3,1,0,24,2.331,1,0,11
3,1,0,23,2.126,4,0,12
3,1,1,18,2.314,7,1,13
3,0,0,20,2.324,7,1,14
3,1,0,19,1.979,4,0,15
3,0,0,21,1.879,7,1,16
3,0,1,11,1.896,7,0,17
3,1,0,16,2.697,10,0,18
3,0,0,19,2.309,13,1,19
3,0,0,16,3.145,13,1,20
3,1,1,15,2.175,10,1,21
3,1,1,12,2.223,7,1,22
3,0,0,16,2.076,4,1,23
3,1,1,12,2.472,1,1,24
3,1,1,15,1.878,1,1,25
3,0,0,12,2.884,1,1,26
3,0,1,13,2.119,1,0,27
3,1,1,12,2.568,4,1,28
3,0,0,11,1.864,4,1,29
3,1,1,12,2.658,1,1,30
3,0,0,15,2.683,1,1,31
3,1,1,11,2.073,1,1,32
3,0,0,13,2.245,1,1,33
3,1,0,10,3.261,1,0,34
3,0,1,8,2.197,4,0,35
3,1,1,9,2.22,7,1,36
3,1,1,9,2.559,7,1,37
3,1,1,9,2.105,4,1,38
3,1,0,10,2.823,1,0,39
3,0,0,9,2.675,4,1,40
3,1,1,10,2.254,4,1,41
3,0,1,11,2.035,1,0,42
3,1,1,13,2.277,4,1,43
3,0,0,10,2.191,4,1,44
3,0,1,11,2.151,1,0,45
3,1,1,14,1.87,4,1,46
3,0,0,13,1.864,4,1,47
3,1,0,15,2.105,1,0,48
3,1,0,11,3.049,4,0,49
3,0,0,15,2.135,7,1,50
3,0,0,13,2.145,7,1,51
3,1,0,12,2.089,4,0,52
3,1,1,11,2.364,7,1,53
3,1,1,10,2.333,7,1,54
3,0,0,12,1.971,4,1,55
3,0,1,9,2.411,1,0,56
3,0,0,12,2.011,4,1,57
3,1,0,9,2.205,4,0,58
3,0,0,12,2.082,7,1,59
3,1,1,8,1.998,7,1,60
4,0,1,41,2.388,27,0,1
4,0,0,38,2.913,30,1,2
4,0,1,35,2.199,30,0,3
4,1,1,43,2.284,33,1,4
4,1,1,39,2.435,33,1,5
4,1,1,41,2.026,30,1,6
4,0,0,32,2.573,27,1,7
4,1,1,35,2.606,24,1,8
4,0,0,33,3.399,21,1,9
4,1,1,35,2.067,18,1,10
4,0,1,33,2.726,15,0,11
4,1,1,36,2.492,18,1,12
4,0,0,29,2.013,18,1,13
4,0,1,38,3.097,15,0,14
4,0,0,34,2.475,18,1,15
4,0,1,33,13.533,18,0,16
4,0,0,29,2.029,21,1,17
4,0,1,30,2.674,21,0,18
4,1,1,35,2.492,24,1,19
4,1,1,2,4.48,24,1,20
4,1,0,36,3.205,21,0,21
4,0,1,37,2.765,24,0,22
4,1,0,34,3.055,27,0,23
4,0,0,36,3.757,30,1,24
4,1,1,38,2.98,30,1,25
4,1,1,34,2.513,27,1,26
4,0,0,34,2.401,24,1,27
4,0,1,30,3.124,21,0,28
4,1,1,37,4.497,24,1,29
4,1,0,34,2.473,24,0,30
4,0,1,32,2.31,27,0,31
4,0,0,34,2.631,30,1,32
4,1,1,34,2.887,30,1,33
4,1,1,35,2.786,27,1,34
4,1,1,1,3.67,24,1,35
4,0,0,38,2.18,21,1,36
4,1,0,40,3.166,18,0,37
4,0,0,39,2.201,21,1,38
4,0,1,34,2.42,21,0,39
4,0,0,28,82.331,24,1,40
4,1,1,44,2.402,24,1,41
4,1,1,46,2.091,21,1,42
4,0,0,49,4.872,18,1,43
4,0,1,40,4.761,15,0,44
4,0,0,44,3.347,18,1,45
4,0,1,49,8.413,18,0,46
4,1,1,38,2.599,21,1,47
4,1,1,23,4.949,21,1,48
4,1,1,26,9.369,18,1,49
4,0,0,40,3.652,15,1,50
4,1,0,47,2.87,12,0,51
4,1,0,41,2.675,15,0,52
4,0,0,43,2.646,18,1,53
4,1,0,28,3.051,15,0,54
4,1,1,31,3.416,18,1,55
4,0,0,43,3.214,18,1,56
4,1,1,40,2.864,15,1,57
4,1,0,23,3.05,12,0,58
4,1,0,34,2.366,15,0,59
4,1,1,21,3.116,18,1,1
4,1,0,30,3.257,18,0,2
4,0,0,43,3.713,21,1,3
4,1,1,50,3.617,21,1,4
4,1,0,40,2.439,18,0,5
4,0,1,36,2.291,21,0,6
4,0,0,47,2.79,24,1,7
4,0,0,40,8.595,18,1,8
4,0,0,43,3.951,15,1,9
4,0,0,35,3.967,12,1,10
4,1,1,40,3.156,12,1,11
4,0,0,31,2.577,9,1,12
4,1,1,30,2.384,6,1,13
4,1,1,22,3.393,3,1,14
4,0,0,37,6.877,1,1,15
4,0,1,35,3.658,1,0,16
4,1,1,28,2.286,4,1,17
4,1,1,27,3.026,4,1,18
4,1,0,29,2.602,1,0,19
4,0,1,35,2.629,4,0,20
4,0,0,28,2.309,7,1,21
4,1,1,34,2.467,7,1,22
4,1,0,33,2.936,4,0,23
4,0,1,28,2.67,7,0,24
4,0,1,25,2.443,10,0,25
4,0,1,35,2.18,13,0,26
4,1,1,20,2.69,16,1,27
4,0,0,15,2.336,16,1,28
4,0,1,23,2.173,13,0,29
4,0,0,27,2.196,16,1,30
4,0,1,31,2.792,16,0,31
4,0,1,41,2.066,19,0,32
4,1,1,21,3.456,22,1,33
4,1,1,31,3.698,22,1,34
4,0,0,13,2.423,19,1,35
4,1,1,35,3.141,16,1,36
4,1,1,23,2.067,13,1,37
4,0,0,47,3.976,10,1,38
4,1,1,32,3.027,7,1,39
4,1,1,29,3.027,4,1,40
4,0,1,22,3.854,1,0,41
4,0,0,35,2.365,4,1,42
4,1,0,11,3.363,4,0,43
4,1,1,26,2.557,7,1,44
4,0,1,21,2.228,7,0,45
4,1,1,31,2.837,10,1,46
4,1,1,30,2.865,10,1,47
4,0,0,30,2.374,7,1,48
4,1,0,32,3.546,4,0,49
4,1,0,24,3.469,7,0,50
4,0,0,31,3.009,10,1,51
4,1,1,36,3.234,10,1,52
4,1,1,37,2.992,7,1,53
4,1,1,25,2.632,4,1,54
4,1,1,18,2.366,1,1,55
4,1,1,28,2.387,1,1,56
4,0,1,35,4.268,1,0,1
4,1,0,38,3.956,4,0,2
4,1,1,40,2.171,7,1,3
4,0,0,31,2.531,7,1,4
4,0,1,40,5.272,4,0,5
4,1,1,45,1.876,7,1,6
4,1,1,42,3.256,7,1,7
4,0,1,42,3.091,4,0,8
4,1,1,42,2.138,7,1,9
4,0,0,38,1.965,7,1,10
4,0,1,41,1.84,4,0,11
4,0,1,40,2.166,7,0,12
4,0,1,41,2.645,10,0,13
4,1,1,40,2.151,13,1,14
4,1,0,35,3.306,13,0,15
4,1,1,36,8.254,16,1,16
4,1,1,36,2.827,16,1,17
4,0,1,40,1.836,13,0,18
4,0,0,36,2.47,16,1,19
4,1,1,39,2.187,16,1,20
4,1,1,38,2.268,13,1,21
4,1,1,39,1.971,10,1,22
4,0,1,38,2.269,7,0,23
4,1,1,35,3.431,10,1,24
4,0,0,36,3.181,10,1,25
4,0,1,40,1.916,7,0,26
4,1,0,36,2.614,10,0,27
4,0,0,38,2.604,13,1,28
4,1,1,42,2.2,13,1,29
4,0,0,33,3.335,10,1,30
4,0,0,36,2.678,7,1,31
4,1,0,36,2.687,4,0,32
4,0,0,34,3.312,7,1,33
4,1,1,35,2.026,7,1,34
4,0,1,35,2.316,4,0,35
4,1,0,35,5.863,7,0,36
4,1,1,36,1.982,10,1,37
4,1,1,38,2.282,10,1,38
4,0,1,40,2.361,7,0,39
4,1,1,39,3.637,10,1,40
4,0,0,33,4.22,10,1,41
4,1,1,38,2.192,7,1,42
4,1,1,39,2.95,4,1,43
4,1,1,38,5.653,1,1,44
4,1,1,39,3.397,1,1,45
4,0,1,41,6.861,1,0,46
4,0,0,33,2.54,4,1,47
4,1,0,37,2.637,4,0,48
4,1,1,38,2.914,7,1,49
4,1,1,35,2.781,7,1,50
4,0,0,34,2.638,4,1,51
4,0,0,35,2.519,1,1,52
4,0,1,34,3.352,1,0,53
4,0,0,33,2.468,4,1,54
4,0,1,30,1.976,4,0,55
4,0,1,36,2.273,7,0,56
4,1,1,37,2.457,10,1,57
4,1,0,34,2.386,10,0,58
4,1,0,35,3.028,13,0,59
4,0,1,36,3.903,16,0,60
4,0,1,20,2.627,19,0,1
4,1,1,34,2.455,22,1,2
4,0,0,36,3.028,22,1,3
4,0,0,31,2.539,19,1,4
4,0,0,31,2.451,16,1,5
4,0,0,28,2.593,13,1,6
4,1,0,23,3.817,10,0,7
4,0,0,28,2.34,13,1,8
4,0,1,26,4.209,13,0,9
4,1,1,32,2.781,16,1,10
4,0,0,18,3.002,16,1,11
4,1,0,20,2.073,13,0,12
4,1,1,33,3.532,16,1,13
4,0,0,24,2.532,16,1,14
4,0,0,35,2.098,13,1,15
4,0,1,33,3.919,10,0,16
4,1,1,11,4.677,13,1,17
4,1,1,32,2.676,13,1,18
4,1,1,25,4.226,10,1,19
4,0,0,17,2.357,7,1,20
4,1,0,22,2.304,4,0,21
4,1,0,26,2.11,7,0,22
4,1,0,25,2.643,10,0,23
4,0,1,22,2.749,13,0,24
4,0,1,20,2.26,16,0,25
4,1,1,30,2.182,19,1,26
4,0,0,15,3.219,19,1,27
4,0,0,21,2.399,16,1,28
4,0,0,31,2.568,13,1,29
4,1,0,26,2.584,10,0,30
4,1,1,14,2.433,13,1,31
4,1,1,47,3.342,13,1,32
4,0,0,42,2.425,10,1,33
4,0,0,26,2.721,7,1,34
4,0,0,42,2.418,4,1,35
4,1,0,26,2.639,1,0,36
4,1,0,24,2.498,4,0,37
4,0,1,22,3.471,7,0,38
4,0,0,49,5.442,10,1,39
4,1,1,30,2.888,10,1,40
4,0,0,23,3.021,7,1,41
4,0,0,32,2.244,4,1,42
4,0,0,38,2.289,1,1,43
4,1,0,37,2.981,1,0,44
4,0,0,29,3.075,4,1,45
4,1,1,15,2.427,4,1,46
4,0,1,28,3.821,1,0,47
4,1,1,21,3.452,4,1,48
4,1,1,26,2.408,4,1,49
4,0,0,22,2.296,1,1,50
4,0,0,30,2.521,1,1,51
4,0,1,17,3.043,1,0,52
4,1,1,30,2.62,4,1,53
4,0,0,42,3.495,4,1,54
4,1,1,28,3.519,1,1,55
4,0,0,31,2.325,1,1,56
4,1,1,16,2.892,1,1,57
4,0,1,27,1.793,1,0,58
4,0,1,16,2.351,4,0,59
4,1,1,17,2.04,7,1,60
5,1,1,29,3.082,27,1,1
5,0,0,50,3.4068,24,1,2
5,1,0,40,5.0604,21,0,3
5,1,0,45,5.0717,24,0,4
5,0,0,50,3.0879,27,1,5
5,1,1,37,3.7062,27,1,6
5,0,0,45,3.5557,24,1,7
5,1,0,35,3.7919,21,0,8
5,0,0,50,3.0327,24,1,9
5,1,1,42,3.4275,24,1,10
5,1,1,40,3.3532,15,1,11
5,0,0,50,3.5908,12,1,12
5,0,0,50,2.9751,12,1,13
5,0,0,50,3.8594,12,1,14
5,1,0,38,6.688,9,0,15
5,0,0,50,3.1013,15,1,16
5,1,1,41,5.4257,15,1,17
5,1,0,50,4.0344,15,0,18
5,0,0,50,2.7115,15,1,19
5,0,1,25,3.8317,12,0,20
5,1,1,34,3.1803,18,1,21
5,0,0,50,3.7993,15,1,22
5,1,0,50,2.9342,9,0,23
5,0,1,39,2.7673,12,0,24
5,1,0,50,2.9762,15,0,25
5,1,1,41,3.2592,18,1,26
5,1,1,46,2.8296,18,1,27
5,0,0,50,4.1689,18,1,28
5,1,1,45,3.197,18,1,29
5,1,1,41,2.3621,12,1,30
5,1,0,31,3.1585,9,0,31
5,0,1,46,2.9202,12,0,32
5,1,1,47,2.7039,15,1,33
5,1,0,39,2.4017,15,0,34
5,1,1,45,14.4628,18,1,35
5,1,1,43,6.8404,18,1,36
5,1,1,40,2.9605,15,1,37
5,1,0,49,2.7803,12,0,38
5,1,1,47,2.6736,18,1,39
5,1,0,49,2.9848,18,0,40
5,0,0,49,2.8019,21,1,41
5,1,1,40,3.3676,24,1,1
5,1,0,44,2.4223,24,0,2
5,0,0,46,3.1446,27,1,3
5,1,1,44,2.4413,27,1,4
5,0,0,50,3.3641,21,1,5
5,0,0,50,2.9404,15,1,6
5,1,1,40,2.4251,12,1,7
5,1,0,49,2.284,9,0,8
5,1,1,47,3.6354,12,1,9
5,1,1,46,2.6975,18,1,10
5,0,0,47,3.0332,18,1,11
5,1,1,44,2.4531,15,1,12
5,1,1,48,2.3056,15,1,13
5,0,1,50,2.9724,12,0,14
5,1,1,50,2.6011,12,1,15
5,1,0,46,2.5438,9,0,16
5,1,0,48,2.7107,12,0,17
5,1,1,48,3.1138,15,1,18
5,0,0,48,2.3337,18,1,19
5,0,0,49,3.1598,18,1,20
5,0,0,49,2.4821,15,1,21
5,0,0,50,2.3276,12,1,22
5,1,0,43,2.8505,9,0,23
5,1,0,47,2.3652,12,0,24
5,0,0,48,2.8505,15,1,25
5,1,1,44,2.7367,15,1,26
5,1,1,48,3.7078,12,1,27
5,1,0,47,2.8104,9,0,28
5,0,0,49,2.5417,12,1,29
5,0,1,47,2.8428,12,0,30
5,0,0,48,2.6762,15,1,31
5,1,1,49,2.3912,15,1,32
5,0,0,49,2.1381,12,1,33
5,0,1,49,2.1853,6,0,34
5,0,0,47,2.0037,9,1,35
5,1,1,47,1.9964,9,1,36
5,1,1,47,2.7971,6,1,37
5,1,1,46,2.6174,4,1,38
5,1,0,48,2.4131,4,0,39
5,1,0,48,2.9544,7,0,40
5,0,1,42,2.1772,7,0,41
5,1,0,49,1.8125,10,0,42
5,0,0,48,2.1911,13,1,43
5,0,0,36,2.8232,13,1,44
5,1,1,41,2.813,10,1,1
5,0,0,38,2.5234,7,1,2
5,1,1,40,3.0006,4,1,3
5,0,0,41,2.2127,1,1,4
5,1,0,47,2.0173,1,0,5
5,0,1,42,2.6568,4,0,6
5,0,0,45,2.3415,7,1,7
5,1,1,43,2.2473,7,1,8
5,1,1,46,2.5158,4,1,9
5,1,0,48,2.0576,1,0,10
5,0,0,47,1.9023,4,1,11
5,1,1,47,2.2521,4,1,12
5,1,0,43,2.0036,1,0,13
5,0,0,49,2.2793,4,1,14
5,1,1,46,2.1173,4,1,15
5,0,0,46,1.9264,1,1,16
5,1,1,42,2.4083,1,1,17
5,0,1,40,1.9424,1,0,18
5,0,1,41,3.3656,4,0,19
5,1,1,43,2.8537,7,1,20
5,1,1,45,3.1611,7,1,21
5,0,0,45,4.1324,4,1,22
5,1,0,49,2.1925,1,0,23
5,0,0,45,2.2039,4,1,24
5,0,0,46,2.0917,4,1,25
5,0,0,44,2.0279,1,1,26
5,0,0,47,2.1261,1,1,27
5,1,1,46,2.1033,1,1,28
5,1,1,44,3.2415,1,1,29
5,0,1,47,3.6413,1,0,30
5,1,0,46,1.9626,4,0,31
5,1,1,47,1.7325,7,1,32
5,0,0,48,1.9909,7,1,33
5,1,0,48,2.0765,4,0,34
5,0,0,47,2.0679,7,1,35
5,1,1,45,2.8532,7,1,36
5,0,0,46,1.8467,4,1,37
5,0,1,46,2.631,1,0,38
5,0,1,46,1.6989,4,0,39
5,1,1,47,2.6232,7,1,40
5,1,1,45,1.9832,7,1,41
5,1,0,44,2.576,4,0,42
5,1,1,45,1.976,7,1,43
5,1,0,47,2.0273,7,0,44
5,0,0,47,1.874,7,1,45
5,1,0,50,2.0439,4,0,46
5,1,1,47,2.053,7,1,47
5,1,1,44,2.2714,7,1,48
5,1,1,47,4.01,7,1,49
5,1,0,44,2.4809,7,0,50
5,1,1,45,2.1856,10,1,51
5,1,0,43,3.7686,10,0,52
5,1,1,44,1.6263,13,1,53
5,0,1,43,4.9896,13,0,1
5,0,0,45,2.406,16,1,2
5,0,0,43,2.6471,16,1,3
5,0,0,46,1.9289,13,1,4
5,1,1,45,2.3406,10,1,5
5,1,0,44,2.3349,7,0,6
5,0,1,43,1.9549,10,0,7
5,1,1,45,2.0692,13,1,8
5,1,1,47,2.1032,13,1,9
5,1,1,45,2.9013,10,1,10
5,1,1,45,2.3407,7,1,11
5,0,0,44,1.849,4,1,12
5,1,0,46,1.9752,1,0,13
5,1,0,45,2.4154,4,0,14
5,1,0,47,2.6645,7,0,15
5,1,1,46,2.0425,10,1,16
5,0,0,48,1.8944,10,1,17
5,0,0,44,2.3764,7,1,18
5,0,0,46,2.5161,4,1,19
5,1,0,46,1.8971,1,0,20
5,1,0,48,1.9153,4,0,21
5,0,0,46,2.2516,7,1,22
5,0,0,45,1.8653,7,1,23
5,0,0,44,1.8342,4,1,24
5,0,0,48,2.3859,1,1,25
5,0,0,47,2.4576,1,1,26
5,0,0,44,1.8972,1,1,27
5,0,1,46,1.8231,1,0,28
5,1,0,47,4.7127,4,0,29
5,0,0,42,3.2005,7,1,30
5,1,0,42,2.1119,7,0,31
5,1,1,44,2.2509,10,1,32
5,0,1,48,3.427,10,0,33
5,1,0,43,2.2916,13,0,34
5,0,0,46,2.0784,16,1,35
5,0,0,47,2.3146,16,1,36
5,1,1,44,2.0369,13,1,37
5,0,1,43,2.104,10,0,38
5,0,0,40,2.2099,13,1,39
5,1,0,44,2.1658,13,0,40
5,1,0,50,2.5617,10,0,41
5,0,0,41,2.3734,13,1,42
5,1,1,44,2.2198,13,1,43
5,1,1,50,2.706,7,1,44
5,0,0,46,1.6534,4,1,45
5,1,1,47,2.4813,1,1,46
5,1,0,50,2.2056,1,0,47
5,0,0,43,1.5998,4,1,48
5,0,0,47,2.0667,4,1,49
5,0,0,40,2.1596,1,1,50
5,1,1,50,2.0441,4,1,51
6,1,1,21,2.7787,24,1,1
6,1,1,41,2.9551,24,1,2
6,1,1,29,2.6228,21,1,3
6,0,0,29,3.031,18,1,4
6,1,1,21,2.5449,15,1,5
6,1,1,45,2.8207,12,1,6
6,0,1,2,11.7452,9,0,7
6,0,1,14,4.2808,12,0,8
6,0,0,26,2.6397,15,1,9
6,0,0,13,3.3295,15,1,10
6,0,1,23,2.6051,12,0,11
6,1,1,17,2.6962,15,1,12
6,1,1,19,2.3447,15,1,13
6,0,0,5,3.6746,12,1,14
6,1,1,41,3.1159,9,1,15
6,1,1,12,2.7171,6,1,16
6,1,1,12,3.1803,3,1,17
6,1,1,13,2.6678,1,1,18
6,0,1,12,2.32,1,0,19
6,1,1,11,2.4375,4,1,20
6,0,1,17,3.2904,4,0,21
6,1,1,14,2.672,7,1,22
6,1,1,8,2.2853,7,1,23
6,1,1,10,2.2145,4,1,24
6,0,0,9,2.9149,1,1,25
6,1,1,8,2.2835,1,1,26
6,0,0,12,2.7631,1,1,27
6,1,0,3,3.2223,1,0,28
6,1,1,46,2.9109,4,1,29
6,1,1,11,3.0483,4,1,30
6,1,1,22,2.2356,1,1,31
6,0,1,3,2.5918,1,0,32
6,0,0,2,3.4305,4,1,33
6,1,1,5,2.8844,4,1,34
6,1,0,2,2.5701,1,0,35
6,0,0,5,2.3358,4,1,36
6,1,0,2,2.6538,4,0,37
6,0,0,13,2.5366,7,1,38
6,0,0,5,2.3747,7,1,39
6,0,0,5,2.6937,4,1,40
6,1,1,9,3.5099,1,1,41
6,0,1,8,2.5717,1,0,42
6,1,0,3,2.3216,4,0,43
6,1,0,31,2.4311,7,0,44
6,1,1,40,2.5501,10,1,45
6,1,0,19,2.2852,10,0,46
6,0,1,28,2.5918,13,0,47
6,1,1,20,2.4979,16,1,48
6,0,0,32,2.5775,16,1,49
6,1,1,36,2.3909,13,1,50
6,0,0,19,2.2155,10,1,51
6,1,1,49,2.3535,7,1,52
6,0,1,44,2.4285,4,0,53
6,1,1,34,2.6632,7,1,54
6,1,1,4,4.4829,7,1,55
6,1,1,15,2.2837,4,1,56
6,1,0,40,2.3585,1,0,57
6,1,0,39,2.338,4,0,58
6,1,0,19,3.1151,7,0,59
6,1,1,3,2.6872,10,1,60
6,0,0,24,2.3016,10,1,1
6,0,0,24,2.1701,7,1,2
6,0,0,36,2.1239,4,1,3
6,1,0,15,2.1303,1,0,4
6,0,0,23,1.9963,4,1,5
6,0,0,25,2.644,4,1,6
6,0,0,14,2.1088,1,1,7
6,1,1,49,2.5631,1,1,8
6,0,0,11,2.256,1,1,9
6,1,0,5,2.2026,1,0,10
6,1,1,47,2.6241,4,1,11
6,0,1,11,2.2987,4,0,12
6,1,1,3,2.8877,7,1,13
6,0,0,12,2.1877,7,1,14
6,0,0,11,2.4347,4,1,15
6,1,1,5,2.1666,1,1,16
6,0,1,6,6.5921,1,0,17
6,0,1,38,2.3978,4,0,18
6,1,1,32,2.7216,7,1,19
6,1,0,12,2.1014,7,0,20
6,1,1,17,1.9935,10,1,21
6,1,1,6,2.5767,10,1,22
6,1,1,6,2.8006,7,1,23
6,1,0,20,2.1475,4,0,24
6,0,1,18,2.0673,7,0,25
6,1,0,6,3.2035,10,0,26
6,1,0,8,2.4446,13,0,27
6,0,0,4,2.3284,16,1,28
6,1,1,40,2.2598,16,1,29
6,1,1,5,2.106,13,1,30
6,0,0,31,2.2976,10,1,31
6,1,1,7,2.0775,7,1,32
6,0,1,3,2.3991,4,0,33
6,0,0,10,2.0552,7,1,34
6,1,1,3,3.1446,7,1,35
6,0,0,3,3.3439,4,1,36
6,1,0,6,4.0592,1,0,37
6,1,0,4,2.0709,4,0,38
6,1,0,3,2.0688,7,0,39
6,1,0,4,2.6003,10,0,40
6,0,0,3,2.3204,13,1,41
6,0,1,18,11.4311,13,0,42
6,0,1,2,3.3517,16,0,43
6,0,0,6,2.0855,19,1,44
6,1,1,6,2.163,19,1,45
6,0,0,2,3.402,16,1,46
6,0,1,6,2.863,13,0,47
6,1,1,5,2.4204,16,1,48
6,0,0,43,2.274,16,1,49
6,0,0,17,2.4427,13,1,50
6,1,0,2,3.187,10,0,51
6,1,1,17,1.9805,13,1,52
6,1,1,7,2.1244,13,1,53
6,0,0,3,2.4854,10,1,54
6,0,1,10,1.8954,7,0,55
6,1,1,9,2.2746,10,1,56
6,1,0,2,2.3666,10,0,57
6,0,0,4,1.9131,13,1,58
6,0,0,7,2.0293,13,1,59
6,1,0,3,2.376,10,0,60
6,0,0,5,2.1277,13,1,1
6,1,0,4,27.5292,13,0,2
6,0,0,4,2.3401,16,1,3
6,0,0,8,1.9523,16,1,4
6,0,0,3,2.3394,13,1,5
6,0,0,4,2.025,10,1,6
6,1,0,4,2.3793,7,0,7
6,0,0,5,1.9121,10,1,8
6,0,0,4,2.4809,10,1,9
6,1,0,18,3.2461,7,0,10
6,1,1,23,2.0136,10,1,11
6,1,1,24,2.088,10,1,12
6,1,1,8,2.6351,7,1,13
6,0,0,6,2.0695,4,1,14
6,1,0,7,1.8804,1,0,15
6,0,0,6,1.9906,4,1,16
6,0,1,12,2.1138,4,0,17
6,0,0,8,2.0763,7,1,18
6,1,1,9,1.9075,7,1,19
6,1,0,6,2.2326,4,0,20
6,0,0,5,1.9609,7,1,21
6,1,1,6,43.7521,7,1,22
6,0,0,5,2.1946,4,1,23
6,1,1,38,2.5064,1,1,24
6,0,1,6,2.3797,1,0,25
6,0,1,7,2.2301,4,0,26
6,1,0,14,2.0616,7,0,27
6,0,0,8,2.1873,10,1,28
6,1,1,9,1.8023,10,1,29
6,0,0,6,2.1852,7,1,30
6,0,1,30,1.91,4,0,31
6,1,1,5,2.1139,7,1,32
6,1,0,2,2.181,7,0,33
6,0,1,4,2.3231,10,0,34
6,0,0,9,1.9616,13,1,35
6,0,0,5,2.2028,13,1,36
6,0,0,2,2.1356,10,1,37
6,0,1,10,2.2175,7,0,38
6,0,1,2,14.8444,10,0,39
6,0,0,12,2.0043,13,1,40
6,1,0,4,2.0331,13,0,41
6,0,0,4,2.0349,16,1,42
6,1,1,6,2.1471,16,1,43
6,0,0,13,1.9786,13,1,44
6,0,0,22,1.8506,10,1,45
6,1,0,4,2.0305,7,0,46
6,1,1,13,1.8939,10,1,47
6,1,1,3,2.0098,10,1,48
6,1,0,4,2.0382,7,0,49
6,0,1,5,1.9109,10,0,50
6,1,1,9,2.2225,13,1,51
6,1,0,3,1.9935,13,0,52
6,0,0,14,2.1421,16,1,53
6,0,0,32,2.6553,16,1,54
6,0,0,15,1.9541,13,1,55
6,0,0,13,2.1485,10,1,56
6,1,0,2,2.7885,7,0,57
6,0,0,6,2.0442,10,1,58
6,0,0,21,2.1575,10,1,59
6,0,0,12,2.0781,7,1,60
6,0,0,21,2.1395,4,1,1
6,1,0,12,2.354,1,0,2
6,1,1,13,1.9497,4,1,3
6,0,0,15,1.8618,4,1,4
6,1,0,6,2.5073,1,0,5
6,1,1,5,1.8106,4,1,6
6,0,1,17,1.9031,4,0,7
6,1,1,6,2.0522,7,1,8
6,1,1,4,2.6648,7,1,9
6,1,1,3,2.6932,4,1,10
6,0,0,12,1.8642,1,1,11
6,0,1,3,2.1046,1,0,12
6,1,0,4,2.2421,4,0,13
6,1,0,5,2.38,7,0,14
6,1,1,25,2.4583,10,1,15
6,0,0,9,1.9684,10,1,16
6,1,1,5,1.7456,7,1,17
6,1,1,5,2.0128,4,1,18
6,0,0,5,1.7944,1,1,19
6,1,1,12,1.9223,1,1,20
6,1,0,9,1.8644,1,0,21
6,1,0,6,1.7809,4,0,22
6,0,0,3,1.9333,7,1,23
6,1,0,4,1.6349,7,0,24
6,0,0,6,1.8921,10,1,25
6,0,0,3,1.922,10,1,26
6,0,0,3,1.9673,7,1,27
6,0,0,41,2.5505,4,1,28
6,0,1,20,1.8825,1,0,29
6,1,0,6,2.2848,4,0,30
6,0,0,4,1.7921,7,1,31
6,0,0,5,1.8675,7,1,32
6,1,1,7,1.9041,4,1,33
6,1,1,3,2.266,1,1,34
6,0,1,3,2.3079,1,0,35
6,1,1,7,1.7552,4,1,36
6,1,0,3,1.8622,4,0,37
6,1,0,4,1.8357,7,0,38
6,0,0,4,1.9825,10,1,39
6,0,0,7,1.6207,10,1,40
6,1,0,8,1.7296,7,0,41
6,0,0,11,1.7391,10,1,42
6,1,0,4,1.868,10,0,43
6,0,0,37,2.9366,13,1,44
6,1,0,5,1.9799,13,0,45
6,0,0,6,1.9881,16,1,46
6,0,0,6,3.0618,16,1,47
6,0,0,10,1.7457,13,1,48
6,0,0,4,1.9136,10,1,49
6,0,0,4,1.957,7,1,50
6,0,0,32,1.9713,4,1,51
6,1,1,24,1.9898,1,1,52
6,1,1,4,2.0423,1,1,53
6,0,1,7,2.1399,1,0,54
6,0,0,12,1.8406,4,1,55
6,1,1,4,2.2366,4,1,56
6,0,0,36,2.149,1,1,57
6,1,0,10,1.9962,1,0,58
6,0,0,6,2.0128,4,1,59
6,0,0,5,1.8239,4,1,60
7,0,1,32,5.399,39,0,1
7,1,1,40,3.922,42,1,2
7,1,1,50,4.058,42,1,3
7,1,1,50,3.696,42,1,4
7,0,0,47,5.167,45,1,5
7,1,1,49,4.89,45,1,6
7,0,0,50,4.649,42,1,7
7,1,0,50,6.681,39,0,8
7,1,1,49,3.881,42,1,9
7,0,0,49,4.329,36,1,10
7,0,0,49,2.937,30,1,11
7,0,0,50,4.458,33,1,12
7,1,1,50,4.714,27,1,13
7,1,1,42,3.018,21,1,14
7,0,0,50,3.306,15,1,15
7,0,0,50,4.057,12,1,16
7,1,0,49,4.601,15,0,17
7,1,1,15,5.256,18,1,18
7,0,0,49,3.121,15,1,19
7,1,0,48,2.474,12,0,20
7,1,1,40,3.561,15,1,21
7,0,0,43,2.794,15,1,22
7,1,1,37,3.225,12,1,23
7,1,1,36,3.969,9,1,24
7,1,0,25,2.913,6,0,25
7,1,1,39,3.577,9,1,26
7,0,0,24,4.056,9,1,27
7,0,0,43,2.665,6,1,28
7,0,0,46,4.303,3,1,29
7,1,0,46,2.921,1,0,30
7,0,0,43,2.513,4,1,31
7,0,0,40,2.658,4,1,1
7,0,0,39,7.825,1,1,2
7,0,0,39,3.448,1,1,3
7,0,0,43,3.073,1,1,4
7,0,0,42,2.785,1,1,5
7,1,0,46,3.432,1,0,6
7,1,0,40,3.168,4,0,7
7,0,0,45,3.138,7,1,8
7,1,0,44,3.065,7,0,9
7,1,0,41,2.978,10,0,10
7,1,0,38,2.753,13,0,11
7,1,1,50,4.058,16,1,12
7,0,0,45,2.913,16,1,13
7,0,0,48,2.961,13,1,14
7,0,1,49,3.881,10,0,15
7,1,0,45,3.497,13,0,16
7,1,1,46,3.13,16,1,17
7,0,0,42,2.521,16,1,18
7,0,1,42,2.649,10,0,19
7,1,0,46,2.537,13,0,20
7,0,1,41,3.329,16,0,21
7,0,0,37,2.442,19,1,22
7,1,0,26,2.793,19,0,23
7,1,1,43,2.833,22,1,24
7,1,1,25,58.441,22,1,25
7,1,0,36,2.777,19,0,26
7,0,0,37,2.081,22,1,27
7,0,1,32,3.185,22,0,28
7,1,0,27,2.77,25,0,29
7,0,0,34,2.785,28,1,30
7,0,1,3,12.833,28,0,31
7,1,1,26,2.561,31,1,32
7,0,0,33,2.433,31,1,33
7,1,1,21,2.729,28,1,34
7,1,1,35,2.338,25,1,35
7,0,0,21,2.385,22,1,36
7,1,1,37,2.586,19,1,37
7,0,0,29,2.497,16,1,38
7,0,1,25,3.178,13,0,39
7,0,0,35,2.697,16,1,40
7,1,0,24,2.337,16,0,41
7,1,0,26,2.905,19,0,42
7,1,1,24,2.313,22,1,43
7,1,0,20,2.361,22,0,44
7,0,1,38,2.681,25,0,45
7,1,1,33,2.569,28,1,46
7,0,0,20,2.753,28,1,47
7,1,1,25,2.297,25,1,48
7,1,0,23,3.217,22,0,49
7,0,0,20,2.745,25,1,50
7,0,0,43,2.521,25,1,51
7,0,1,24,2.482,22,0,52
7,1,1,33,3.017,25,1,53
7,0,1,28,2.586,25,0,54
7,1,1,34,2.665,28,1,55
7,0,0,20,2.818,28,1,56
7,1,1,17,2.337,25,1,57
7,0,1,22,5.002,22,0,58
7,1,1,28,3.105,25,1,59
7,1,1,35,2.97,25,1,1
7,1,0,22,2.873,22,0,2
7,0,0,30,2.722,25,1,3
7,1,1,40,2.777,25,1,4
7,1,1,34,2.473,22,1,5
7,0,0,24,2.609,19,1,6
7,1,0,27,2.473,16,0,7
7,1,1,27,2.713,19,1,8
7,1,0,20,3.329,19,0,9
7,1,1,32,2.61,22,1,10
7,0,0,31,2.881,22,1,11
7,0,0,15,2.825,19,1,12
7,1,1,22,2.633,16,1,13
7,1,1,37,3.753,13,1,14
7,1,0,27,3.937,10,0,15
7,0,0,30,2.633,13,1,16
7,0,1,14,3.273,13,0,17
7,0,0,23,2.49,16,1,18
7,1,0,38,2.809,16,0,19
7,0,0,47,2.697,19,1,20
7,0,0,45,2.706,19,1,21
7,1,1,23,3.273,16,1,22
7,0,0,17,2.465,13,1,23
7,1,0,21,2.586,10,0,24
7,0,0,24,2.064,13,1,25
7,0,0,36,3.257,13,1,26
7,1,1,30,3.561,10,1,27
7,0,1,32,3.224,7,0,28
7,0,0,33,2.537,10,1,29
7,0,1,34,2.369,10,0,30
7,1,0,41,5.906,13,0,31
7,1,1,35,2.833,16,1,32
7,1,0,23,2.208,16,0,33
7,0,1,26,3.728,19,0,34
7,1,1,31,5.361,22,1,35
7,1,1,40,2.249,22,1,36
7,1,1,50,3.809,19,1,37
7,0,0,35,2.225,16,1,38
7,0,0,43,2.625,13,1,39
7,1,1,25,2.752,10,1,40
7,0,0,14,2.425,7,1,41
7,1,0,31,2.915,4,0,42
7,0,1,21,2.721,7,0,43
7,0,1,25,5.497,10,0,44
7,0,0,10,2.713,13,1,45
7,1,1,20,2.785,13,1,46
7,1,1,28,8.464,10,1,47
7,1,0,18,2.345,7,0,48
7,0,0,18,2.697,10,1,49
7,1,1,25,2.122,10,1,50
7,1,1,33,2.561,7,1,51
7,0,0,15,2.561,4,1,52
7,0,1,18,4.113,1,0,53
7,1,0,20,2.129,4,0,54
7,1,0,19,1.97,7,0,55
7,1,1,13,2.305,10,1,56
7,0,1,25,2.826,10,0,57
7,1,0,18,3.904,13,0,58
7,0,1,13,2.618,16,0,59
7,1,0,20,2.16,19,0,1
7,0,0,45,3.008,22,1,2
7,1,1,14,2.393,22,1,3
7,1,1,29,2.514,19,1,4
7,1,1,37,3.121,16,1,5
7,1,0,18,2.617,13,0,6
7,0,1,17,2.273,16,0,7
7,1,1,22,2.714,19,1,8
7,1,1,24,2.905,19,1,9
7,1,1,29,2.241,16,1,10
7,0,1,24,4.209,13,0,11
7,1,0,27,2.401,16,0,12
7,1,1,18,2.089,19,1,13
7,1,1,25,2.497,19,1,14
7,0,0,19,9.682,16,1,15
7,0,1,7,3.441,13,0,16
7,0,1,14,2.977,16,0,17
7,1,1,16,3.512,19,1,18
7,1,1,9,4.408,19,1,19
7,0,0,23,8.105,16,1,20
7,1,0,28,2.105,13,0,21
7,0,0,21,2.305,16,1,22
7,1,1,13,2.241,16,1,23
7,1,1,21,2.314,13,1,24
7,1,0,9,3.233,10,0,25
7,1,1,16,2.432,13,1,26
7,0,0,11,2.121,13,1,27
7,0,1,21,2.297,10,0,28
7,0,0,8,2.01,13,1,29
7,0,1,17,3.089,13,0,30
7,1,1,13,2.425,16,1,31
7,1,1,5,3.753,16,1,32
7,0,1,15,2.193,13,0,33
7,1,0,24,3.792,16,0,34
7,1,1,17,2.321,19,1,35
7,1,1,18,3.001,19,1,36
7,1,1,14,2.929,16,1,37
7,0,1,28,7.112,13,0,38
7,0,1,17,2.618,16,0,39
7,1,0,10,2.193,19,0,40
7,0,1,9,2.161,22,0,41
7,1,1,13,1.864,25,1,42
7,0,0,13,2.193,25,1,43
7,1,1,16,1.985,22,1,44
7,0,1,26,3.049,19,0,45
7,0,1,18,4.233,22,0,46
7,0,0,11,2.593,25,1,47
7,0,0,16,3.304,25,1,48
7,1,1,17,4.817,22,1,49
7,0,0,13,2.343,19,1,50
7,1,0,18,2.858,16,0,51
7,0,1,7,6.343,19,0,52
7,0,0,13,3.705,22,1,53
7,1,1,8,3.254,22,1,54
7,1,1,19,4.017,19,1,55
7,0,1,13,2.994,16,0,56
7,1,1,18,2.402,19,1,57
7,1,1,8,7.039,19,1,58
7,1,0,6,2.217,16,0,59
7,1,1,11,3.225,19,1,60
8,1,0,46,4.3294,18,0,1
8,1,1,49,4.3805,21,1,2
8,1,0,49,5.7053,18,0,3
8,0,0,49,3.5994,21,1,4
8,0,0,49,3.8215,18,1,5
8,0,0,49,4.3148,15,1,6
8,1,1,50,2.8948,12,1,7
8,1,1,49,3.1652,12,1,8
8,0,0,49,3.2057,12,1,9
8,1,1,50,2.7648,9,1,10
8,0,1,50,2.9495,9,0,11
8,1,1,50,3.6734,12,1,12
8,0,0,50,2.5327,6,1,13
8,0,1,50,2.5492,3,0,14
8,1,1,49,2.9046,6,1,15
8,0,1,48,2.9835,1,0,16
8,1,1,50,2.6314,7,1,17
8,0,0,49,17.6912,1,1,18
8,0,0,49,2.9684,1,1,19
8,0,0,49,3.1526,1,1,20
8,1,1,50,2.9414,1,1,21
8,0,1,50,3.2252,1,0,22
8,0,0,49,2.7501,4,1,23
8,0,0,50,3.1942,4,1,24
8,0,1,50,2.9558,7,0,25
8,0,0,49,2.7972,10,1,26
8,0,1,49,3.335,4,0,1
8,1,0,50,2.9465,7,0,2
8,0,0,50,3.6175,10,1,3
8,1,1,37,6.027,10,1,4
8,1,1,49,2.9523,10,1,5
8,0,1,49,2.9061,4,0,6
8,0,1,47,3.0864,7,0,7
8,1,1,50,3.3702,10,1,8
8,1,0,50,2.7359,7,0,9
8,1,0,50,2.9102,4,0,10
8,1,1,50,2.7151,7,1,11
8,1,0,50,2.7248,4,0,12
8,1,1,50,5.315,7,1,13
8,1,0,50,3.0442,7,0,14
8,0,0,50,4.8244,10,1,15
8,1,0,50,3.1017,10,0,16
8,0,0,50,2.8121,7,1,17
8,1,0,50,3.9785,4,0,18
8,1,1,48,2.9262,7,1,19
8,0,1,49,3.1178,7,0,20
8,1,0,50,2.966,10,0,21
8,0,0,50,4.4363,13,1,22
8,1,1,49,2.7667,10,1,23
8,1,1,49,2.8537,7,1,24
8,0,0,49,2.7868,4,1,25
8,0,0,50,3.3742,1,1,26
8,1,1,49,2.8784,1,1,27
8,0,0,50,3.0788,1,1,28
8,0,0,49,2.8883,1,1,29
8,1,1,47,4.1735,1,1,30
8,1,1,50,2.9023,1,1,31
8,1,1,48,2.8583,1,1,32
8,0,0,50,3.4351,1,1,33
8,0,0,50,2.9968,10,1,34
8,1,0,48,4.8021,7,0,1
8,1,1,48,2.9621,10,1,2
8,1,0,49,3.7336,10,0,3
8,0,1,46,3.3191,13,0,4
8,0,0,48,2.6422,16,1,5
8,1,1,42,2.9298,16,1,6
8,0,0,50,2.7771,13,1,7
8,1,0,50,2.854,10,0,8
8,1,1,49,3.0899,13,1,9
8,1,0,49,3.1149,10,0,10
8,1,1,45,2.8132,13,1,11
8,0,0,50,2.7033,16,1,12
8,1,1,50,2.6675,13,1,13
8,1,0,49,3.5827,10,0,14
8,1,0,50,2.9691,7,0,15
8,0,1,49,3.3627,16,0,16
8,0,0,49,2.7562,16,1,17
8,1,0,50,3.3978,13,0,18
8,1,0,49,2.8667,16,0,19
8,0,1,48,4.3573,19,0,20
8,1,1,49,3.4301,22,1,21
8,1,1,49,2.6563,22,1,22
8,1,1,50,3.3376,19,1,23
8,0,0,49,4.3128,13,1,24
8,1,0,48,3.2199,10,0,25
8,1,1,49,3.0168,13,1,26
8,0,0,50,2.7614,13,1,27
8,1,1,49,2.6306,7,1,28
8,0,0,50,2.8517,4,1,29
8,1,1,49,3.1484,1,1,30
8,1,0,47,5.2656,1,0,31
8,1,0,48,2.7894,7,0,32
8,0,0,49,3.0594,10,1,33
8,1,0,50,4.6291,4,0,1
8,0,0,49,3.1363,4,1,2
8,1,0,49,3.2604,1,0,3
8,1,0,50,3.332,7,0,4
8,0,0,50,2.7185,10,1,5
8,0,0,48,2.809,7,1,6
8,1,0,49,2.7338,4,0,7
8,1,1,49,2.9995,7,1,8
8,0,0,50,2.6433,4,1,9
8,1,0,50,2.7549,1,0,10
8,0,1,49,3.9867,4,0,11
8,1,1,50,3.1622,7,1,12
8,1,0,48,2.7335,7,0,13
8,0,0,50,3.2606,7,1,14
8,1,1,50,3.8204,7,1,15
8,1,1,48,2.5746,10,1,16
8,1,0,49,2.9806,4,0,17
8,0,0,49,3.0845,7,1,18
8,1,1,46,2.6775,4,1,19
8,0,0,49,2.7451,1,1,20
8,0,0,50,2.8372,1,1,21
8,1,1,49,3.037,1,1,22
8,1,1,50,3.094,1,1,23
8,0,1,49,3.1627,1,0,24
8,0,0,50,2.6755,7,1,25
8,1,1,49,3.0334,4,1,26
8,1,1,49,2.7195,1,1,27
8,0,0,49,3.2888,1,1,28
8,0,1,50,2.8585,1,0,29
8,0,1,49,3.1926,4,0,30
8,1,1,50,3.3392,7,1,31
9,1,1,45,2.647,27,1,1
9,0,1,44,2.8908,24,0,2
9,0,0,38,3.0582,27,1,3
9,0,1,44,2.5106,27,0,4
9,1,1,43,2.1569,30,1,5
9,0,0,41,2.023,30,1,6
9,0,0,40,2.0277,27,1,7
9,0,0,41,2.0989,24,1,8
9,1,0,35,3.4242,21,0,9
9,1,1,41,2.0243,24,1,10
9,0,0,37,2.3121,24,1,11
9,0,0,41,2.4953,21,1,12
9,0,0,43,2.0101,18,1,13
9,1,1,43,2.3815,15,1,14
9,1,0,41,2.0148,12,0,15
9,0,1,36,3.0168,15,0,16
9,1,0,39,2.5755,18,0,17
9,1,1,49,2.5201,21,1,18
9,0,0,41,3.4067,21,1,19
9,1,1,49,2.1723,18,1,20
9,1,1,43,2.2762,15,1,21
9,0,1,42,2.1377,12,0,22
9,1,1,40,2.054,15,1,23
9,0,0,39,2.2633,15,1,24
9,1,1,41,1.845,12,1,25
9,0,1,45,2.4586,9,0,26
9,1,1,44,2.1721,12,1,27
9,0,1,44,1.8532,12,0,28
9,0,0,43,2.7119,15,1,29
9,0,1,41,1.8886,15,0,30
9,0,0,43,2.0876,18,1,31
9,1,1,44,2.0309,18,1,32
9,0,0,40,2.0467,15,1,33
9,0,1,43,1.6288,12,0,34
9,0,0,42,1.7739,15,1,35
9,1,1,41,1.9116,15,1,36
9,1,1,42,1.8978,12,1,37
9,1,1,44,2.005,9,1,38
9,1,1,44,1.8228,6,1,39
9,1,1,41,2.1402,3,1,40
9,0,1,44,1.9106,1,0,41
9,0,0,39,1.9029,4,1,42
9,1,0,43,2.4288,4,0,43
9,1,1,35,2.3447,7,1,44
9,1,1,40,1.6609,7,1,45
9,0,1,39,2.3887,4,0,46
9,0,1,43,2.3575,7,0,47
9,1,1,40,1.71,10,1,48
9,1,1,41,1.7036,10,1,49
9,0,0,37,1.9657,7,1,50
9,0,1,34,1.9157,4,0,51
9,0,0,35,1.7908,7,1,52
9,0,0,38,1.9332,7,1,53
9,1,0,40,1.7402,4,0,54
9,1,1,38,1.6588,7,1,55
9,1,1,42,1.6118,7,1,56
9,1,0,36,2.0037,4,0,57
9,0,1,38,1.5727,7,0,58
9,1,0,38,1.6896,10,0,59
9,1,0,41,2.0304,13,0,60
9,0,0,33,1.5905,16,1,1
9,1,1,39,1.8926,16,1,2
9,1,1,35,2.8157,13,1,3
9,0,1,29,3.078,10,0,4
9,0,0,40,1.9817,13,1,5
9,0,1,32,1.7721,13,0,6
9,1,1,34,1.6624,16,1,7
9,1,1,30,1.9643,16,1,8
9,1,1,38,1.7085,13,1,9
9,1,1,26,1.9437,10,1,10
9,0,1,36,1.8447,7,0,11
9,0,0,34,1.657,10,1,12
9,1,1,46,1.9343,10,1,13
9,0,1,38,2.0156,7,0,14
9,0,0,36,1.6752,10,1,15
9,0,0,40,1.9828,10,1,16
9,0,1,40,1.5134,7,0,17
9,1,1,34,1.64,10,1,18
9,0,0,39,1.6897,10,1,19
9,1,1,42,1.7208,7,1,20
9,0,0,38,1.7332,4,1,21
9,1,1,34,1.9418,1,1,22
9,0,0,37,2.0327,1,1,23
9,1,1,41,1.7215,1,1,24
9,1,0,33,1.517,1,0,25
9,1,0,40,1.7477,4,0,26
9,1,1,34,1.6992,7,1,27
9,1,1,33,1.6519,7,1,28
9,0,1,33,2.4061,4,0,29
9,0,0,39,1.6572,7,1,30
9,0,1,31,1.7498,7,0,31
9,1,1,49,1.9417,10,1,32
9,1,1,20,2.3344,7,1,33
9,0,1,29,2.3655,4,0,34
9,1,0,32,2.0105,7,0,35
9,0,0,49,1.8669,10,1,36
9,0,0,42,1.7727,10,1,37
9,1,1,46,1.8433,7,1,38
9,0,1,42,1.5167,4,0,39
9,0,0,32,1.9525,7,1,40
9,1,1,37,1.6661,7,1,41
9,1,1,49,2.1423,4,1,42
9,0,1,29,1.9398,1,0,43
9,1,1,29,1.8281,4,1,44
9,0,0,32,1.6367,4,1,45
9,0,0,30,1.6301,1,1,46
9,0,1,22,1.747,1,0,47
9,1,0,32,1.7723,4,0,48
9,0,1,26,2.0228,7,0,49
9,0,0,27,1.8034,10,1,50
9,0,1,24,1.5876,10,0,51
9,1,1,36,1.5627,13,1,52
9,1,1,19,1.7019,13,1,53
9,0,0,28,1.6204,10,1,54
9,0,1,31,1.5471,7,0,55
9,0,0,25,1.6129,10,1,56
9,0,0,33,1.6316,10,1,57
9,0,1,22,1.6938,7,0,58
9,0,1,30,1.899,10,0,59
9,0,0,35,1.8925,13,1,1
9,0,1,32,1.677,13,0,2
9,1,1,28,1.6457,16,1,3
9,0,0,29,1.7966,16,1,4
9,0,1,48,2.1016,13,0,5
9,0,0,37,1.7654,16,1,6
9,1,1,33,1.5724,16,1,7
9,1,1,32,1.4762,13,1,8
9,1,1,29,1.6749,10,1,9
9,1,1,16,2.1818,7,1,10
9,1,1,30,1.5894,4,1,11
9,0,1,28,1.6282,1,0,12
9,1,1,25,1.7257,4,1,13
9,1,1,26,1.4773,4,1,14
9,0,1,27,1.6858,1,0,15
9,0,1,21,2.4632,4,0,16
9,0,1,31,1.4673,7,0,17
9,1,1,30,1.5022,10,1,18
9,1,1,33,1.5414,10,1,19
9,1,1,33,1.7799,7,1,20
9,1,1,30,1.6765,4,1,21
9,1,1,24,2.021,1,1,22
9,0,1,20,1.9098,1,0,23
9,1,1,26,2.0535,4,1,24
9,1,1,34,1.5562,4,1,25
9,1,1,23,3.4387,1,1,26
9,1,1,30,1.5711,1,1,27
9,0,0,25,2.101,1,1,28
9,1,1,24,1.5633,1,1,29
9,1,1,31,1.6369,1,1,30
9,1,0,30,1.8528,1,0,31
9,1,1,26,1.9175,4,1,32
9,0,1,25,1.7743,4,0,33
9,0,1,26,1.4039,7,0,34
9,1,1,33,1.4848,10,1,35
9,0,0,38,1.7153,10,1,36
9,1,0,39,1.9819,7,0,37
9,0,0,29,2.0218,10,1,38
9,1,1,32,1.894,10,1,39
9,0,0,26,1.6207,7,1,40
9,0,1,22,1.6287,4,0,41
9,0,0,26,2.084,7,1,42
9,1,1,34,1.6306,7,1,43
9,1,1,32,1.6059,4,1,44
9,1,1,37,1.9397,1,1,45
9,0,1,32,1.6518,1,0,46
9,1,1,32,1.5184,4,1,47
9,1,1,26,1.904,4,1,48
9,0,1,25,1.9399,1,0,49
9,0,1,24,2.0628,4,0,50
9,1,1,32,1.718,7,1,51
9,1,1,27,1.4356,7,1,52
9,1,1,27,1.926,4,1,53
9,1,0,29,2.0769,1,0,54
9,1,1,19,1.7254,4,1,55
9,0,1,29,2.0838,4,0,56
9,0,1,25,1.4773,7,0,57
9,1,1,21,1.5239,10,1,58
9,1,1,16,1.8706,10,1,59
9,0,1,17,1.4938,7,0,60
9,0,0,23,1.8429,10,1,1
9,0,1,16,1.5709,10,0,2
9,0,1,20,1.6834,13,0,3
9,1,1,28,1.6908,16,1,4
9,1,1,35,1.5291,16,1,5
9,0,1,36,1.623,13,0,6
9,1,1,22,1.5028,16,1,7
9,0,0,29,1.6905,16,1,8
9,1,1,17,2.3482,13,1,9
9,0,1,23,1.6036,10,0,10
9,0,0,23,1.5004,13,1,11
9,1,1,39,1.5488,13,1,12
9,1,1,39,1.7431,10,1,13
9,0,1,29,1.5496,7,0,14
9,1,1,28,1.3146,10,1,15
9,1,1,26,1.5656,10,1,16
9,1,1,32,1.7458,7,1,17
9,1,1,36,1.6567,4,1,18
9,0,1,33,1.5487,1,0,19
9,1,1,31,1.5127,4,1,20
9,1,0,30,1.788,4,0,21
9,1,1,25,1.6677,7,1,22
9,0,0,29,1.614,7,1,23
9,1,1,38,1.6626,4,1,24
9,1,1,34,1.685,1,1,25
9,1,1,28,2.5496,1,1,26
9,0,1,24,1.6457,1,0,27
9,0,1,27,1.4513,4,0,28
9,1,1,20,1.6541,7,1,29
9,1,1,32,1.4457,7,1,30
9,1,1,22,1.6209,4,1,31
9,1,1,23,1.4584,1,1,32
9,1,0,31,1.7505,1,0,33
9,0,0,31,1.629,4,1,34
9,1,1,30,1.4162,4,1,35
9,0,0,34,1.4903,1,1,36
9,1,0,28,1.7816,1,0,37
9,0,1,30,1.7074,4,0,38
9,0,0,36,1.8529,7,1,39
9,1,0,29,1.9484,7,0,40
9,0,0,39,1.4915,10,1,41
9,0,1,25,1.3962,10,0,42
9,0,1,10,1.7411,13,0,43
9,0,0,37,1.4754,16,1,44
9,1,0,31,1.5153,16,0,45
9,1,1,32,2.0677,19,1,46
9,1,1,36,2.478,19,1,47
9,0,0,30,1.9179,16,1,48
9,1,1,30,1.3776,13,1,49
9,0,0,37,1.5482,10,1,50
9,1,0,38,1.9255,7,0,51
9,1,1,28,1.4704,10,1,52
9,1,1,16,2.1586,10,1,53
9,0,0,37,1.431,7,1,54
9,1,1,34,1.9734,4,1,55
9,1,0,37,1.3395,1,0,56
9,1,0,35,1.6455,4,0,57
9,0,1,40,1.925,7,0,58
9,1,1,46,1.8686,10,1,59
9,0,0,44,1.6682,10,1,60
10,0,0,47,3.3203,24,1,1
10,0,0,47,2.7905,24,1,2
10,0,0,49,2.4741,21,1,3
10,1,0,49,2.8796,18,0,4
10,0,0,35,3.4234,21,1,5
10,1,1,24,3.3616,21,1,6
10,0,0,49,3.049,18,1,7
10,0,0,41,4.5104,15,1,8
10,1,1,35,2.5806,12,1,9
10,0,1,37,2.2245,9,0,10
10,0,1,43,2.3447,12,0,11
10,0,0,45,2.4002,15,1,12
10,0,1,32,3.3996,15,0,13
10,0,0,48,2.4326,18,1,14
10,1,0,49,2.1832,18,0,15
10,1,0,48,2.2482,21,0,16
10,1,1,38,4.7346,24,1,17
10,1,0,45,2.3421,24,0,18
10,1,1,34,2.9208,27,1,19
10,0,0,42,3.0529,27,1,20
10,1,0,49,3.3774,24,0,21
10,1,0,46,2.0642,27,0,22
10,0,0,46,2.7589,30,1,23
10,1,1,39,5.2492,30,1,24
10,0,1,42,3.1499,27,0,25
10,1,1,37,3.6879,30,1,26
10,0,0,41,2.3343,30,1,27
10,0,0,49,2.2631,27,1,28
10,1,1,37,6.7521,24,1,29
10,0,0,43,3.6472,21,1,30
10,1,1,36,4.5035,18,1,31
10,1,1,45,2.2468,15,1,32
10,0,0,46,2.4246,12,1,33
10,1,0,45,1.9583,9,0,34
10,0,0,39,3.6937,12,1,35
10,1,0,47,2.8711,12,0,36
10,0,0,48,1.9985,15,1,37
10,0,0,47,2.3455,15,1,38
10,1,1,45,2.4885,12,1,39
10,1,0,49,2.8897,9,0,40
10,0,0,48,2.1524,12,1,41
10,1,0,47,1.9925,12,0,42
10,1,0,50,2.8075,15,0,43
10,1,1,46,2.6317,18,1,44
10,1,1,46,2.3038,18,1,45
10,1,0,47,2.1533,15,0,46
10,1,0,46,2.4146,18,0,47
10,0,0,50,2.1975,21,1,48
10,0,0,48,2.6084,21,1,49
10,0,0,49,3.0975,18,1,50
10,0,1,48,2.5456,15,0,51
10,1,1,47,3.1994,18,1,52
10,0,0,48,4.8421,18,1,53
10,1,0,48,2.6001,15,0,54
10,0,0,49,2.0849,18,1,55
10,0,0,48,2.1689,18,1,56
10,0,0,45,2.1121,15,1,57
10,1,1,44,2.2956,12,1,58
10,1,1,47,2.287,9,1,59
10,0,0,48,2.856,6,1,60
10,0,0,49,2.2022,3,1,1
10,0,0,49,2.6247,1,1,2
10,1,0,47,2.2367,1,0,3
10,1,1,43,2.9041,4,1,4
10,0,1,47,2.2799,4,0,5
10,0,1,46,2.6795,7,0,6
10,1,0,48,2.1357,10,0,7
10,0,0,48,2.2408,13,1,8
10,0,1,47,2.7123,13,0,9
10,1,1,47,3.1592,16,1,10
10,1,0,50,3.0415,16,0,11
10,0,0,49,2.1988,19,1,12
10,1,0,49,2.8727,19,0,13
10,1,1,47,2.7052,22,1,14
10,0,0,47,1.8646,22,1,15
10,0,0,47,3.6223,19,1,16
10,0,1,43,2.3578,16,0,17
10,1,0,47,2.1039,19,0,18
10,1,1,44,2.7267,22,1,19
10,0,1,45,2.1518,22,0,20
10,0,0,47,2.5205,25,1,21
10,0,0,47,1.7297,25,1,22
10,0,0,47,2.1603,22,1,23
10,0,0,46,2.6562,19,1,24
10,0,0,46,2.0667,16,1,25
10,0,0,45,2.2298,13,1,26
10,0,0,46,2.3752,10,1,27
10,1,1,42,2.6545,7,1,28
10,0,0,46,2.4319,4,1,29
10,0,1,43,2.671,1,0,30
10,0,1,47,2.7447,4,0,31
10,1,1,47,3.0036,7,1,32
10,1,1,48,2.2418,7,1,33
10,1,0,45,2.4712,4,0,34
10,0,0,47,2.2177,7,1,35
10,1,1,48,2.1837,7,1,36
10,0,1,49,2.4136,4,0,37
10,0,1,50,2.591,7,0,38
10,0,1,49,2.6645,10,0,39
10,1,1,47,2.6251,13,1,40
10,0,1,46,4.5451,13,0,41
10,0,0,47,2.0075,16,1,42
10,1,1,48,3.193,16,1,43
10,0,0,48,2.0776,13,1,44
10,0,1,50,2.5357,10,0,45
10,0,0,46,2.8074,13,1,46
10,0,0,48,2.1193,13,1,47
10,0,0,46,4.2089,10,1,48
10,0,0,43,2.1114,7,1,49
10,0,0,45,1.9359,4,1,50
10,1,1,46,3.3447,1,1,51
10,0,1,47,2.5365,1,0,52
10,0,0,45,2.4159,4,1,53
10,1,1,46,2.0791,4,1,54
10,1,1,49,2.6396,1,1,55
10,1,1,45,2.2795,1,1,56
10,0,1,46,1.9931,1,0,57
10,0,0,49,2.6887,4,1,58
10,0,1,47,2.3133,4,0,59
10,1,1,43,3.7705,7,1,60
10,1,0,37,4.5058,7,0,1
10,1,0,49,2.16,10,0,2
10,1,0,46,2.4168,13,0,3
10,0,0,46,2.2093,16,1,4
10,0,0,45,1.9522,16,1,5
10,1,0,42,2.6714,13,0,6
10,1,1,48,1.9018,16,1,7
10,0,0,43,2.4968,16,1,8
10,0,0,46,2.4567,13,1,9
10,1,1,44,1.7837,10,1,10
10,0,0,47,1.9592,7,1,11
10,0,0,44,2.4148,4,1,12
10,1,0,50,2.6146,1,0,13
10,1,0,47,2.009,4,0,14
10,0,0,48,1.8333,7,1,15
10,1,1,48,2.5554,7,1,16
10,0,0,46,2.7776,4,1,17
10,1,0,47,3.465,1,0,18
10,1,0,44,2.6324,4,0,19
10,0,0,48,2.0295,7,1,20
10,0,0,48,1.8713,7,1,21
10,0,1,44,2.2718,4,0,22
10,0,0,49,2.2481,7,1,23
10,1,0,47,1.9679,7,0,24
10,1,0,47,1.888,10,0,25
10,0,1,36,2.4154,13,0,26
10,1,0,48,2.3505,16,0,27
10,1,0,48,2.2166,19,0,28
10,1,1,43,1.9435,22,1,29
10,1,1,46,3.2015,22,1,30
10,1,1,40,2.3436,19,1,31
10,1,1,46,2.7841,16,1,32
10,0,1,47,2.4721,13,0,33
10,0,0,46,2.0485,16,1,34
10,0,1,46,2.576,16,0,35
10,0,0,48,2.2698,19,1,36
10,1,0,48,2.1011,19,0,37
10,1,1,46,4.4321,22,1,38
10,0,0,45,1.9691,22,1,39
10,1,0,46,1.9839,19,0,40
10,1,1,47,2.6468,22,1,41
10,0,1,48,5.8478,22,0,42
10,0,0,48,1.9978,25,1,43
10,1,1,49,1.9526,25,1,44
10,0,0,46,1.9604,22,1,45
10,0,1,48,2.3438,19,0,46
10,0,0,49,1.7522,22,1,47
10,0,0,20,3.4074,22,1,48
10,1,1,46,1.9655,19,1,49
10,1,1,49,2.0706,16,1,50
10,0,0,47,2.2156,13,1,51
10,0,0,49,1.9841,10,1,52
10,1,0,29,3.7757,7,0,53
10,1,0,46,2.0559,10,0,54
10,1,0,46,2.3463,13,0,55
10,1,0,46,2.1843,16,0,56
10,1,0,47,1.9289,19,0,57
10,0,0,47,2.4322,22,1,58
10,0,0,49,2.0079,22,1,59
10,1,1,47,2.0226,19,1,60
10,0,0,46,1.9921,16,1,1
10,0,0,47,1.9201,13,1,2
10,0,0,48,1.847,10,1,3
10,1,1,41,2.1286,7,1,4
10,1,0,34,2.1924,4,0,5
10,1,0,42,2.7283,7,0,6
10,0,0,40,2.808,10,1,7
10,0,0,46,1.8329,10,1,8
10,1,1,32,2.1038,7,1,9
10,1,0,45,1.9195,4,0,10
10,1,1,22,2.3196,7,1,11
10,1,1,43,1.8401,7,1,12
10,1,1,45,1.9286,4,1,13
10,0,1,43,2.0957,1,0,14
10,0,0,39,2.8102,4,1,15
10,1,0,39,1.9986,4,0,16
10,1,1,36,2.5128,7,1,17
10,1,0,36,1.7524,7,0,18
10,0,0,36,2.7497,10,1,19
10,0,1,37,2.3281,10,0,20
10,0,0,22,2.1356,13,1,21
10,1,0,46,1.7915,13,0,22
10,1,1,41,2.1587,16,1,23
10,0,0,44,2.165,16,1,24
10,1,1,40,1.7194,13,1,25
10,1,0,37,1.8815,10,0,26
10,0,0,36,2.1652,13,1,27
10,1,1,42,1.8011,13,1,28
10,0,0,41,1.6394,10,1,29
10,0,0,41,1.7841,7,1,30
10,0,1,41,1.8565,4,0,31
10,0,0,48,2.1451,7,1,32
10,0,0,45,1.6885,7,1,33
10,1,1,33,1.6819,4,1,34
10,1,0,37,1.6168,1,0,35
10,0,0,43,1.6792,4,1,36
10,1,1,32,3.1911,4,1,37
10,1,0,37,2.1614,1,0,38
10,1,0,42,1.9123,4,0,39
10,0,0,39,1.7518,7,1,40
10,0,0,41,1.8452,7,1,41
10,1,1,41,2.4469,4,1,42
10,1,1,43,2.8403,1,1,43
10,0,0,40,2.0805,1,1,44
10,0,1,37,3.2464,1,0,45
10,0,0,39,1.7913,4,1,46
10,0,1,37,2.215,4,0,47
10,1,0,39,2.1347,7,0,48
10,0,0,41,1.9405,10,1,49
10,0,0,42,2.0003,10,1,50
10,0,0,39,1.8398,7,1,51
10,1,0,33,2.3591,4,0,52
10,0,0,42,1.6781,7,1,53
10,1,0,44,2.0487,7,0,54
10,0,1,38,1.674,10,0,55
10,0,1,36,1.9113,13,0,56
10,0,0,37,1.8165,16,1,57
10,0,0,34,1.7433,16,1,58
10,0,0,38,1.9682,13,1,59
10,0,0,47,1.6242,10,1,60
11,0,1,19,4.5493,24,0,1
11,0,0,28,2.5008,27,1,2
11,0,0,19,2.4867,24,1,3
11,0,0,19,4.6246,21,1,4
11,1,1,29,2.9822,18,1,5
11,1,0,36,2.936,15,0,6
11,0,1,28,2.6672,18,0,7
11,1,1,50,2.1279,21,1,8
11,0,1,20,2.9484,24,0,9
11,0,0,17,2.3471,24,1,10
11,0,1,27,2.4711,21,0,11
11,0,1,50,1.7559,24,0,12
11,0,1,22,2.5734,27,0,13
11,0,0,31,2.4732,30,1,14
11,0,0,19,2.0566,24,1,15
11,1,1,45,2.3209,18,1,16
11,0,1,46,2.3373,15,0,17
11,1,1,32,1.7848,18,1,18
11,1,1,27,2.0861,18,1,19
11,0,0,24,2.1892,15,1,20
11,1,1,50,1.8609,12,1,21
11,1,0,8,2.3375,9,0,22
11,0,0,15,1.6553,9,1,23
11,1,0,19,1.4121,6,0,24
11,1,1,26,1.4434,9,1,25
11,1,1,30,1.8434,9,1,26
11,0,1,24,1.4929,6,0,27
11,0,0,20,1.9188,9,1,28
11,1,1,48,2.6548,3,1,29
11,0,0,25,2.527,1,1,30
11,0,0,23,1.6254,1,1,31
11,1,0,22,1.6646,4,0,32
11,0,0,50,2.2466,7,1,33
11,1,1,32,2.2293,4,1,34
11,0,0,32,1.7253,1,1,35
11,1,1,27,1.9707,1,1,36
11,0,0,25,2.543,1,1,37
11,0,0,15,1.6333,4,1,38
11,0,0,14,1.451,4,1,39
11,0,1,20,1.6069,1,0,1
11,0,0,15,1.3898,4,1,2
11,1,1,23,1.7039,4,1,3
11,0,0,22,1.592,1,1,4
11,0,0,20,1.6078,1,1,5
11,0,1,33,3.1462,4,0,6
11,1,0,24,1.695,7,0,7
11,1,1,50,2.3474,10,1,8
11,0,1,32,2.3229,10,0,9
11,1,1,28,1.6419,13,1,10
11,0,0,50,1.5841,13,1,11
11,0,1,20,1.5543,10,0,12
11,0,1,26,1.5387,13,0,13
11,0,0,31,2.1249,16,1,14
11,0,1,50,1.7561,13,0,15
11,0,0,50,2.6444,16,1,16
11,1,1,25,7.5446,13,1,17
11,1,1,27,1.5437,7,1,18
11,0,1,24,1.6631,1,0,19
11,0,0,34,2.2236,7,1,20
11,1,1,26,1.9144,10,1,21
11,0,1,32,1.7434,10,0,22
11,1,1,50,1.9686,13,1,23
11,0,1,21,3.6107,13,0,24
11,0,1,35,2.1268,16,0,25
11,1,0,16,1.9063,19,0,26
11,0,0,35,2.5443,22,1,27
11,0,0,50,1.6813,19,1,28
11,0,1,26,1.9463,16,0,29
11,1,1,50,2.0809,19,1,30
11,1,1,50,1.6573,19,1,31
11,0,1,15,2.5218,16,0,32
11,0,1,19,2.0653,19,0,33
11,1,1,38,2.4034,22,1,34
11,1,1,40,2.3786,19,1,35
11,1,1,33,1.5545,16,1,36
11,1,1,35,1.3223,13,1,37
11,0,1,30,1.4658,10,0,38
11,1,1,12,2.2056,13,1,39
11,1,1,50,1.9225,13,1,40
11,0,1,36,1.5378,10,0,41
11,1,0,29,2.2382,16,0,42
11,0,1,23,2.3796,19,0,43
11,1,1,50,2.5051,22,1,44
11,1,1,33,1.916,22,1,45
11,0,1,29,1.4938,19,0,46
11,0,1,28,1.9536,22,0,1
11,0,0,20,1.5411,25,1,2
11,1,1,36,1.5784,25,1,3
11,1,1,37,1.8212,22,1,4
11,1,1,33,1.4769,19,1,5
11,1,1,33,1.3422,13,1,6
11,0,0,15,1.8756,10,1,7
11,0,1,28,1.5463,7,0,8
11,0,0,26,1.5631,10,1,9
11,1,1,33,1.336,10,1,10
11,0,1,22,1.5152,7,0,11
11,1,1,38,1.5942,10,1,12
11,1,1,33,1.452,10,1,13
11,0,1,35,1.3111,7,0,14
11,0,0,23,3.054,10,1,15
11,0,1,23,1.8357,10,0,16
11,0,0,22,1.7342,13,1,17
11,1,1,21,1.5712,13,1,18
11,1,1,23,1.4683,10,1,19
11,1,1,28,1.586,7,1,20
11,0,0,6,2.8207,4,1,21
11,0,1,23,1.3837,1,0,22
11,1,0,31,2.1989,4,0,23
11,0,1,24,1.4214,7,0,24
11,1,1,21,1.7424,10,1,25
11,1,0,46,2.0477,10,0,26
11,0,1,33,1.5612,13,0,27
11,1,0,24,2.9098,16,0,28
11,1,1,20,2.8756,19,1,29
11,0,0,31,1.4697,19,1,30
11,1,0,22,1.9783,16,0,31
11,1,0,21,1.7971,19,0,32
11,0,0,24,2.0971,22,1,33
11,0,0,33,1.4851,16,1,34
11,1,1,21,1.798,13,1,35
11,0,1,24,2.2713,10,0,36
11,1,1,27,1.5841,13,1,37
11,0,0,50,2.4732,13,1,38
11,0,1,29,1.7819,10,0,39
11,0,0,31,1.9169,13,1,40
11,1,1,24,1.8527,16,1,41
11,0,1,30,1.2885,13,0,42
11,1,1,36,2.1375,16,1,43
11,0,0,39,1.8933,13,1,44
11,1,1,50,2.2858,10,1,45
11,0,1,28,1.5897,7,0,46
11,1,1,50,1.6663,10,1,47
11,1,0,15,1.8692,4,0,48
11,1,1,50,2.3262,7,1,49
11,1,0,26,1.7819,4,0,50
11,1,1,18,1.601,7,1,1
11,1,1,31,1.1848,7,1,2
11,0,1,26,1.4772,4,0,3
11,0,0,18,1.3585,7,1,4
11,0,1,36,1.3406,4,0,5
11,0,1,35,1.5069,7,0,6
11,0,1,28,1.6808,10,0,7
11,0,1,50,2.3398,13,0,8
11,0,0,15,1.2499,16,1,9
11,1,1,33,1.5783,13,1,10
11,0,1,28,2.0097,10,0,11
11,0,0,33,2.0951,13,1,12
11,1,1,25,1.2478,13,1,13
11,0,1,17,1.2938,10,0,14
11,0,0,33,1.9485,13,1,15
11,0,1,26,1.2164,10,0,16
11,1,0,21,1.3828,13,0,17
11,1,1,29,2.8754,16,1,18
11,0,0,34,1.3833,16,1,19
11,0,1,33,2.1598,13,0,20
11,0,0,50,1.8205,16,1,21
11,1,1,50,1.5631,16,1,22
11,0,1,28,1.2976,10,0,23
11,0,0,11,3.1398,13,1,24
11,1,0,14,1.5853,13,0,25
11,0,0,15,1.6238,16,1,26
11,0,0,16,1.7048,13,1,27
11,1,0,16,1.7814,10,0,28
11,0,0,38,1.947,13,1,29
11,0,0,25,1.445,13,1,30
11,0,1,15,2.6778,10,0,31
11,0,0,35,2.8362,13,1,32
11,1,1,11,1.2718,13,1,33
11,1,1,16,1.4649,10,1,34
11,0,0,20,1.8366,7,1,35
11,1,1,13,1.429,4,1,36
11,1,1,20,1.2563,1,1,37
11,1,1,23,1.9394,1,1,38
11,0,0,27,1.9649,1,1,39
11,0,1,21,1.6227,1,0,40
11,0,0,30,1.7297,4,1,41
11,0,0,34,1.7203,4,1,42
11,1,0,23,2.2524,1,0,43
11,0,1,15,1.8829,4,0,44
11,1,1,18,1.3595,7,1,45
11,0,0,28,1.3278,7,1,46
11,1,0,50,1.7657,4,0,47
11,0,0,15,1.6376,7,1,48
11,0,0,25,1.3343,7,1,49
11,1,0,16,1.847,4,0,50
11,1,1,14,1.7126,7,1,51
11,0,0,9,1.3994,7,1,52
11,1,1,32,1.5402,4,1,53
11,0,1,14,1.2138,1,0,54
11,1,1,13,1.4838,4,1,55
12,1,1,16,1.5323,18,1,1
12,0,1,14,0.5243,15,0,2
12,0,0,17,1.6608,18,1,3
12,1,0,29,2.3712,18,0,4
12,1,1,20,2.0444,21,1,5
12,0,1,13,1.8309,21,0,6
12,1,0,23,1.605,24,0,7
12,1,0,14,11.1934,27,0,8
12,1,1,16,1.3972,30,1,9
12,0,0,28,1.5798,30,1,10
12,1,1,19,1.542,27,1,11
12,1,1,15,1.462,24,1,12
12,0,0,21,1.4157,21,1,13
12,1,0,21,1.6754,18,0,14
12,0,0,13,1.7143,21,1,15
12,1,1,13,1.7295,21,1,16
12,1,0,12,1.5091,18,0,17
12,0,0,24,1.455,21,1,18
12,1,0,24,1.4259,21,0,19
12,0,0,20,1.3403,24,1,20
12,1,0,15,1.3037,24,0,21
12,0,0,30,1.2633,27,1,22
12,1,1,23,2.1371,27,1,23
12,1,0,24,1.9183,24,0,24
12,0,0,12,2.2134,27,1,25
12,0,0,28,1.4628,27,1,26
12,0,0,26,1.2013,24,1,27
12,1,0,18,1.6904,21,0,28
12,0,0,18,1.3006,24,1,29
12,1,0,28,1.8898,24,0,30
12,0,0,20,2.137,27,1,31
12,1,0,20,1.2905,27,0,32
12,1,0,12,1.8376,30,0,33
12,1,0,26,2.1468,33,0,34
12,0,0,19,1.2926,36,1,35
12,0,0,22,1.6589,36,1,36
12,1,1,15,1.5646,33,1,37
12,1,0,15,6.8825,30,0,38
12,1,1,13,1.1643,33,1,39
12,0,0,22,2.1714,33,1,40
12,1,0,13,6.7093,30,0,41
12,1,1,13,2.0653,33,1,42
12,0,0,22,1.362,33,1,43
12,1,1,18,1.8277,30,1,44
12,0,0,21,1.4226,27,1,45
12,0,0,19,1.5551,24,1,46
12,1,1,19,2.0355,21,1,47
12,0,0,13,8.0343,18,1,48
12,0,0,21,1.4238,15,1,49
12,0,0,14,1.8792,12,1,50
12,1,1,17,1.3704,9,1,51
12,1,0,12,1.3614,6,0,52
12,1,1,13,2.0267,9,1,53
12,1,0,11,1.6186,9,0,54
12,0,0,21,1.4363,12,1,55
12,1,1,17,1.468,12,1,56
12,0,1,16,1.8483,9,0,57
12,0,0,21,12.8784,12,1,58
12,0,0,19,1.2979,12,1,59
12,1,1,18,1.1962,9,1,60
12,1,1,15,1.457,6,1,1
12,0,1,10,1.6533,3,0,2
12,1,1,19,1.5054,6,1,3
12,0,1,22,1.745,6,0,4
12,0,0,25,1.6475,9,1,5
12,0,0,21,1.7927,9,1,6
12,1,0,16,1.9348,6,0,7
12,0,0,20,1.7004,9,1,8
12,0,0,23,1.6379,9,1,9
12,1,0,19,1.5325,6,0,10
12,1,1,17,1.3376,9,1,11
12,0,0,17,2.0054,9,1,12
12,0,0,24,1.493,6,1,13
12,1,1,22,1.629,3,1,14
12,1,0,16,1.6016,1,0,15
12,1,0,9,1.6425,4,0,16
12,0,0,27,1.3309,7,1,17
12,0,0,18,1.2064,7,1,18
12,0,0,15,1.1293,4,1,19
12,0,0,19,1.3648,1,1,20
12,0,0,30,1.4956,1,1,21
12,1,0,17,1.6991,1,0,22
12,0,0,24,1.6221,4,1,23
12,1,0,29,1.4416,4,0,24
12,0,0,22,1.8285,7,1,25
12,1,0,18,1.8245,7,0,26
12,0,0,18,1.2127,10,1,27
12,1,1,18,2.2659,10,1,28
12,1,0,20,1.5157,7,0,29
12,1,0,15,1.5361,10,0,30
12,1,0,19,1.4948,13,0,31
12,0,0,13,1.1934,16,1,32
12,1,0,9,5.0894,16,0,33
12,0,0,25,1.9177,19,1,34
12,1,0,10,1.2802,19,0,35
12,0,0,23,1.1894,22,1,36
12,1,1,22,1.3215,22,1,37
12,0,0,25,1.1262,19,1,38
12,1,1,18,1.6276,16,1,39
12,0,0,16,1.3241,13,1,40
12,0,0,24,1.2538,10,1,41
12,1,0,18,1.0211,7,0,42
12,0,0,20,1.1412,10,1,43
12,0,0,28,1.2252,10,1,44
12,1,0,22,2.207,7,0,45
12,0,0,28,1.4189,10,1,46
12,1,0,18,1.895,10,0,47
12,0,0,21,0.8509,13,1,48
12,0,1,22,1.8163,13,0,49
12,1,1,16,1.3355,16,1,50
12,0,1,16,1.9804,16,0,51
12,0,0,24,1.9355,19,1,52
12,1,0,16,1.4109,19,0,53
12,0,0,15,1.2371,22,1,54
12,0,0,21,1.6751,22,1,55
12,1,1,14,1.3399,19,1,56
12,0,0,27,1.5989,16,1,57
12,1,0,18,1.9325,13,0,58
12,1,0,20,2.9687,16,0,59
12,0,0,27,1.5896,19,1,60
12,1,1,12,1.2596,19,1,1
12,0,1,10,0.3067,16,0,2
12,0,0,20,1.2287,19,1,3
12,0,0,18,1.2361,19,1,4
12,1,1,17,1.4175,16,1,5
12,0,0,14,1.1579,13,1,6
12,1,0,13,1.196,10,0,7
12,0,0,24,1.1727,13,1,8
12,0,0,18,1.2525,13,1,9
12,1,0,16,1.5744,10,0,10
12,1,1,14,1.2272,13,1,11
12,0,0,16,1.1285,13,1,12
12,0,0,12,1.2998,10,1,13
12,1,1,15,1.4298,7,1,14
12,1,0,24,1.3701,4,0,15
12,1,0,10,1.9087,7,0,16
12,1,1,18,1.5528,10,1,17
12,1,0,16,1.0551,10,0,18
12,1,0,12,1.5248,13,0,19
12,0,0,15,1.0633,16,1,20
12,0,0,16,1.3788,16,1,21
12,0,0,18,1.1084,13,1,22
12,1,0,11,1.6528,10,0,23
12,1,1,9,1.4846,13,1,24
12,0,0,13,1.8792,13,1,25
12,0,0,14,1.4439,10,1,26
12,0,1,16,1.1809,7,0,27
12,0,0,16,1.1349,10,1,28
12,0,0,13,1.5889,10,1,29
12,1,1,17,1.3844,7,1,30
12,1,0,11,4.0293,4,0,31
12,0,0,17,1.2356,7,1,32
12,1,1,13,1.2459,7,1,33
12,1,0,12,1.103,4,0,34
12,1,0,14,1.0301,7,0,35
12,0,0,17,1.1094,10,1,36
12,1,1,16,1.5386,10,1,37
12,0,1,13,1.1615,7,0,38
12,0,0,14,1.219,10,1,39
12,0,0,12,1.5268,10,1,40
12,1,1,18,1.6552,7,1,41
12,1,0,12,1.1892,4,0,42
12,1,1,9,1.3694,7,1,43
12,0,0,17,1.0769,7,1,44
12,1,0,17,1.3126,4,0,45
12,1,1,14,1.2832,7,1,46
12,1,0,12,1.1505,7,0,47
12,1,0,15,1.0797,10,0,48
12,1,1,17,1.3144,13,1,49
12,0,0,18,1.277,13,1,50
12,0,0,17,1.2875,10,1,51
12,0,0,19,1.3768,7,1,52
12,1,0,19,3.9013,4,0,53
12,1,0,16,2.692,7,0,54
12,0,0,18,1.0564,10,1,55
12,1,0,15,1.5459,10,0,56
12,1,0,11,1.6564,13,0,57
12,1,0,12,1.6371,16,0,58
12,1,0,10,1.2234,19,0,59
12,1,0,18,1.5095,22,0,60
12,1,1,26,1.3711,25,1,1
12,0,0,16,1.5983,25,1,2
12,1,1,18,1.7403,22,1,3
12,1,0,11,0.6867,19,0,4
12,0,0,20,1.047,22,1,5
12,1,1,21,1.4611,22,1,6
12,0,0,19,2.0915,19,1,7
12,0,0,15,24.8741,16,1,8
12,1,0,17,1.0951,13,0,9
12,1,0,19,0.7279,16,0,10
12,0,0,16,71.9967,19,1,11
12,0,0,16,2.1059,19,1,12
12,0,0,21,1.0781,16,1,13
12,1,1,20,1.2706,13,1,14
12,0,0,19,1.0999,10,1,15
12,0,0,19,1.0532,7,1,16
12,0,1,15,1.0573,4,0,17
12,0,0,26,1.483,7,1,18
12,0,0,18,1.1063,7,1,19
12,1,0,20,1.5589,4,0,20
12,1,1,16,1.3744,7,1,21
12,0,0,19,1.9316,7,1,22
12,1,1,26,1.2679,4,1,23
12,1,0,18,1.2112,1,0,24
12,0,1,22,1.6521,4,0,25
12,1,0,18,1.1326,7,0,26
12,0,0,14,1.9782,10,1,27
12,1,0,21,1.1091,10,0,28
12,1,1,23,1.3389,13,1,29
12,0,1,23,1.384,13,0,30
12,1,0,20,1.0229,16,0,31
12,0,0,23,1.5419,19,1,32
12,1,1,18,1.2788,19,1,33
12,0,0,14,1.0556,16,1,34
12,0,0,22,1.1176,13,1,35
12,0,0,20,1.5121,10,1,36
12,1,1,13,1.4868,7,1,37
12,0,0,18,0.9919,4,1,38
12,1,0,14,1.0707,1,0,39
12,0,0,14,1.1009,4,1,40
12,1,0,10,1.167,4,0,41
12,1,1,19,1.8935,7,1,42
12,0,1,23,1.266,7,0,43
12,0,0,24,1.2381,10,1,44
12,0,0,18,1.4159,10,1,45
12,0,0,14,1.7527,7,1,46
12,1,1,13,1.6329,4,1,47
12,1,0,17,0.9955,1,0,48
12,0,0,20,4.7284,4,1,49
12,1,0,15,1.4303,4,0,50
12,0,0,24,1.0793,7,1,51
12,0,1,20,2.0203,7,0,52
12,1,0,19,2.3949,10,0,53
12,0,0,24,1.1234,13,1,54
12,1,0,20,2.129,13,0,55
12,0,1,17,1.5854,16,0,56
12,1,1,20,1.3044,19,1,57
12,0,0,15,1.4397,19,1,58
12,1,1,16,1.5018,16,1,59
12,0,0,20,1.3546,13,1,60
13,1,1,50,2.5104,27,1,1
13,1,1,50,1.8493,24,1,2
13,0,0,33,2.4633,18,1,3
13,0,0,35,1.7248,15,1,4
13,1,1,31,1.5999,12,1,5
13,1,0,24,1.7455,9,0,6
13,0,0,25,1.8989,12,1,7
13,0,0,38,2.0554,15,1,8
13,0,1,24,1.6297,12,0,9
13,1,1,49,1.789,15,1,10
13,1,1,50,1.4358,12,1,11
13,0,1,33,1.9756,9,0,12
13,1,0,36,1.6251,12,0,13
13,0,0,36,1.31,15,1,14
13,1,1,42,1.4413,15,1,15
13,1,1,29,1.8614,12,1,16
13,0,0,35,1.745,9,1,17
13,0,0,42,1.7901,6,1,18
13,0,1,37,1.9325,3,0,19
13,0,1,36,1.392,6,0,20
13,1,0,39,1.5118,9,0,21
13,1,0,33,1.2147,12,0,22
13,1,1,30,2.0704,15,1,23
13,1,1,39,1.577,15,1,24
13,0,0,28,1.4786,12,1,25
13,1,1,29,1.5073,9,1,26
13,0,0,28,1.6644,6,1,27
13,1,1,34,1.7989,3,1,28
13,1,0,43,1.8676,1,0,29
13,0,1,30,1.4883,4,0,30
13,0,1,32,1.5861,7,0,31
13,1,1,46,1.9023,10,1,32
13,0,1,38,1.8602,7,0,33
13,1,0,28,1.8829,10,0,34
13,1,1,18,1.8286,13,1,35
13,0,0,21,1.5602,13,1,36
13,0,1,22,1.463,10,0,37
13,1,0,21,2.1216,13,0,38
13,0,0,34,3.6144,16,1,39
13,0,0,30,1.6518,13,1,40
13,1,1,16,1.4813,10,1,41
13,1,1,39,3.0312,7,1,42
13,0,0,27,1.4937,4,1,43
13,0,1,10,2.2345,1,0,44
13,0,0,17,1.4852,4,1,45
13,1,0,33,1.7039,4,0,46
13,1,1,15,1.5778,7,1,47
13,0,0,32,1.4604,7,1,48
13,1,0,11,1.473,4,0,49
13,0,1,17,1.4837,7,0,50
13,1,1,31,2.107,10,1,51
13,1,0,27,2.0407,7,0,52
13,0,0,38,1.8585,10,1,53
13,0,0,26,2.0213,10,1,1
13,0,0,30,1.4897,7,1,2
13,0,0,27,2.0715,4,1,3
13,1,0,32,1.6767,1,0,4
13,1,0,33,1.5852,7,0,5
13,0,0,33,1.999,10,1,6
13,0,0,21,2.1535,10,1,7
13,1,1,17,1.6663,7,1,8
13,0,0,41,2.2309,4,1,9
13,0,1,19,1.6952,1,0,10
13,0,0,50,1.5608,4,1,11
13,1,0,29,1.2934,7,0,12
13,0,0,25,1.3768,10,1,13
13,1,1,21,1.4726,10,1,14
13,0,1,8,1.7694,7,0,15
13,1,1,34,2.5969,10,1,16
13,1,1,37,2.0017,10,1,17
13,0,0,33,1.4468,10,1,18
13,1,1,24,1.7794,10,1,19
13,1,0,18,1.647,7,0,20
13,1,1,24,1.8416,10,1,21
13,0,0,28,1.3463,10,1,22
13,0,0,32,2.5487,4,1,23
13,1,0,39,1.7221,1,0,24
13,1,0,36,1.758,4,0,25
13,1,1,22,1.3757,7,1,26
13,0,0,28,1.7162,10,1,27
13,0,0,34,1.4642,7,1,28
13,1,0,33,1.5791,4,0,29
13,1,1,25,1.8337,7,1,30
13,0,0,26,1.5281,7,1,31
13,1,1,44,2.3707,4,1,32
13,1,0,32,1.7997,1,0,33
13,0,0,23,1.5234,4,1,34
13,0,0,46,2.6107,4,1,35
13,0,0,37,1.5465,1,1,36
13,1,0,36,1.5021,1,0,37
13,0,1,32,1.4998,4,0,38
13,0,0,31,1.5033,7,1,39
13,1,0,24,2.2341,7,0,40
13,1,1,20,1.4936,10,1,41
13,1,0,30,1.7953,10,0,42
13,0,0,32,1.5709,13,1,43
13,0,1,22,1.7404,13,0,44
13,0,0,30,1.3912,16,1,45
13,0,0,31,1.9886,16,1,46
13,0,0,26,1.6303,13,1,47
13,0,0,31,1.4554,10,1,48
13,0,0,36,1.4837,7,1,49
13,0,1,24,1.8265,4,0,50
13,1,0,28,1.748,7,0,51
13,1,0,31,1.3778,10,0,52
13,1,0,30,1.4373,13,0,53
13,0,0,41,1.5989,16,1,54
13,0,0,25,1.9306,16,1,1
13,1,1,26,2.554,13,1,2
13,1,1,23,1.2666,10,1,3
13,0,0,33,1.9274,7,1,4
13,1,1,24,1.3792,4,1,5
13,0,0,21,1.8489,1,1,6
13,0,0,26,1.8828,1,1,7
13,0,0,36,2.2371,1,1,8
13,1,1,19,1.6028,1,1,9
13,1,0,34,3.6636,1,0,10
13,0,0,35,2.004,4,1,11
13,1,1,19,2.2277,4,1,12
13,1,1,21,1.5618,4,1,13
13,0,1,23,1.7351,4,0,14
13,0,1,21,1.3323,7,0,15
13,0,0,26,1.6181,10,1,16
13,0,0,30,1.4086,10,1,17
13,0,0,25,1.3114,7,1,18
13,1,1,20,1.9682,4,1,19
13,0,0,29,1.2606,1,1,20
13,1,0,31,1.2733,1,0,21
13,0,1,17,1.5591,4,0,22
13,1,1,14,1.4426,7,1,23
13,1,0,30,1.6475,7,0,24
13,1,1,26,1.5541,10,1,25
13,1,0,32,1.8648,10,0,26
13,0,0,39,1.9106,13,1,27
13,1,0,19,2.7032,13,0,28
13,1,1,25,2.4409,16,1,29
13,1,1,14,1.2466,16,1,30
13,1,0,23,1.2456,13,0,31
13,0,0,31,1.9941,16,1,32
13,0,0,35,1.6886,16,1,33
13,0,0,31,1.3905,13,1,34
13,0,0,37,1.6321,10,1,35
13,1,1,7,2.171,7,1,36
13,0,0,30,1.6456,4,1,37
13,1,1,14,1.7674,1,1,38
13,1,0,34,1.7533,1,0,39
13,0,0,28,1.5239,4,1,40
13,1,1,16,1.5754,4,1,41
13,0,0,28,1.3333,1,1,42
13,1,0,36,1.5789,1,0,43
13,1,0,33,1.7457,4,0,44
13,0,0,27,1.6613,7,1,45
13,0,0,14,1.8158,7,1,46
13,1,1,30,2.2206,4,1,47
13,0,0,36,2.0764,1,1,48
13,0,0,35,1.5103,1,1,49
13,1,1,23,2.7705,1,1,50
13,0,0,26,2.7825,1,1,51
13,0,0,25,1.079,1,1,52
13,1,0,27,1.7057,1,0,53
13,1,0,31,1.5786,4,0,54
13,1,0,15,3.577,7,0,55
13,0,0,36,1.6016,10,1,56
13,1,1,11,1.9635,10,1,57
13,1,0,24,1.552,7,0,1
13,0,0,24,1.6357,10,1,2
13,0,0,29,1.4262,10,1,3
13,0,0,28,1.8392,7,1,4
13,0,0,24,1.2515,4,1,5
13,1,0,29,1.3895,1,0,6
13,0,0,48,1.5479,4,1,7
13,0,0,31,2.0265,4,1,8
13,1,0,28,1.4205,1,0,9
13,1,0,19,1.7119,4,0,10
13,0,0,26,1.4308,7,1,11
13,1,0,32,1.8142,7,0,12
13,0,0,27,1.4731,10,1,13
13,0,0,27,1.2996,10,1,14
13,1,0,38,1.8873,7,0,15
13,0,0,22,1.893,10,1,16
13,1,0,30,3.4004,10,0,17
13,1,0,11,2.127,13,0,18
13,1,0,23,1.8956,16,0,19
13,1,0,9,5.6149,19,0,20
13,0,0,38,1.7581,22,1,21
13,1,0,21,1.4382,19,0,22
13,1,1,14,1.6745,22,1,23
13,1,1,22,1.9609,22,1,24
13,0,0,28,1.8334,19,1,25
13,0,0,25,1.7193,16,1,26
13,0,0,19,1.5596,13,1,27
13,1,0,12,4.7053,10,0,28
13,0,0,28,1.9349,13,1,29
13,0,0,34,1.5354,13,1,30
13,0,0,29,6.014,10,1,31
13,0,0,26,3.2754,7,1,32
13,1,0,25,3.1969,4,0,33
13,1,1,24,2.8602,7,1,34
13,1,0,19,2.1306,7,0,35
13,0,0,18,2.2795,10,1,36
13,0,0,34,2.1081,10,1,37
13,0,0,22,2.0688,7,1,38
13,1,0,23,4.3543,4,0,39
13,1,1,16,1.82,7,1,40
13,1,0,19,5.2467,7,0,41
13,0,0,30,1.3897,10,1,42
13,1,1,16,1.6802,10,1,43
13,1,1,24,2.0568,7,1,44
13,1,0,21,1.6696,4,0,45
13,0,0,19,3.69,7,1,46
13,1,0,18,2.1886,7,0,47
13,0,1,17,1.6812,10,0,48
13,1,1,18,2.522,13,1,49
13,0,0,38,3.6754,13,1,50
13,1,0,29,1.3901,10,0,51
13,1,0,21,1.7368,13,0,52
13,0,0,19,1.2885,16,1,53
13,1,1,18,1.793,16,1,54
13,1,1,17,1.7326,13,1,55
13,0,0,22,1.9993,10,1,56
13,0,0,28,2.4359,7,1,57
13,1,0,28,3.3073,4,0,58
13,0,0,28,1.8499,7,1,59
14,0,0,26,2.6117,24,1,1
14,0,0,31,2.8125,24,1,2
14,1,1,36,2.9409,21,1,3
14,0,0,34,2.6764,18,1,4
14,1,1,44,2.3798,15,1,5
14,1,1,25,2.8172,12,1,6
14,0,0,22,2.5211,9,1,7
14,1,1,29,2.2958,6,1,8
14,0,0,22,3.5645,3,1,9
14,0,1,29,3.2604,1,0,10
14,1,1,33,3.0512,4,1,11
14,1,1,18,3.4582,4,1,12
14,1,0,26,2.1407,1,0,13
14,1,0,23,2.9961,4,0,14
14,0,0,12,2.6568,7,1,15
14,1,0,26,2.5059,7,0,16
14,0,1,20,2.4247,10,0,17
14,0,0,23,2.8009,13,1,18
14,0,0,18,3.0124,13,1,19
14,1,0,24,2.971,10,0,20
14,0,0,35,2.6357,13,1,21
14,0,0,25,2.2127,13,1,22
14,1,0,12,3.6672,10,0,23
14,1,1,24,2.715,13,1,24
14,0,1,21,2.3614,13,0,25
14,0,0,21,2.9022,16,1,26
14,1,1,23,2.7128,16,1,27
14,1,1,26,2.3313,13,1,28
14,1,1,23,2.4298,10,1,29
14,0,0,22,2.1297,7,1,30
14,1,1,28,2.6049,4,1,31
14,1,0,8,15.6048,1,0,32
14,1,1,26,1.9836,4,1,33
14,1,1,32,2.4597,4,1,34
14,1,0,8,3.1437,1,0,35
14,1,1,27,2.9937,4,1,36
14,0,1,11,3.2442,4,0,37
14,0,0,21,3.3163,7,1,38
14,1,1,24,3.7716,7,1,39
14,0,1,25,2.1623,4,0,40
14,1,0,19,2.1419,7,0,41
14,1,1,22,2.4382,10,1,42
14,0,0,25,2.172,10,1,43
14,0,1,25,2.1934,7,0,44
14,1,1,24,2.8988,10,1,45
14,1,0,30,2.3933,10,0,46
14,1,1,24,2.457,13,1,47
14,0,0,25,2.4427,13,1,48
14,0,0,19,2.5052,10,1,49
14,1,0,18,3.1029,7,0,50
14,0,0,25,2.3542,10,1,51
14,0,1,20,2.2481,10,0,52
14,1,1,25,2.1861,13,1,53
14,1,1,29,3.5126,13,1,54
14,0,0,24,2.643,10,1,55
14,1,1,32,2.7787,7,1,56
14,0,0,20,2.1297,4,1,57
14,1,1,28,2.6082,1,1,58
14,0,0,13,4.0384,1,1,59
14,0,1,29,2.8049,1,0,60
14,1,1,24,2.4422,4,1,1
14,0,1,27,2.1657,4,0,2
14,1,1,27,2.3733,7,1,3
14,1,1,27,2.1325,7,1,4
14,0,0,28,2.2455,4,1,5
14,1,1,16,3.3452,1,1,6
14,0,1,29,2.0965,1,0,7
14,0,1,12,2.6061,4,0,8
14,0,0,23,2.6011,7,1,9
14,0,1,24,2.6495,7,0,10
14,1,1,28,2.1778,10,1,11
14,0,1,11,2.5178,10,0,12
14,0,0,13,2.627,13,1,13
14,0,0,12,2.4743,13,1,14
14,1,1,31,2.9908,10,1,15
14,1,1,27,2.1752,7,1,16
14,1,0,21,2.2037,4,0,17
14,0,0,20,2.4995,7,1,18
14,1,1,25,2.1525,7,1,19
14,0,0,16,2.0899,4,1,20
14,1,1,28,2.0197,1,1,21
14,0,1,20,2.5186,1,0,22
14,1,1,25,1.9018,4,1,23
14,0,0,20,2.1765,4,1,24
14,1,1,23,2.3317,1,1,25
14,1,0,17,4.3835,1,0,26
14,0,1,17,3.4992,4,0,27
14,1,1,15,2.3273,7,1,28
14,0,0,20,2.498,7,1,29
14,1,1,18,3.7132,4,1,30
14,1,1,21,2.0639,1,1,31
14,1,1,20,2.2649,1,1,32
14,0,1,26,2.3944,1,0,33
14,1,1,15,2.314,4,1,34
14,0,0,21,2.4165,4,1,35
14,1,1,16,2.274,1,1,36
14,1,1,8,2.538,1,1,37
14,0,0,24,2.5006,1,1,38
14,1,1,17,2.6683,1,1,39
14,0,1,21,2.0439,1,0,40
14,0,0,9,2.825,4,1,41
14,1,1,13,2.8425,4,1,42
14,0,1,13,2.2935,1,0,43
14,1,0,15,2.9519,4,0,44
14,0,0,20,1.9094,7,1,45
14,1,1,23,2.146,7,1,46
14,0,1,21,1.8317,4,0,47
14,1,1,16,2.5656,7,1,48
14,1,1,22,2.3691,7,1,49
14,1,0,16,2.4194,4,0,50
14,1,1,18,1.7684,7,1,51
14,0,1,13,2.4777,7,0,52
14,0,0,13,6.4708,10,1,53
14,0,1,18,2.0526,10,0,54
14,0,0,19,2.0925,13,1,55
14,1,1,25,2.0816,13,1,56
14,1,1,9,2.3039,10,1,57
14,0,0,17,2.0641,7,1,58
14,0,1,18,2.2407,4,0,59
14,1,0,4,2.5927,7,0,60
14,1,1,26,1.9809,10,1,1
14,0,0,21,2.1395,10,1,2
14,0,0,33,2.0831,7,1,3
14,1,1,24,2.2026,4,1,4
14,1,1,14,2.4453,1,1,5
14,1,0,19,2.7842,1,0,6
14,0,0,19,2.4985,4,1,7
14,1,1,18,1.8109,4,1,8
14,0,1,21,2.6717,1,0,9
14,1,1,25,2.2179,4,1,10
14,1,0,19,3.0371,4,0,11
14,1,1,21,2.2989,7,1,12
14,0,1,19,3.4384,7,0,13
14,0,0,20,2.2603,10,1,14
14,0,1,14,1.962,10,0,15
14,1,1,22,2.0137,13,1,16
14,1,1,23,1.9516,13,1,17
14,1,1,25,2.1592,10,1,18
14,0,0,19,2.0868,7,1,19
14,1,1,24,2.0776,4,1,20
14,1,1,17,2.3643,1,1,21
14,0,0,21,2.1855,1,1,22
14,0,1,16,2.1341,1,0,23
14,0,0,19,2.1897,4,1,24
14,1,0,23,2.1897,4,0,25
14,0,0,27,2.013,7,1,26
14,1,0,17,1.8253,7,0,27
14,1,1,21,2.3457,10,1,28
14,1,0,16,2.0151,10,0,29
14,0,0,22,2.0468,13,1,30
14,0,0,22,2.1939,13,1,31
14,0,1,20,2.0807,10,0,32
14,1,1,24,1.9176,13,1,33
14,0,0,23,2.3786,13,1,34
14,0,0,23,2.1052,10,1,35
14,0,1,17,2.049,7,0,36
14,0,0,22,1.8653,10,1,37
14,0,0,16,1.6164,10,1,38
14,0,1,24,2.224,7,0,39
14,0,0,21,2.2552,10,1,40
14,0,1,22,2.3247,10,0,41
14,1,1,25,2.0025,13,1,42
14,0,0,27,1.9277,13,1,43
14,1,1,20,2.341,10,1,44
14,1,1,30,2.013,7,1,45
14,0,1,19,1.9959,4,0,46
14,1,0,18,2.548,7,0,47
14,1,1,23,2.2097,10,1,48
14,0,0,22,2.2441,10,1,49
14,1,1,26,1.9919,7,1,50
14,0,0,19,2.1364,4,1,51
14,1,1,19,2.0604,1,1,52
14,1,1,21,2.3669,1,1,53
14,0,0,6,2.7669,1,1,54
14,0,0,14,2.205,1,1,55
14,0,1,12,2.5681,1,0,56
14,0,0,18,2.3121,4,1,57
14,0,1,15,2.4227,4,0,58
14,0,0,12,2.2267,7,1,59
14,0,1,20,2.9092,7,0,60
14,1,1,15,2.1764,10,1,1
14,1,0,18,1.7557,10,0,2
14,0,0,16,1.7313,13,1,3
14,0,1,11,2.328,13,0,4
14,0,0,25,2.0277,16,1,5
14,1,1,11,2.5678,16,1,6
14,1,0,11,2.2799,13,0,7
14,0,0,11,1.7287,16,1,8
14,1,1,18,1.9045,16,1,9
14,1,0,8,2.2413,13,0,10
14,0,0,17,1.6034,16,1,11
14,1,1,18,2.3628,16,1,12
14,1,1,25,2.0294,13,1,13
14,0,0,19,1.8116,10,1,14
14,1,1,23,1.9366,7,1,15
14,0,0,17,1.9021,4,1,16
14,1,1,13,2.988,1,1,17
14,0,1,13,2.3989,1,0,18
14,1,0,17,1.7711,4,0,19
14,0,0,20,2.4694,7,1,20
14,0,0,18,1.7474,7,1,21
14,1,1,20,2.1384,4,1,22
14,0,1,15,2.0278,1,0,23
14,1,1,11,1.8227,4,1,24
14,0,0,20,1.8461,4,1,25
14,1,0,15,2.0333,1,0,26
14,0,0,19,2.4074,4,1,27
14,0,0,20,2.0328,4,1,28
14,0,0,13,3.1345,1,1,29
14,1,1,11,2.6462,1,1,30
14,0,1,13,1.5779,1,0,31
14,0,1,9,1.8421,4,0,32
14,0,0,21,1.9216,7,1,33
14,1,1,18,2.0698,7,1,34
14,1,1,20,1.9093,4,1,35
14,0,0,16,2.2626,1,1,36
14,1,0,21,1.7379,1,0,37
14,1,1,17,1.97,4,1,38
14,1,1,14,2.094,4,1,39
14,1,1,17,2.1933,1,1,40
14,1,1,16,3.0022,1,1,41
14,1,1,13,1.7596,1,1,42
14,1,0,17,1.9765,1,0,43
14,1,1,17,2.2718,4,1,44
14,0,0,19,2.1576,4,1,45
14,1,1,15,1.9613,1,1,46
14,0,1,13,2.2036,1,0,47
14,1,0,13,2.3427,4,0,48
14,1,1,18,1.8457,7,1,49
14,0,0,16,2.203,7,1,50
14,1,1,19,1.854,4,1,51
14,0,1,18,1.7801,1,0,52
14,0,1,16,2.2677,4,0,53
14,1,1,18,1.7231,7,1,54
14,0,0,23,2.2861,7,1,55
14,0,1,16,1.9638,4,0,56
14,1,1,17,1.6622,7,1,57
14,0,1,18,2.082,7,0,58
14,1,1,21,1.7212,10,1,59
14,0,0,18,2.3896,10,1,60
15,0,1,5,4.4875,33,0,1
15,1,1,14,4.239,36,1,2
15,1,0,5,5.2929,36,0,3
15,1,1,17,3.1306,39,1,4
15,0,1,6,3.9922,39,0,5
15,1,1,8,2.8461,42,1,6
15,1,1,3,6.1428,42,1,7
15,0,0,15,3.7188,39,1,8
15,1,1,14,2.5519,36,1,9
15,0,0,3,5.8725,33,1,10
15,0,1,7,3.6544,30,0,11
15,0,1,15,4.3981,33,0,12
15,1,1,28,3.3372,36,1,13
15,0,0,10,2.6729,36,1,14
15,1,1,10,3.0484,33,1,15
15,0,0,20,2.6819,30,1,16
15,1,1,13,2.5147,27,1,17
15,1,1,29,2.784,24,1,18
15,0,0,9,3.4329,21,1,19
15,1,1,20,2.2875,18,1,20
15,0,1,10,3.1622,15,0,21
15,1,1,25,2.5791,18,1,22
15,1,1,12,2.214,18,1,23
15,0,1,12,2.7364,15,0,24
15,1,1,24,3.1499,18,1,25
15,1,0,9,2.6037,18,0,26
15,0,1,6,3.6149,21,0,27
15,0,0,21,3.2593,24,1,28
15,1,1,5,3.3445,24,1,29
15,1,1,19,2.2142,21,1,30
15,1,1,21,2.9395,18,1,31
15,1,1,30,3.1953,15,1,32
15,0,0,9,2.3477,12,1,33
15,0,0,20,2.8294,9,1,34
15,0,1,18,2.2843,6,0,35
15,0,1,6,2.6338,9,0,36
15,0,1,10,2.2987,12,0,37
15,1,1,14,2.8461,15,1,38
15,1,0,9,2.4071,15,0,39
15,1,1,25,2.3065,18,1,40
15,0,0,15,2.4044,18,1,41
15,1,1,14,2.544,15,1,42
15,0,0,13,2.1072,12,1,43
15,0,1,10,2.187,9,0,44
15,1,1,24,2.4473,12,1,45
15,1,0,12,2.4417,12,0,46
15,1,1,15,2.3672,15,1,47
15,1,1,8,2.4544,15,1,48
15,0,0,7,2.3554,12,1,49
15,1,1,19,2.7159,9,1,50
15,0,1,23,2.2498,6,0,51
15,0,1,12,1.9359,9,0,52
15,1,1,12,2.44,12,1,53
15,0,0,14,2.0758,12,1,54
15,0,1,18,3.1482,9,0,55
15,1,1,11,2.6433,12,1,56
15,1,1,17,2.5656,12,1,57
15,1,1,21,2.6775,9,1,58
15,0,1,27,2.5809,6,0,59
15,0,1,18,3.4825,9,0,60
15,1,1,9,3.3026,12,1,1
15,1,1,35,4.2081,12,1,2
15,0,1,15,2.9207,9,0,3
15,0,1,25,3.499,12,0,4
15,0,1,13,2.9486,15,0,5
15,0,1,20,4.2644,18,0,6
15,0,1,12,2.1401,21,0,7
15,0,0,7,2.528,24,1,8
15,1,1,27,2.3984,24,1,9
15,1,1,12,4.2281,21,1,10
15,1,0,11,2.871,18,0,11
15,0,1,11,4.679,21,0,12
15,0,1,17,3.2671,24,0,13
15,0,1,14,5.1917,27,0,14
15,1,1,22,3.5588,30,1,15
15,1,1,34,2.2136,30,1,16
15,1,1,30,2.5904,27,1,17
15,1,1,35,2.68,24,1,18
15,0,0,5,4.1594,21,1,19
15,0,0,13,3.4301,18,1,20
15,1,1,32,2.343,15,1,21
15,0,1,35,2.6658,12,0,22
15,1,0,11,2.8752,15,0,23
15,0,0,23,2.7964,18,1,24
15,1,1,17,4.0904,18,1,25
15,0,0,27,2.6733,15,1,26
15,0,1,19,2.7521,12,0,27
15,0,0,21,2.6115,15,1,28
15,0,0,19,2.4133,15,1,29
15,1,1,32,2.6446,12,1,30
15,1,0,17,2.8205,9,0,31
15,0,1,27,2.4244,12,0,32
15,0,0,20,2.3874,15,1,33
15,1,1,22,2.3259,15,1,34
15,1,1,25,4.0811,12,1,35
15,0,0,21,2.576,9,1,36
15,0,0,8,5.9243,6,1,37
15,1,1,12,3.5861,3,1,38
15,1,1,15,2.7386,1,1,39
15,1,0,15,2.4407,1,0,40
15,0,1,26,2.354,4,0,41
15,1,1,20,2.6084,7,1,42
15,0,0,8,2.819,7,1,43
15,0,1,22,2.3346,4,0,44
15,0,1,13,3.5395,7,0,45
15,0,1,15,3.8003,10,0,46
15,0,1,26,3.2267,13,0,47
15,0,0,13,2.9357,16,1,48
15,1,1,31,2.1853,16,1,49
15,0,1,21,2.8708,13,0,50
15,0,0,15,1.9468,16,1,51
15,1,1,28,2.001,16,1,52
15,0,0,12,3.5432,13,1,53
15,0,1,9,3.2262,10,0,54
15,0,0,14,2.1248,13,1,55
15,0,1,11,2.2441,13,0,56
15,0,0,14,2.7259,16,1,57
15,1,1,23,1.9911,16,1,58
15,1,1,26,2.2486,13,1,59
15,1,1,27,2.6717,10,1,60
15,1,1,24,2.8306,7,1,1
15,1,0,15,2.0974,4,0,2
15,0,0,14,2.7898,7,1,3
15,1,1,19,1.8707,7,1,4
15,1,1,22,2.7263,4,1,5
15,1,1,12,3.6671,1,1,6
15,1,1,22,1.7131,1,1,7
15,0,1,14,1.941,1,0,8
15,1,1,13,2.2957,4,1,9
15,0,1,12,2.2196,4,0,10
15,0,1,5,2.4535,7,0,11
15,1,1,19,2.8894,10,1,12
15,0,1,15,2.4246,10,0,13
15,1,1,22,2.29,13,1,14
15,1,1,23,2.2405,13,1,15
15,1,1,27,2.219,10,1,16
15,1,1,29,2.124,7,1,17
15,0,1,34,2.4418,4,0,18
15,0,1,31,2.4842,7,0,19
15,0,0,11,3.2939,10,1,20
15,0,1,10,3.4123,10,0,21
15,0,1,23,2.1285,13,0,22
15,1,1,25,2.1852,16,1,23
15,0,0,11,2.482,16,1,24
15,1,1,10,1.9869,13,1,25
15,0,1,15,2.195,10,0,26
15,0,0,17,2.2231,13,1,27
15,1,1,6,2.2271,13,1,28
15,1,1,13,2.3726,10,1,29
15,0,0,9,3.6428,7,1,30
15,0,1,14,2.6635,4,0,31
15,1,1,20,2.1557,7,1,32
15,1,1,26,2.1913,7,1,33
15,1,1,23,3.6793,4,1,34
15,1,0,13,2.9911,1,0,35
15,0,1,27,2.2785,4,0,36
15,0,0,6,2.4467,7,1,37
15,1,1,18,1.8785,7,1,38
15,1,1,28,2.075,4,1,39
15,1,0,17,2.2323,1,0,40
15,1,1,17,1.8713,4,1,41
15,0,1,17,2.0054,4,0,42
15,1,0,10,3.7409,7,0,43
15,0,0,22,2.1575,10,1,44
15,0,1,14,2.1455,10,0,45
15,0,0,9,2.701,13,1,46
15,0,0,15,2.246,13,1,47
15,0,1,38,2.9159,10,0,48
15,0,0,28,2.3541,13,1,49
15,0,0,16,2.9521,13,1,50
15,0,1,5,3.361,10,0,51
15,0,1,17,2.4305,13,0,52
15,1,1,15,2.3746,16,1,53
15,0,0,13,3.3948,16,1,54
15,1,1,19,2.086,13,1,55
15,1,1,25,2.3095,10,1,56
15,0,1,29,2.5478,7,0,57
15,1,1,30,2.5167,10,1,58
15,0,1,17,2.2112,10,0,59
15,1,1,27,2.2859,13,1,60
15,1,1,34,2.3154,13,1,1
15,0,1,24,2.7677,10,0,2
15,1,1,23,1.9906,13,1,3
15,1,1,28,2.0326,13,1,4
15,0,0,18,2.4633,10,1,5
15,1,1,9,3.6514,7,1,6
15,1,1,26,2.1575,4,1,7
15,1,1,34,2.4028,1,1,8
15,1,1,10,3.0965,1,1,9
15,1,1,27,1.8905,1,1,10
15,0,1,26,2.8119,1,0,11
15,1,0,20,3.2379,4,0,12
15,0,1,27,2.0099,7,0,13
15,0,0,8,3.122,10,1,14
15,1,1,18,2.7778,10,1,15
15,1,1,28,2.378,7,1,16
15,0,0,19,3.6738,4,1,17
15,0,1,21,2.2029,1,0,18
15,0,1,25,2.2961,4,0,19
15,0,1,22,4.9939,7,0,20
15,1,1,29,2.6297,10,1,21
15,0,1,17,2.4609,10,0,22
15,1,0,5,4.2121,13,0,23
15,1,1,26,2.5767,16,1,24
15,0,0,32,2.6862,16,1,25
15,0,0,18,2.9968,13,1,26
15,1,1,21,2.1912,10,1,27
15,1,1,8,3.5649,7,1,28
15,1,0,6,5.6892,4,0,29
15,1,1,19,1.8624,7,1,30
15,0,1,23,2.7027,7,0,31
15,1,1,6,3.6592,10,1,32
15,0,0,32,2.5644,10,1,33
15,1,1,28,4.0627,7,1,34
15,0,1,20,3.0983,4,0,35
15,0,0,16,2.4242,7,1,36
15,1,1,29,2.1673,7,1,37
15,0,0,9,4.3513,4,1,38
15,1,0,24,3.8423,1,0,39
15,1,1,30,3.0427,4,1,40
15,1,1,32,2.893,4,1,41
15,0,1,8,3.0685,1,0,42
15,0,1,13,2.8083,4,0,43
15,0,1,27,2.8491,7,0,44
15,1,1,14,2.2058,10,1,45
15,1,1,24,2.2445,10,1,46
15,0,0,12,3.3152,7,1,47
15,0,1,12,3.3419,4,0,48
15,1,0,12,2.5837,7,0,49
15,0,0,26,3.22,10,1,50
15,1,1,27,4.0288,10,1,51
15,0,1,27,4.1355,7,0,52
15,0,1,22,3.0011,10,0,53
15,0,0,18,2.7455,13,1,54
15,1,1,16,2.8838,13,1,55
15,1,1,8,3.4084,10,1,56
15,1,1,20,3.5567,7,1,57
15,0,1,16,2.4945,4,0,58
15,1,1,34,2.0589,7,1,59
15,1,1,32,3.9165,7,1,60
16,0,0,50,4.8025,30,1,1
16,1,0,50,6.2829,27,0,2
16,0,0,50,4.3287,30,1,3
16,0,0,50,2.6356,27,1,4
16,0,0,49,2.1231,24,1,5
16,1,0,48,2.7968,21,0,6
16,0,0,49,3.1261,24,1,7
16,0,0,46,3.4613,21,1,8
16,0,0,49,3.202,18,1,9
16,1,0,49,1.9069,15,0,10
16,1,0,50,2.3233,18,0,11
16,0,1,50,2.9224,15,0,12
16,0,0,49,3.2405,18,1,13
16,0,0,50,2.7688,18,1,14
16,0,0,48,2.0632,15,1,15
16,0,0,50,2.184,12,1,16
16,0,1,12,3.981,9,0,17
16,1,0,47,2.1107,12,0,18
16,0,0,49,2.855,15,1,19
16,1,1,20,2.8887,6,1,20
16,1,1,48,2.6005,3,1,21
16,0,1,49,3.2841,1,0,22
16,0,1,50,2.1942,4,0,23
16,1,1,49,3.0667,7,1,24
16,1,0,50,2.0264,7,0,25
16,1,0,49,2.3731,10,0,26
16,0,0,49,2.1107,13,1,27
16,1,1,49,2.4616,13,1,28
16,0,1,48,2.4809,10,0,29
16,1,1,50,3.0777,13,1,30
16,1,1,50,2.926,13,1,31
16,0,0,39,2.3548,10,1,32
16,0,1,12,2.0762,7,0,33
16,0,1,29,1.549,10,0,34
16,0,1,34,10.1397,13,0,35
16,1,1,48,2.511,16,1,36
16,1,1,43,2.1835,10,1,37
16,1,1,50,2.7713,4,1,1
16,0,0,33,1.8373,1,1,2
16,1,1,50,1.7756,1,1,3
16,0,1,49,2.7135,1,0,4
16,1,0,49,2.6928,7,0,5
16,1,0,49,2.3534,10,0,6
16,0,0,48,2.9434,13,1,7
16,1,1,50,3.3757,13,1,8
16,0,0,50,2.0142,13,1,9
16,0,0,48,5.1562,13,1,10
16,1,1,50,2.3351,10,1,11
16,0,0,47,2.4122,7,1,12
16,0,1,25,8.6696,4,0,13
16,1,1,50,2.6682,7,1,14
16,1,1,50,2.1742,4,1,15
16,1,1,50,2.2012,4,1,16
16,1,1,50,5.3496,1,1,17
16,0,0,48,2.5063,1,1,18
16,0,1,50,2.5114,1,0,19
16,0,0,50,2.5435,4,1,20
16,0,0,50,2.8182,1,1,21
16,0,1,50,458.3093,7,0,22
16,0,1,49,6.3172,13,0,23
16,0,0,50,2.5789,16,1,24
16,0,1,14,3.3322,16,0,25
16,0,0,50,3.5624,19,1,26
16,1,0,50,4.2268,19,0,27
16,0,1,49,1.3787,22,0,28
16,1,1,49,1.2704,25,1,29
16,0,0,49,2.6692,25,1,30
16,0,1,49,2.4516,22,0,31
16,1,1,50,2.1242,25,1,32
16,0,0,50,2.7697,22,1,33
16,0,0,39,3.2964,19,1,34
16,0,0,49,2.6211,13,1,35
16,0,1,30,14.5799,7,0,36
16,0,1,50,3.9399,10,0,37
16,1,1,18,30.0781,13,1,38
16,1,0,49,2.4301,13,0,39
16,1,1,49,2.6889,16,1,40
16,0,1,50,2.0926,16,0,41
16,0,1,25,7.6748,19,0,42
16,1,1,49,2.8785,22,1,1
16,1,1,28,6.161,19,1,2
16,1,1,50,11.5051,22,1,3
16,1,1,50,1.9916,22,1,4
16,1,0,50,3.8098,16,0,5
16,1,1,50,1.9868,19,1,6
16,0,0,49,2.5395,19,1,7
16,0,0,50,2.899,16,1,8
16,1,1,49,2.7288,13,1,9
16,0,0,49,1.9854,10,1,10
16,0,1,50,2.678,7,0,11
16,1,0,50,2.62,13,0,12
16,1,1,50,2.1922,10,1,13
16,1,1,50,1.4291,1,1,14
16,0,1,50,3.7373,1,0,15
16,0,1,50,2.4805,4,0,16
16,0,0,49,2.9955,10,1,17
16,0,1,49,2.1131,4,0,18
16,0,0,50,2.6497,7,1,19
16,1,1,50,1.5759,4,1,20
16,0,0,49,2.5004,1,1,21
16,0,1,49,1.6175,4,0,22
16,1,1,50,1.4688,13,1,23
16,0,1,50,3.0356,7,0,24
16,0,0,49,3.0862,10,1,25
16,1,1,17,2.9787,7,1,26
16,1,1,49,1.7559,10,1,27
16,1,1,49,1.4982,7,1,28
16,0,1,49,1.9048,1,0,29
16,1,1,50,1.4302,4,1,30
16,1,1,49,2.2754,4,1,1
16,0,0,42,2.0735,1,1,2
16,1,1,50,1.5999,4,1,3
16,1,1,50,1.8856,4,1,4
16,1,1,50,1.8746,4,1,5
16,0,1,29,4.7442,1,0,6
16,0,1,49,1.8358,4,0,7
16,1,1,50,1.916,1,1,8
16,1,1,50,1.597,1,1,9
16,1,1,50,2.5606,1,1,10
16,0,0,49,3.2434,1,1,11
16,1,1,50,1.3987,1,1,12
16,0,1,50,2.1543,4,0,13
16,1,1,50,4.467,7,1,14
16,1,1,49,2.4796,7,1,15
16,1,1,50,3.5239,4,1,16
16,1,0,50,3.7411,1,0,17
16,0,0,49,4.4389,4,1,18
16,0,0,50,3.6486,1,1,19
16,1,1,50,3.3623,1,1,20
16,1,1,49,2.6679,4,1,21
16,0,1,19,2.896,1,0,22
16,0,1,17,4.317,4,0,23
16,1,1,50,3.017,10,1,24
16,1,1,49,5.072,4,1,25
16,0,1,50,1.9049,1,0,26
16,0,1,50,1.8317,4,0,27
16,1,1,14,3.518,1,1,28
16,0,1,50,2.8693,1,0,29
17,0,0,15,3.77,18,1,1
17,1,1,14,5.298,15,1,2
17,1,1,22,4.642,12,1,3
17,0,1,10,4.779,9,0,4
17,0,1,15,5.016,12,0,5
17,1,1,18,7.359,15,1,6
17,1,1,17,5.84,15,1,7
17,1,1,22,4.837,12,1,8
17,1,1,15,7.732,9,1,9
17,0,1,20,5.79,6,0,10
17,1,1,24,6.988,9,1,11
17,1,0,6,5.115,9,0,12
17,0,1,8,10.185,12,0,13
17,1,1,31,3.356,15,1,14
17,0,0,10,3.543,15,1,15
17,1,1,13,6.438,12,1,16
17,0,1,23,3.288,9,0,17
17,0,1,9,4.161,12,0,18
17,0,1,17,4.779,15,0,19
17,0,1,20,7.742,18,0,20
17,1,1,11,4.917,21,1,21
17,0,1,23,4.524,21,0,22
17,0,0,4,5.192,24,1,23
17,0,1,10,4.907,24,0,24
17,1,1,27,4.623,27,1,25
17,0,0,25,3.602,27,1,26
17,0,0,9,5.574,24,1,27
17,0,0,18,3.1,21,1,28
17,0,0,14,5.143,18,1,29
17,1,1,24,3.905,15,1,30
17,1,1,29,2.915,12,1,31
17,0,1,18,6.134,9,0,32
17,1,1,29,3.376,12,1,33
17,0,0,4,3.622,12,1,34
17,0,0,15,6.517,9,1,35
17,1,0,10,8.439,6,0,36
17,1,1,16,3.778,9,1,37
17,0,1,19,6.427,9,0,38
17,0,0,7,5.73,12,1,39
17,0,0,27,4.131,12,1,40
17,1,1,24,6.438,9,1,41
17,1,1,32,2.661,6,1,42
17,1,1,8,3.75,3,1,43
17,1,0,10,4.337,1,0,44
17,1,0,11,5.399,4,0,45
17,1,1,17,5.182,7,1,46
17,0,0,11,4.297,7,1,47
17,0,0,11,4.798,4,1,48
17,0,1,30,2.689,1,0,49
17,0,0,33,2.915,4,1,50
17,0,1,29,3.681,4,0,51
17,0,0,42,3.063,7,1,52
17,1,0,20,4.73,7,0,53
17,0,0,44,2.65,10,1,54
17,0,1,20,3.258,10,0,55
17,1,1,36,2.808,13,1,56
17,1,1,32,2.739,13,1,57
17,0,1,38,2.688,10,0,58
17,0,0,17,3.542,13,1,59
17,1,1,30,3.966,13,1,60
17,1,1,10,6.647,10,1,1
17,1,1,15,3.414,7,1,2
17,0,1,19,4.455,4,0,3
17,0,1,11,8.419,7,0,4
17,0,1,25,7.969,10,0,5
17,1,1,36,3.593,13,1,6
17,0,1,23,5.515,13,0,7
17,0,0,12,4.249,16,1,8
17,0,1,20,4.268,16,0,9
17,1,1,31,2.659,19,1,10
17,0,0,13,6.22,19,1,11
17,0,1,11,5.956,16,0,12
17,1,1,26,4.062,19,1,13
17,1,1,40,2.739,19,1,14
17,1,1,50,3.837,16,1,15
17,0,0,10,3.563,13,1,16
17,0,0,11,4.121,10,1,17
17,0,1,17,3.984,7,0,18
17,0,0,18,3.887,10,1,19
17,0,0,29,3.013,10,1,20
17,1,1,38,2.562,7,1,21
17,0,0,10,4.23,4,1,22
17,1,1,26,2.502,1,1,23
17,0,1,46,2.797,1,0,24
17,1,1,20,4.732,4,1,25
17,1,1,23,3.238,4,1,26
17,0,1,14,4.358,1,0,27
17,1,1,17,4.583,4,1,28
17,0,1,26,3.277,4,0,29
17,0,0,7,3.249,7,1,30
17,1,1,35,2.777,7,1,31
17,1,1,29,2.532,4,1,32
17,0,1,21,3.996,1,0,33
17,1,1,24,2.904,4,1,34
17,1,1,20,3.435,4,1,35
17,1,1,22,4.399,1,1,36
17,0,1,35,4.553,1,0,37
17,0,1,23,2.748,4,0,38
17,1,1,43,2.993,7,1,39
17,1,1,24,3.445,7,1,40
17,1,1,27,5.564,4,1,41
17,1,1,10,2.993,1,1,42
17,0,1,28,2.435,1,0,43
17,1,1,18,3.455,4,1,44
17,1,1,31,2.522,4,1,45
17,0,1,25,4.878,1,0,46
17,1,1,21,4.279,4,1,47
17,1,1,4,7.793,4,1,48
17,1,0,10,4.082,1,0,49
17,0,0,22,2.749,4,1,50
17,1,1,23,4.201,4,1,51
17,1,1,27,2.454,1,1,52
17,0,1,16,3.797,1,0,53
17,0,1,20,4.643,4,0,54
17,1,0,19,2.957,7,0,55
17,1,1,15,3.76,10,1,56
17,0,0,6,4.808,10,1,57
17,1,1,16,3.171,7,1,58
17,1,1,26,2.699,4,1,59
17,0,1,14,3.24,1,0,60
17,1,1,14,2.429,4,1,1
17,1,1,10,2.983,4,1,2
17,1,1,16,2.973,1,1,3
17,1,1,13,4.035,1,1,4
17,0,1,16,2.445,1,0,5
17,0,1,15,5.045,4,0,6
17,1,1,21,3.044,7,1,7
17,1,0,5,4.496,7,0,8
17,0,1,11,2.848,10,0,9
17,1,1,17,4.801,13,1,10
17,1,1,24,3.572,13,1,11
17,0,1,17,4.339,10,0,12
17,0,0,11,3.367,13,1,13
17,0,1,16,4.438,13,0,14
17,0,1,8,4.162,16,0,15
17,0,0,15,2.995,19,1,16
17,1,1,29,3.24,19,1,17
17,1,1,30,2.26,16,1,18
17,1,1,36,3.063,13,1,19
17,0,0,25,2.856,10,1,20
17,0,1,32,3.945,7,0,21
17,1,1,34,2.983,10,1,22
17,1,1,30,3.327,10,1,23
17,1,1,18,3.729,7,1,24
17,0,1,32,4.112,4,0,25
17,0,0,24,3.209,7,1,26
17,1,1,24,4.997,7,1,27
17,1,1,29,3.337,4,1,28
17,1,1,38,2.767,1,1,29
17,0,1,42,2.552,1,0,30
17,0,1,36,3.641,4,0,31
17,1,1,37,2.345,7,1,32
17,0,0,17,3.514,7,1,33
17,0,1,18,3.435,4,0,34
17,1,1,23,4.368,7,1,35
17,1,1,44,2.552,7,1,36
17,1,1,32,2.082,4,1,37
17,1,1,46,3.672,1,1,38
17,0,1,29,4.023,1,0,39
17,0,1,27,3.385,4,0,40
17,0,1,23,3.082,7,0,41
17,0,0,10,4.014,10,1,42
17,1,1,30,3.298,10,1,43
17,0,1,27,4.73,7,0,44
17,0,1,26,4.417,10,0,45
17,1,1,30,2.434,13,1,46
17,0,1,15,2.876,13,0,47
17,1,1,38,2.593,16,1,48
17,1,1,46,4.005,16,1,49
17,0,0,16,3.357,13,1,50
17,1,1,17,2.522,10,1,51
17,1,1,28,2.188,7,1,52
17,1,1,24,2.817,4,1,53
17,1,1,22,2.256,1,1,54
17,0,0,12,2.825,1,1,55
17,1,1,34,2.12,1,1,56
17,1,1,22,2.767,1,1,57
17,0,1,25,3.192,1,0,58
17,1,0,14,3.483,4,0,59
17,1,1,20,3.406,7,1,60
17,0,1,13,2.419,7,0,1
17,0,0,14,6.36,10,1,2
17,1,1,30,3.739,10,1,3
17,1,1,31,2.739,7,1,4
17,1,1,28,3.287,4,1,5
17,1,1,19,3.022,1,1,6
17,1,1,24,4.339,1,1,7
17,0,1,29,4.21,1,0,8
17,0,0,16,2.924,4,1,9
17,1,1,24,2.582,4,1,10
17,1,0,7,4.662,1,0,11
17,0,1,17,2.744,4,0,12
17,1,1,21,3.01,7,1,13
17,1,1,24,2.032,7,1,14
17,1,1,22,2.923,4,1,15
17,1,1,21,5.368,1,1,16
17,0,1,7,4.348,1,0,17
17,1,1,34,2.866,4,1,18
17,0,1,24,3.748,4,0,19
17,1,1,26,3.917,7,1,20
17,1,1,28,2.366,7,1,21
17,1,1,19,3.994,4,1,22
17,1,1,13,3.945,1,1,23
17,0,1,24,4.417,1,0,24
17,0,0,22,2.43,4,1,25
17,0,1,20,4.129,4,0,26
17,1,1,21,2.472,7,1,27
17,1,1,15,2.788,7,1,28
17,1,1,21,2.727,4,1,29
17,1,1,26,3.356,1,1,30
17,1,1,13,3.766,1,1,31
17,0,1,20,2.736,1,0,32
17,0,1,26,3.092,4,0,33
17,0,1,20,2.651,7,0,34
17,0,0,7,3.592,10,1,35
17,1,1,17,6.272,10,1,36
17,0,1,25,3.068,7,0,37
17,0,0,20,2.304,10,1,38
17,1,1,31,2.56,10,1,39
17,1,1,29,2.139,7,1,40
17,0,1,13,2.852,4,0,41
17,0,1,19,3.298,7,0,42
17,1,1,26,2.56,10,1,43
17,1,1,41,2.619,10,1,44
17,0,1,19,3.225,7,0,45
17,0,1,18,3.187,10,0,46
17,1,1,29,2.876,13,1,47
17,1,1,23,2.954,13,1,48
17,1,1,24,2.042,10,1,49
17,1,1,26,2.209,7,1,50
17,1,1,21,3.924,4,1,51
17,1,1,17,2.971,1,1,52
17,0,1,18,3.01,1,0,53
17,1,0,10,3.297,4,0,54
17,0,0,7,3.17,7,1,55
17,1,1,18,3.426,7,1,56
17,1,1,14,2.719,4,1,57
17,1,1,21,2.728,1,1,58
17,1,1,15,2.311,1,1,59
17,0,1,16,2.619,1,0,60
18,0,0,38,1.709,18,1,1
18,0,0,46,2.631,15,1,2
18,1,1,43,2.007,12,1,3
18,0,1,28,2.322,9,0,4
18,0,0,45,2.322,12,1,5
18,0,0,45,2.03,12,1,6
18,1,1,49,2.217,9,1,7
18,0,1,50,2.18,6,0,8
18,0,0,31,2.031,9,1,9
18,1,1,1,4.387,12,1,10
18,0,1,2,12.954,9,0,11
18,1,1,42,1.784,12,1,12
18,1,0,43,1.887,9,0,13
18,0,1,46,1.774,12,0,14
18,0,0,42,1.687,15,1,15
18,1,1,46,2.102,15,1,16
18,0,0,41,2.159,12,1,17
18,0,1,2,10.681,9,0,18
18,0,0,45,1.488,12,1,19
18,0,0,40,1.655,12,1,20
18,0,1,42,1.815,9,0,21
18,1,1,41,1.914,12,1,22
18,1,1,49,1.869,12,1,23
18,0,0,48,1.701,9,1,24
18,1,0,49,1.766,6,0,25
18,1,1,47,1.708,9,1,26
18,0,0,50,2.055,12,1,27
18,0,1,49,1.781,9,0,28
18,0,0,49,2.126,18,1,29
18,0,0,50,1.993,15,1,30
18,0,0,50,2.266,15,1,31
18,1,1,50,1.864,12,1,32
18,0,0,50,1.96,6,1,33
18,0,0,50,2.495,3,1,34
18,0,0,50,1.883,1,1,35
18,0,1,50,2.236,1,0,36
18,1,0,50,2.144,7,0,37
18,1,1,50,1.859,10,1,38
18,1,1,50,1.646,10,1,39
18,0,1,50,3.261,7,0,40
18,0,1,50,2.03,7,0,41
18,1,0,49,1.912,13,0,1
18,1,0,2,79.725,4,0,2
18,1,1,50,1.796,10,1,3
18,1,1,50,1.803,1,1,4
18,1,1,32,2.165,1,1,5
18,1,1,48,2.105,7,1,6
18,1,1,42,1.813,7,1,7
18,0,1,50,1.693,1,0,8
18,0,1,50,2.118,4,0,9
18,1,1,50,2.024,7,1,10
18,1,1,50,2.277,4,1,11
18,0,0,50,1.912,10,1,12
18,1,0,2,2.355,7,0,13
18,1,1,6,2.364,10,1,14
18,1,0,21,1.865,10,0,15
18,0,0,50,1.679,13,1,16
18,0,1,50,1.83,10,0,17
18,0,0,2,2.123,13,1,18
18,0,1,27,1.711,13,0,19
18,0,0,49,1.683,16,1,20
18,1,1,42,1.764,13,1,21
18,1,1,50,1.773,4,1,22
18,1,0,1,3.268,4,0,1
18,0,1,24,1.433,7,0,2
18,1,0,2,30.733,10,0,3
18,1,0,12,1.372,13,0,4
18,1,1,43,2.078,16,1,5
18,1,0,39,1.54,16,0,6
18,1,1,32,1.496,19,1,7
18,0,0,36,1.473,19,1,8
18,1,1,30,1.584,16,1,9
18,1,1,28,1.738,13,1,10
18,0,0,37,1.406,10,1,11
18,1,1,37,2.371,7,1,12
18,0,0,35,1.812,4,1,13
18,1,1,33,1.553,1,1,14
18,0,0,38,1.525,1,1,15
18,0,0,41,2.607,1,1,16
18,1,1,33,1.811,1,1,17
18,1,0,36,1.64,1,0,18
18,0,1,32,1.913,4,0,19
18,0,0,37,1.413,7,1,20
18,0,0,35,1.599,7,1,21
18,1,1,35,1.558,4,1,22
18,0,0,37,1.64,1,1,23
18,1,1,34,1.546,1,1,24
18,0,1,39,1.984,1,0,25
18,1,0,33,1.302,4,0,26
18,1,1,29,1.452,7,1,27
18,0,0,45,1.742,7,1,28
18,0,0,36,1.668,4,1,29
18,1,0,36,1.7,1,0,30
18,1,1,47,2.465,4,1,31
18,1,1,43,1.66,4,1,32
18,0,1,41,1.638,1,0,33
18,0,0,41,1.566,4,1,34
18,1,0,42,1.416,4,0,35
18,0,0,38,1.52,7,1,36
18,0,1,36,1.546,7,0,37
18,1,0,42,1.937,10,0,38
18,0,0,38,1.765,13,1,39
18,1,0,47,1.506,13,0,40
18,1,0,26,2.146,16,0,41
18,1,1,35,1.735,19,1,42
18,0,0,39,1.625,19,1,43
18,0,0,38,1.512,16,1,44
18,0,1,36,1.942,13,0,45
18,0,0,36,1.724,16,1,46
18,0,0,1,26.676,16,1,47
18,1,1,31,1.512,13,1,48
18,1,0,34,1.647,10,0,49
18,1,0,34,1.738,13,0,50
18,1,1,34,1.459,16,1,51
18,1,1,30,1.462,16,1,52
18,0,0,30,1.288,13,1,53
18,0,0,36,1.402,10,1,54
18,0,1,32,1.504,7,0,55
18,0,0,34,1.372,10,1,56
18,1,1,36,1.662,10,1,57
18,1,1,34,2.874,7,1,58
18,1,1,34,1.69,4,1,59
18,1,1,34,1.472,1,1,60
18,1,1,27,1.771,1,1,1
18,1,1,28,2.103,1,1,2
18,0,0,26,1.688,1,1,3
18,0,1,31,1.474,1,0,4
18,0,0,28,1.405,4,1,5
18,0,0,38,1.403,4,1,6
18,0,1,29,1.866,1,0,7
18,1,0,29,1.527,4,0,8
18,1,1,34,1.472,7,1,9
18,1,0,37,1.622,7,0,10
18,0,0,30,1.821,10,1,11
18,1,0,41,1.481,10,0,12
18,1,0,34,1.36,13,0,13
18,1,1,35,1.639,16,1,14
18,1,1,37,1.7,16,1,15
18,1,0,38,1.434,13,0,16
18,0,0,32,1.48,16,1,17
18,1,0,36,1.481,16,0,18
18,0,0,41,1.977,19,1,19
18,0,0,41,1.938,19,1,20
18,0,0,41,1.774,16,1,21
18,1,0,40,1.324,13,0,22
18,1,1,36,1.598,16,1,23
18,1,1,35,1.511,16,1,24
18,1,0,39,1.758,13,0,25
18,1,1,37,1.497,16,1,26
18,1,0,41,1.924,16,0,27
18,0,0,40,1.49,19,1,28
18,0,0,43,1.645,19,1,29
18,0,0,40,1.443,16,1,30
18,0,0,44,1.291,13,1,31
18,1,1,34,1.365,10,1,32
18,0,0,43,1.559,7,1,33
18,0,1,44,1.77,4,0,34
18,1,1,35,1.45,7,1,35
18,0,0,43,1.64,7,1,36
18,0,0,40,1.261,4,1,37
18,0,1,40,2.182,1,0,38
18,0,1,46,1.818,4,0,39
18,0,0,46,1.73,7,1,40
18,0,0,43,1.526,7,1,41
18,1,1,36,1.481,4,1,42
18,1,0,45,1.577,1,0,43
18,1,0,34,2.332,4,0,44
18,1,1,35,1.568,7,1,45
18,1,1,41,1.668,7,1,46
18,1,1,46,1.492,4,1,47
18,0,1,46,1.486,1,0,48
18,1,0,42,1.567,4,0,49
18,0,0,42,1.531,7,1,50
18,1,1,43,1.497,7,1,51
18,0,0,48,1.444,4,1,52
18,0,1,34,2.592,1,0,53
18,1,1,42,1.698,4,1,54
18,0,1,39,1.614,4,0,55
18,1,1,41,1.484,7,1,56
18,1,1,36,1.474,7,1,57
18,1,1,33,1.463,4,1,58
18,0,1,39,1.269,1,0,59
18,0,0,41,1.5,4,1,60
19,1,1,50,9.0725,18,1,1
19,1,0,50,3.5439,15,0,2
19,0,0,50,3.074,15,1,3
19,1,0,50,5.4078,12,0,4
19,1,1,50,2.6022,15,1,5
19,0,0,50,4.6415,15,1,6
19,1,0,50,4.2417,9,0,7
19,1,1,50,3.7705,15,1,8
19,1,1,50,8.2732,12,1,9
19,0,1,50,30.5054,9,0,10
19,1,1,50,2.993,15,1,11
19,0,0,50,4.096,15,1,12
19,0,0,50,3.0658,18,1,13
19,1,0,50,5.3038,15,0,14
19,0,0,50,2.9062,18,1,15
19,0,1,50,16.3277,18,0,16
19,0,1,24,2.9291,24,0,17
19,0,0,50,6.4739,27,1,18
19,1,1,7,32.9125,27,1,19
19,1,0,15,3.7301,24,0,20
19,1,1,50,3.5137,27,1,21
19,1,1,38,4.5677,27,1,22
19,1,1,28,3.8414,24,1,23
19,1,1,37,2.8238,15,1,24
19,0,0,24,4.313,12,1,25
19,0,1,21,4.0155,12,0,26
19,0,0,50,2.848,15,1,27
19,1,1,50,4.1203,15,1,28
19,0,0,50,5.2092,9,1,29
19,1,0,50,4.5928,3,0,30
19,0,0,50,3.8418,9,1,31
19,1,1,4,10.3454,12,1,32
19,0,0,10,6.2083,12,1,33
19,0,1,12,2.4238,9,0,34
19,1,1,30,3.4175,12,1,1
19,0,1,20,2.5212,12,0,2
19,0,0,31,2.4734,15,1,3
19,0,1,5,3.537,15,0,4
19,1,1,17,1.6721,18,1,5
19,0,1,6,1.7217,18,0,6
19,0,1,10,2.1842,21,0,7
19,0,0,9,2.1507,24,1,8
19,0,0,8,1.8258,24,1,9
19,1,1,7,1.8012,21,1,10
19,1,1,9,2.7851,18,1,11
19,0,0,8,2.0661,15,1,12
19,0,0,5,2.3448,12,1,13
19,0,1,4,12.7055,9,0,14
19,1,1,6,1.7533,12,1,15
19,0,0,5,1.5299,12,1,16
19,0,0,3,1.7056,9,1,17
19,1,1,5,1.5856,9,1,18
19,0,1,6,2.0099,9,0,19
19,1,1,3,1.5203,12,1,20
19,0,1,7,1.5612,9,0,21
19,1,1,4,5.6961,12,1,22
19,0,0,4,1.8577,12,1,23
19,0,0,17,2.0339,9,1,24
19,0,1,4,1.449,6,0,25
19,1,1,10,1.568,9,1,26
19,0,1,7,1.991,6,0,27
19,1,1,7,1.8419,9,1,28
19,0,1,50,2.5204,15,0,29
19,0,0,18,1.816,18,1,30
19,0,0,50,1.5217,15,1,31
19,1,1,31,1.7453,12,1,32
19,1,0,50,2.0165,9,0,33
19,1,0,50,2.4248,12,0,34
19,0,0,50,6.8642,15,1,35
19,0,1,30,1.9772,15,0,36
19,1,1,13,1.7445,18,1,37
19,1,1,50,1.9034,12,1,38
19,1,1,50,1.9999,15,1,39
19,0,0,50,2.3425,15,1,40
19,0,0,50,2.9775,12,1,41
19,1,0,2,2.4578,9,0,42
19,1,0,43,2.8814,12,0,43
19,1,1,50,1.9209,15,1,44
19,1,1,3,1.8336,18,1,45
19,0,0,50,2.3292,18,1,46
19,1,0,14,5.283,15,0,1
19,0,0,50,2.8493,18,1,2
19,0,0,50,2.6341,18,1,3
19,1,0,29,3.177,15,0,4
19,0,0,45,2.7934,18,1,5
19,1,1,26,3.2978,15,1,6
19,1,1,28,2.1116,12,1,7
19,1,1,17,4.3356,9,1,8
19,0,1,41,2.1533,6,0,9
19,0,0,50,2.9617,9,1,10
19,1,1,50,3.3295,9,1,11
19,0,1,16,4.2557,6,0,12
19,0,0,18,3.1616,6,1,13
19,0,1,50,2.1125,1,0,14
19,0,0,16,5.1267,4,1,15
19,0,0,14,3.7614,4,1,16
19,1,0,21,2.6813,1,0,17
19,0,1,29,3.0555,4,0,18
19,0,1,20,3.6174,7,0,19
19,1,1,43,3.1524,10,1,20
19,1,0,50,2.4801,7,0,21
19,0,0,25,2.2246,4,1,22
19,1,0,29,2.6571,4,0,23
19,1,0,27,4.4013,7,0,24
19,1,0,50,3.6653,10,0,25
19,1,1,50,4.9692,13,1,26
19,1,0,20,2.5933,13,0,27
19,1,1,15,2.9143,1,1,28
19,1,0,25,3.2259,1,0,29
19,0,0,50,3.3198,4,1,30
19,0,0,32,2.6637,4,1,31
19,0,1,6,5.2166,1,0,32
19,0,1,21,2.3601,4,0,33
19,0,0,20,2.3047,7,1,34
19,0,0,50,2.2156,7,1,35
19,0,1,50,4.0077,4,0,36
19,0,0,50,2.1687,7,1,37
19,0,0,42,2.3041,4,1,38
19,1,1,16,4.3679,4,1,39
19,1,0,27,1.9685,4,0,40
19,1,1,26,3.1689,7,1,1
19,1,0,30,2.8172,4,0,2
19,1,1,50,2.2417,7,1,3
19,0,0,50,2.0814,7,1,4
19,1,0,18,3.3773,4,0,5
19,0,0,36,2.1373,7,1,6
19,1,0,8,2.6253,4,0,7
19,1,0,20,1.937,7,0,8
19,1,0,26,2.3361,10,0,9
19,0,0,40,1.6558,13,1,10
19,0,0,50,1.7995,10,1,11
19,0,0,13,2.8235,10,1,12
19,0,0,26,2.1678,7,1,13
19,0,0,33,2.3446,4,1,14
19,0,0,25,1.6727,1,1,15
19,1,0,30,2.1134,1,0,16
19,1,1,8,2.3447,4,1,17
19,0,0,28,2.7841,10,1,18
19,1,0,40,2.1777,10,0,19
19,0,0,50,2.8645,13,1,20
19,1,0,50,2.394,4,0,21
19,0,0,50,2.6084,7,1,22
19,0,1,35,2.8795,1,0,23
19,1,0,18,1.8737,4,0,24
19,1,1,10,2.5604,7,1,25
19,0,1,24,2.4407,4,0,26
19,0,0,30,2.4577,7,1,27
19,0,1,22,1.8881,7,0,28
19,0,1,50,1.9216,10,0,29
19,1,1,18,2.0162,10,1,30
19,0,0,50,2.0659,7,1,31
19,1,0,22,1.7917,4,0,32
19,1,0,19,1.8398,7,0,33
19,0,0,50,2.2165,7,1,34
19,0,0,28,2.1775,4,1,35
20,0,0,50,2.9644,15,1,1
20,0,0,20,2.8964,15,1,2
20,0,0,29,1.9314,15,1,3
20,0,0,46,2.4718,9,1,4
20,1,0,31,3.6694,6,0,5
20,0,0,22,2.0892,9,1,6
20,1,0,39,2.4929,9,0,7
20,0,0,21,2.4131,12,1,8
20,1,1,28,2.1166,12,1,9
20,1,1,31,5.0102,9,1,10
20,0,0,29,2.106,6,1,11
20,1,1,40,3.0214,3,1,12
20,1,1,42,4.0606,1,1,13
20,0,0,44,3.1083,1,1,14
20,1,0,29,2.9759,1,0,15
20,1,0,28,2.1436,4,0,16
20,1,1,28,2.2846,7,1,17
20,1,1,28,2.8356,7,1,18
20,0,0,27,4.159,4,1,19
20,0,0,25,2.9706,1,1,20
20,0,1,31,2.765,1,0,21
20,1,1,27,2.5987,4,1,22
20,1,0,31,2.9153,4,0,23
20,0,0,31,2.2772,7,1,24
20,1,0,2,6.4324,7,0,25
20,0,0,26,2.241,10,1,26
20,0,1,16,2.9445,10,0,27
20,0,0,31,2.4219,13,1,28
20,1,1,23,2.1733,13,1,29
20,1,1,26,2.4231,10,1,30
20,0,0,47,3.7647,7,1,31
20,1,1,21,3.1224,4,1,32
20,1,0,28,2.3012,1,0,33
20,1,0,37,1.9944,4,0,34
20,1,1,27,2.7009,7,1,35
20,0,0,43,2.3285,4,1,36
20,1,0,8,2.7115,4,0,37
20,1,0,35,2.2852,7,0,38
20,0,0,47,2.2425,10,1,39
20,0,0,46,2.1702,10,1,40
20,0,0,32,2.031,7,1,41
20,1,1,17,2.3703,4,1,42
20,0,0,1,3.1065,1,1,43
20,0,0,36,2.1397,1,1,44
20,0,0,3,2.4889,1,1,45
20,0,0,28,2.322,1,1,46
20,1,0,46,2.4853,1,0,47
20,0,0,38,2.9171,4,1,48
20,1,1,24,2.4563,4,1,49
20,0,0,19,3.3563,1,1,50
20,1,1,9,2.2476,1,1,51
20,1,0,45,2.7088,1,0,52
20,1,0,27,3.7949,4,0,53
20,0,1,34,3.6562,7,0,54
20,1,1,20,2.6559,10,1,1
20,0,0,31,4.2203,10,1,2
20,0,0,36,2.3986,7,1,3
20,0,0,14,2.4933,4,1,4
20,1,0,31,2.0016,1,0,5
20,1,0,25,3.5824,4,0,6
20,0,1,15,2.2033,7,0,7
20,1,1,32,2.1591,10,1,8
20,1,0,34,1.8668,10,0,9
20,1,1,28,2.2451,13,1,10
20,0,0,44,2.7312,13,1,11
20,1,1,14,2.1406,10,1,12
20,0,0,29,2.351,7,1,13
20,1,1,17,2.4164,4,1,14
20,0,1,7,2.2724,1,0,15
20,0,1,29,2.1121,4,0,16
20,1,0,22,2.1551,7,0,17
20,1,1,20,2.044,10,1,18
20,1,1,39,2.5602,10,1,19
20,0,0,42,2.479,7,1,20
20,1,0,46,2.5759,4,0,21
20,0,1,34,2.0204,7,0,22
20,1,0,44,2.0658,10,0,23
20,1,1,6,2.6245,13,1,24
20,1,1,18,3.563,13,1,25
20,0,0,50,3.1724,10,1,26
20,0,0,22,2.509,7,1,27
20,0,1,27,1.9561,4,0,28
20,1,1,26,2.0149,7,1,29
20,1,0,3,3.933,7,0,30
20,0,0,34,2.6794,10,1,31
20,1,0,9,2.8065,4,0,32
20,0,1,23,2.0087,7,0,33
20,0,0,32,2.2148,10,1,34
20,1,1,24,1.6156,10,1,35
20,1,1,20,3.4321,7,1,36
20,1,1,2,3.2265,4,1,37
20,0,1,4,3.2139,1,0,38
20,0,0,23,2.4616,4,1,39
20,0,1,9,3.1287,4,0,40
20,1,1,28,1.7396,7,1,41
20,1,1,8,2.4266,7,1,42
20,1,0,15,2.5809,4,0,43
20,0,1,4,3.0186,7,0,44
20,0,0,30,2.047,10,1,45
20,0,0,41,2.2641,10,1,46
20,0,0,42,2.3431,7,1,47
20,0,0,3,2.8053,4,1,48
20,1,0,27,2.1108,1,0,49
20,1,0,39,2.3803,7,0,50
20,0,0,47,2.1655,10,1,51
20,1,1,8,1.795,10,1,52
20,0,0,11,3.8222,7,1,53
20,0,0,42,2.4779,4,1,54
20,1,0,49,2.2162,1,0,55
20,1,0,3,2.5209,4,0,56
20,0,0,32,2.1979,7,1,57
20,1,0,28,2.9482,7,0,1
20,0,0,20,1.5804,10,1,2
20,0,1,6,1.9001,10,0,3
20,1,1,9,2.3897,13,1,4
20,0,0,43,2.5812,13,1,5
20,1,1,12,2.6747,7,1,6
20,1,0,32,1.9688,4,0,7
20,1,1,2,2.2964,7,1,8
20,1,1,18,2.0211,7,1,9
20,1,1,6,2.6663,4,1,10
20,1,0,29,2.2862,1,0,11
20,1,1,3,3.1706,4,1,12
20,1,0,20,3.2645,4,0,13
20,1,0,4,2.3303,7,0,14
20,0,1,7,2.5408,10,0,15
20,0,0,37,2.1947,13,1,16
20,0,0,47,1.8835,13,1,17
20,1,1,11,2.2909,10,1,18
20,0,0,35,1.7385,7,1,19
20,1,1,12,3.3151,4,1,20
20,1,1,3,2.2087,1,1,21
20,1,1,11,2.2967,1,1,22
20,1,1,21,2.7573,1,1,23
20,0,1,18,2.1774,1,0,24
20,1,1,3,2.8099,4,1,25
20,1,1,6,3.3043,4,1,26
20,1,1,29,2.224,1,1,27
20,1,1,10,1.6908,1,1,28
20,0,0,20,2.7116,1,1,29
20,0,0,28,1.989,1,1,30
20,1,1,4,2.1473,1,1,31
20,0,0,3,3.0825,1,1,32
20,1,1,5,2.0702,1,1,33
20,0,1,2,2.2696,1,0,34
20,1,0,4,2.2162,4,0,35
20,1,1,11,2.1444,7,1,36
20,0,0,28,2.1261,7,1,37
20,0,0,20,2.2576,4,1,38
20,1,0,17,3.4559,1,0,39
20,0,0,4,2.6248,4,1,40
20,1,0,32,1.9015,4,0,41
20,0,0,37,2.0828,7,1,42
20,0,0,39,2.5969,7,1,43
20,0,0,38,2.135,4,1,44
20,1,1,7,1.9406,1,1,45
20,0,0,41,2.1605,1,1,46
20,1,1,8,2.2703,1,1,47
20,1,1,8,1.9849,1,1,48
20,1,1,8,2.1652,1,1,49
20,1,1,6,2.7738,1,1,50
20,1,0,3,3.2623,1,0,51
20,1,0,31,2.0237,4,0,52
20,0,0,40,1.9117,7,1,53
20,1,0,39,1.6694,7,0,54
20,0,0,41,4.4628,10,1,55
20,1,1,4,1.7946,10,1,56
20,0,1,5,1.8144,7,0,57
20,0,0,18,1.9136,10,1,58
20,0,0,34,1.9016,10,1,59
20,0,0,10,1.8156,7,1,1
20,0,0,29,1.8032,4,1,2
20,0,0,10,2.7612,1,1,3
20,0,1,8,2.5054,1,0,4
20,1,0,32,2.094,4,0,5
20,1,0,46,2.1049,7,0,6
20,1,1,7,2.033,10,1,7
20,1,1,24,2.4643,10,1,8
20,0,1,4,2.081,7,0,9
20,0,0,30,2.2709,10,1,10
20,0,1,2,2.418,10,0,11
20,0,1,9,1.6785,13,0,12
20,0,0,39,2.2359,16,1,13
20,1,1,15,2.1467,16,1,14
20,0,1,6,2.407,13,0,15
20,1,1,34,1.7766,16,1,16
20,0,0,35,1.9928,16,1,17
20,1,1,33,3.0829,13,1,18
20,1,1,23,1.898,10,1,19
20,1,1,25,2.1433,7,1,20
20,0,0,28,1.925,4,1,21
20,1,0,3,2.8079,1,0,22
20,0,1,3,2.257,4,0,23
20,0,1,22,2.2141,7,0,24
20,0,0,16,1.804,10,1,25
20,1,1,23,1.772,10,1,26
20,0,0,30,2.519,7,1,27
20,1,1,30,2.2638,4,1,28
20,1,0,7,2.4396,1,0,29
20,0,1,13,1.6819,4,0,30
20,0,0,24,2.0376,7,1,31
20,0,0,1,2.5308,7,1,32
20,1,1,30,1.7486,4,1,33
20,1,0,26,1.7784,1,0,34
20,1,0,42,3.0695,4,0,35
20,0,0,34,2.7366,7,1,36
20,0,0,3,2.2553,7,1,37
20,0,0,11,1.7943,4,1,38
20,1,1,14,2.4695,1,1,39
20,1,1,4,3.5,1,1,40
20,1,1,5,1.8107,1,1,41
20,0,1,28,1.732,1,0,42
20,1,1,31,1.4846,4,1,43
20,0,0,24,2.9661,4,1,44
20,0,1,19,1.9891,1,0,45
20,0,1,7,2.2174,4,0,46
20,0,0,46,2.6297,7,1,47
20,0,0,40,2.126,7,1,48
20,1,1,7,2.0166,4,1,49
20,1,1,5,2.0565,1,1,50
20,1,0,2,3.5894,1,0,51
20,0,0,38,1.6609,4,1,52
20,0,0,27,1.6219,4,1,53
20,0,0,45,3.4065,1,1,54
20,1,0,38,1.9323,1,0,55
20,0,0,43,1.742,4,1,56
20,0,0,40,1.5286,4,1,57
20,0,1,2,2.3591,1,0,58
20,0,0,38,2.985,4,1,59
20,1,0,35,1.8996,4,0,60
21,0,0,50,2.208,18,1,1
21,1,1,50,2.178,12,1,2
21,0,0,33,2.937,9,1,3
21,0,0,28,2.433,6,1,4
21,1,0,30,2.185,3,0,5
21,1,1,22,3.921,6,1,6
21,1,1,26,3.306,6,1,7
21,0,0,50,1.787,3,1,8
21,0,1,50,2.13,4,0,9
21,1,1,36,2.041,7,1,10
21,1,0,46,2.987,7,0,11
21,1,0,49,1.93,4,0,12
21,0,1,38,2.339,7,0,13
21,1,0,38,2.186,10,0,14
21,1,0,44,1.601,13,0,15
21,1,1,32,2.369,16,1,16
21,0,0,50,1.873,16,1,17
21,1,1,40,1.514,13,1,18
21,0,0,50,1.548,10,1,19
21,1,1,39,1.763,7,1,20
21,1,0,50,1.762,4,0,21
21,1,1,28,2.578,7,1,22
21,1,0,36,1.643,7,0,23
21,0,0,42,1.977,10,1,24
21,1,0,38,1.546,10,0,25
21,1,0,26,2.05,13,0,26
21,0,0,50,1.89,16,1,27
21,1,1,28,2.666,16,1,28
21,1,0,30,1.739,16,0,29
21,0,0,26,2.242,19,1,30
21,1,0,40,1.313,19,0,31
21,0,1,23,1.907,22,0,32
21,1,1,32,1.593,25,1,33
21,0,1,23,1.995,25,0,34
21,0,0,50,1.892,28,1,35
21,1,0,31,1.946,22,0,36
21,0,0,24,2.529,25,1,37
21,0,0,35,1.514,22,1,38
21,0,0,50,1.978,16,1,39
21,1,0,28,1.793,13,0,40
21,1,0,29,1.538,16,0,41
21,0,1,32,1.706,19,0,42
21,0,0,50,2.155,22,1,43
21,0,0,29,1.681,22,1,44
21,0,0,22,2.29,19,1,45
21,0,0,15,2.409,16,1,1
21,1,1,35,1.586,13,1,2
21,0,0,32,1.41,10,1,3
21,1,1,26,1.651,7,1,4
21,0,0,26,1.314,4,1,5
21,0,0,16,1.699,1,1,6
21,0,0,16,2.201,1,1,7
21,0,0,33,1.978,1,1,8
21,0,0,29,2.138,1,1,9
21,0,0,23,1.354,4,1,10
21,0,1,28,1.426,4,0,11
21,0,0,23,1.371,7,1,12
21,0,1,27,1.721,7,0,13
21,0,0,23,1.921,10,1,14
21,0,0,50,1.658,10,1,15
21,1,1,28,1.41,7,1,16
21,1,1,20,1.939,4,1,17
21,1,1,24,1.234,1,1,18
21,0,0,24,1.282,1,1,19
21,0,0,23,1.426,1,1,20
21,0,0,13,1.345,1,1,21
21,0,0,23,1.29,1,1,22
21,0,0,20,1.29,1,1,23
21,1,1,21,1.193,1,1,24
21,0,0,22,1.378,1,1,25
21,0,0,50,2.826,1,1,26
21,1,0,29,1.281,1,0,27
21,0,0,50,6.146,4,1,28
21,1,0,20,1.394,4,0,29
21,0,1,25,1.33,7,0,30
21,1,1,41,1.499,10,1,31
21,0,1,28,1.194,10,0,32
21,0,1,37,1.571,13,0,33
21,0,1,36,1.642,16,0,34
21,1,1,39,1.329,19,1,35
21,1,1,50,1.586,16,1,36
21,1,1,26,1.586,13,1,37
21,0,0,36,1.355,4,1,38
21,1,1,50,1.394,4,1,39
21,1,0,27,1.811,1,0,40
21,0,0,30,1.266,4,1,41
21,1,0,25,1.314,4,0,42
21,0,1,13,1.201,7,0,43
21,0,0,17,1.384,10,1,44
21,1,0,20,1.354,10,0,45
21,1,1,19,1.417,13,1,46
21,1,1,26,1.402,13,1,47
21,0,0,25,1.435,10,1,48
