Subj_idx,Stimulus,Response,Confidence,RT_dec,RT_conf,Condition,Accuracy,Trial,Block,Sol_letters,Tar_letters,Sol_freq,Tar_freq,Letter_changed
1,1,NaN,4,NaN,1.868,1,NaN,1,0,NaN,NaN,NaN,NaN,NaN
1,2,2,3,0.896,2.146,1,1,2,0,NaN,NaN,NaN,NaN,NaN
1,2,2,2,2.579,2.15,1,1,3,1,7,7,126,126,0
1,1,1,4,1.364,0.863,1,1,4,1,8,7,272,12786,0
1,2,1,2,2.548,1.886,1,0,5,1,8,8,248,248,0
1,1,1,2,2.067,1.629,1,1,6,1,8,7,1022,556,1
1,2,2,4,1.056,1.203,1,1,7,1,7,7,613,613,0
1,1,1,2,1.012,3.511,1,1,8,1,8,7,104,100,1
1,1,2,2,2.213,1.253,1,0,9,1,8,9,3412,100,1
1,1,2,2,2.449,1.021,1,0,10,1,7,7,618,1644,1
1,1,1,2,2.77,1.163,1,1,11,1,8,8,594,100,1
1,1,2,2,2.584,4.017,1,0,12,1,8,7,857,227,1
1,2,2,2,2.295,1.79,1,1,13,1,8,8,162,162,0
1,1,2,2,2.065,1.059,1,0,14,1,8,7,134,196,1
1,2,1,2,2.96,1.024,1,0,15,1,8,8,1124,1124,0
1,1,1,2,2.067,2.346,1,1,16,1,7,7,177,236,1
1,2,2,2,2.293,0.971,1,1,17,1,9,9,707,707,0
1,1,1,2,1.236,0.884,1,1,18,2,8,6,896,100,2
1,1,1,2,2.58,0.817,1,1,19,2,8,7,962,408,2
1,1,1,2,0.932,1.493,1,1,20,2,8,6,175,160,2
1,2,2,2,2.651,1.244,1,1,21,2,6,6,422,422,0
1,1,1,2,2.534,0.856,1,1,22,2,8,7,976,283,2
1,2,NaN,2,NaN,0.817,1,NaN,23,2,8,8,2183,2183,0
1,2,1,2,1.562,0.864,1,0,24,2,9,9,653,653,0
1,2,2,1,1.632,2.273,1,1,25,2,8,8,1026,1026,0
1,2,2,3,1.645,3.003,1,1,26,2,7,7,248,248,0
1,2,2,2,2.105,0.794,1,1,27,2,7,7,212,212,0
1,2,2,2,1.411,2.619,1,1,28,2,8,8,328,328,0
1,1,2,2,1.802,1.22,1,0,29,2,9,9,2212,100,2
1,1,2,3,1.872,1.329,1,0,30,2,9,9,120,1042,1
1,1,1,2,1.058,0.551,1,1,31,2,8,6,455,457,2
1,2,2,1,1.485,1.882,1,1,32,2,7,7,920,920,0
2,2,2,4,1.823,8.221,1,1,1,0,NaN,NaN,NaN,NaN,NaN
2,1,2,4,0.838,1.409,1,0,2,0,NaN,NaN,NaN,NaN,NaN
2,2,2,1,0.415,5.528,1,1,3,1,9,9,707,707,0
2,2,2,2,0.227,5.632,1,1,4,1,8,8,162,162,0
2,2,2,1,0.77,4.099,1,1,5,1,8,8,248,248,0
2,1,2,1,0.541,1.036,1,0,6,1,8,9,3412,100,1
2,1,1,1,1.764,4.639,1,1,7,1,8,7,134,196,1
2,1,NaN,1,NaN,3.737,1,NaN,8,1,8,8,594,100,1
2,2,NaN,4,NaN,2.528,1,NaN,9,1,7,7,613,613,0
2,2,2,2,0.136,6.852,1,1,10,1,7,7,126,126,0
2,1,2,1,0.68,5.004,1,0,11,1,8,7,272,12786,0
2,1,2,1,0.421,0.899,1,0,12,1,7,7,618,1644,1
2,1,2,1,0.384,0.984,1,0,13,1,8,7,857,227,1
2,1,2,1,0.745,0.809,1,0,14,1,8,7,1022,556,1
2,1,1,1,1.386,1.898,1,1,15,1,8,7,104,100,1
2,1,1,1,2.625,2.066,1,1,16,1,7,7,177,236,1
2,2,2,1,0.887,3.017,1,1,17,1,8,8,1124,1124,0
2,2,NaN,1,NaN,1.425,1,NaN,18,2,8,8,328,328,0
2,2,2,1,0.571,0.577,1,1,19,2,7,7,248,248,0
2,2,2,1,0.717,0.753,1,1,20,2,8,8,1026,1026,0
2,2,2,1,0.771,0.651,1,1,21,2,8,8,2183,2183,0
2,1,2,1,1.465,0.964,1,0,22,2,8,7,976,283,2
2,1,2,1,1.151,1.328,1,0,23,2,9,9,120,1042,1
2,1,2,1,1.158,1.734,1,0,24,2,9,9,2212,100,2
2,1,2,1,0.754,1.484,1,0,25,2,8,6,896,100,2
2,2,2,1,1.377,1.605,1,1,26,2,9,9,653,653,0
2,2,1,1,1.851,2.865,1,0,27,2,7,7,212,212,0
2,2,1,1,1.887,1.063,1,0,28,2,7,7,920,920,0
2,1,1,1,0.85,1.219,1,1,29,2,8,6,175,160,2
2,1,1,1,0.92,2.029,1,1,30,2,8,6,455,457,2
2,1,1,1,0.957,1.877,1,1,31,2,8,7,962,408,2
2,2,1,1,0.646,1.859,1,0,32,2,6,6,422,422,0
3,2,2,1,1.7,3.653,1,1,1,0,NaN,NaN,NaN,NaN,NaN
3,1,NaN,1,NaN,1.545,1,NaN,2,0,NaN,NaN,NaN,NaN,NaN
3,1,1,2,1.703,1.34,1,1,3,1,8,7,134,196,1
3,1,1,2,2.65,2.092,1,1,4,1,7,7,618,1644,1
3,2,2,3,2.616,2.423,1,1,5,1,9,9,707,707,0
3,2,2,4,2.104,2.473,1,1,6,1,8,8,162,162,0
3,1,1,4,2.101,1.821,1,1,7,1,8,7,857,227,1
3,1,2,3,2.17,2.009,1,0,8,1,8,9,3412,100,1
3,1,NaN,3,NaN,1.71,1,NaN,9,1,8,8,594,100,1
3,2,2,2,0.492,1.244,1,1,10,1,8,8,1124,1124,0
3,1,2,2,0.483,0.288,1,0,11,1,8,7,1022,556,1
3,1,2,4,0.206,1.481,1,0,12,1,8,7,272,12786,0
3,1,2,2,0.529,0.383,1,0,13,1,8,7,104,100,1
3,2,2,2,0.93,0.566,1,1,14,1,8,8,248,248,0
3,2,2,4,0.188,1.444,1,1,15,1,7,7,613,613,0
3,2,2,4,1.117,1.31,1,1,16,1,7,7,126,126,0
3,1,2,4,0.992,1.529,1,0,17,1,7,7,177,236,1
3,1,2,3,1.05,1.858,1,0,18,2,8,7,962,408,2
3,2,2,3,0.616,1.306,1,1,19,2,7,7,248,248,0
3,1,1,3,1.163,1.561,1,1,20,2,8,7,976,283,2
3,2,2,3,0.718,1.414,1,1,21,2,8,8,1026,1026,0
3,1,2,3,2.248,1.34,1,0,22,2,9,9,2212,100,2
3,2,2,3,0.992,1.048,1,1,23,2,6,6,422,422,0
3,2,1,3,1.068,1.378,1,0,24,2,8,8,2183,2183,0
3,1,NaN,1,NaN,0.523,1,NaN,25,2,8,6,896,100,2
3,2,2,3,0.543,0.713,1,1,26,2,8,8,328,328,0
3,1,2,3,0.827,1.974,1,0,27,2,8,6,175,160,2
3,2,2,3,0.776,1.253,1,1,28,2,9,9,653,653,0
3,2,2,3,0.538,1.622,1,1,29,2,7,7,212,212,0
3,1,2,4,1.435,0.241,1,0,30,2,9,9,120,1042,1
3,2,2,3,0.552,1.487,1,1,31,2,7,7,920,920,0
3,1,2,3,1.563,0.99,1,0,32,2,8,6,455,457,2
4,1,1,4,1.52,4.084,1,1,1,0,NaN,NaN,NaN,NaN,NaN
4,2,1,4,1.077,1.264,1,0,2,0,NaN,NaN,NaN,NaN,NaN
4,2,NaN,2,NaN,1.992,1,NaN,3,1,9,9,707,707,0
4,1,1,2,1.584,2.118,1,1,4,1,8,7,134,196,1
4,2,2,2,1.463,2.113,1,1,5,1,8,8,248,248,0
4,1,NaN,4,NaN,1.174,1,NaN,6,1,8,7,104,100,1
4,2,2,3,0.871,2.135,1,1,7,1,8,8,1124,1124,0
4,1,2,2,0.424,2.017,1,0,8,1,8,7,857,227,1
4,2,2,3,0.526,0.687,1,1,9,1,7,7,613,613,0
4,2,1,2,2.27,1.558,1,0,10,1,8,8,162,162,0
4,1,2,1,1.032,2.891,1,0,11,1,8,8,594,100,1
4,1,1,2,0.836,1.689,1,1,12,1,8,7,1022,556,1
4,1,2,2,1.427,1.966,1,0,13,1,8,7,272,12786,0
4,1,1,2,0.994,1.775,1,1,14,1,7,7,177,236,1
4,2,1,2,0.993,2.123,1,0,15,1,7,7,126,126,0
4,1,1,1,1.23,1.558,1,1,16,1,7,7,618,1644,1
4,1,2,2,0.765,1.528,1,0,17,1,8,9,3412,100,1
4,1,1,2,1.003,1.701,1,1,18,2,8,6,175,160,2
4,1,2,1,0.938,1.575,1,0,19,2,8,6,455,457,2
4,1,2,2,1.273,1.399,1,0,20,2,9,9,2212,100,2
4,2,2,3,1.364,2.174,1,1,21,2,8,8,2183,2183,0
4,2,2,2,0.992,1.607,1,1,22,2,6,6,422,422,0
4,2,2,2,0.904,1.775,1,1,23,2,7,7,248,248,0
4,2,2,2,0.696,1.448,1,1,24,2,7,7,920,920,0
4,2,2,2,1.038,1.43,1,1,25,2,9,9,653,653,0
4,2,2,2,0.808,1.631,1,1,26,2,8,8,1026,1026,0
4,1,1,2,1.309,1.48,1,1,27,2,9,9,120,1042,1
4,1,2,2,1.03,1.272,1,0,28,2,8,6,896,100,2
4,2,2,2,0.8,1.508,1,1,29,2,7,7,212,212,0
4,1,1,2,0.77,1.899,1,1,30,2,8,7,976,283,2
4,2,2,2,0.84,1.592,1,1,31,2,8,8,328,328,0
4,1,1,2,1.297,1.635,1,1,32,2,8,7,962,408,2
5,1,NaN,2,NaN,10.451,1,NaN,1,0,NaN,NaN,NaN,NaN,NaN
5,2,NaN,3,NaN,9.114,1,NaN,2,0,NaN,NaN,NaN,NaN,NaN
5,1,2,3,1.856,2.445,1,0,3,1,8,8,594,100,1
5,2,2,3,1.241,3.921,1,1,4,1,8,8,248,248,0
5,1,1,2,2.196,4.083,1,1,5,1,8,7,1022,556,1
5,1,2,3,2.719,2.744,1,0,6,1,8,7,857,227,1
5,1,2,3,2.613,1.933,1,0,7,1,8,7,104,100,1
5,1,NaN,3,NaN,1.529,1,NaN,8,1,8,7,272,12786,0
5,1,1,2,1.755,1.99,1,1,9,1,7,7,618,1644,1
5,2,1,2,1.945,1.505,1,0,10,1,9,9,707,707,0
5,2,2,3,1.593,2.087,1,1,11,1,8,8,162,162,0
5,2,2,3,0.99,2.31,1,1,12,1,8,8,1124,1124,0
5,2,NaN,3,NaN,1.602,1,NaN,13,1,7,7,613,613,0
5,1,NaN,3,NaN,2.475,1,0,14,1,8,7,134,196,1
5,1,1,2,1.457,1.663,1,1,15,1,7,7,177,236,1
5,2,NaN,4,NaN,2.367,1,NaN,16,1,7,7,126,126,0
5,1,2,2,1.437,2.062,1,0,17,1,8,9,3412,100,1
5,1,1,3,0.653,3.129,1,1,18,2,8,7,976,283,2
5,2,1,3,1.182,1.962,1,0,19,2,8,8,328,328,0
5,1,2,3,1,1.574,1,0,20,2,9,9,120,1042,1
5,1,1,3,0.644,1.785,1,1,21,2,8,6,175,160,2
5,2,2,3,1.556,1.717,1,1,22,2,8,8,1026,1026,0
5,2,2,3,0.618,1.292,1,1,23,2,6,6,422,422,0
5,2,2,3,0.47,1.306,1,1,24,2,8,8,2183,2183,0
5,2,1,3,1.691,1.243,1,0,25,2,7,7,248,248,0
5,1,1,2,1.122,1.616,1,1,26,2,8,7,962,408,2
5,1,1,2,0.938,3.072,1,1,27,2,8,6,455,457,2
5,2,1,2,0.926,1.777,1,0,28,2,9,9,653,653,0
5,1,1,2,0.993,1.829,1,1,29,2,9,9,2212,100,2
5,1,1,3,0.835,2.549,1,1,30,2,8,6,896,100,2
5,2,2,3,1.741,1.743,1,1,31,2,7,7,212,212,0
5,2,2,3,1.431,2.036,1,1,32,2,7,7,920,920,0
6,1,1,4,2.969,4.287,1,1,1,0,NaN,NaN,NaN,NaN,NaN
6,2,2,3,0.65,2.125,1,1,2,0,NaN,NaN,NaN,NaN,NaN
6,1,2,2,0.892,3.053,1,0,3,1,8,7,104,100,1
6,2,1,4,0.551,1.425,1,0,4,1,7,7,613,613,0
6,2,1,1,1.338,3.162,1,0,5,1,8,8,248,248,0
6,1,1,3,1.631,2.068,1,1,6,1,8,7,857,227,1
6,1,1,2,1.114,2.209,1,1,7,1,8,7,1022,556,1
6,1,1,2,1.505,2.702,1,1,8,1,8,7,272,12786,0
6,2,2,3,0.992,2.091,1,1,9,1,7,7,126,126,0
6,2,1,2,1.207,2.072,1,0,10,1,8,8,1124,1124,0
6,1,1,4,1.235,1.452,1,1,11,1,8,7,134,196,1
6,2,2,2,0.88,2.762,1,1,12,1,9,9,707,707,0
6,1,1,2,1.152,1.714,1,1,13,1,7,7,618,1644,1
6,2,1,1,1.181,2.454,1,0,14,1,8,8,162,162,0
6,1,1,2,1.335,1.854,1,1,15,1,8,8,594,100,1
6,1,2,2,1.27,2.632,1,0,16,1,8,9,3412,100,1
6,1,2,2,1.069,1.258,1,0,17,1,7,7,177,236,1
6,1,1,2,1.347,1.599,1,1,18,2,9,9,120,1042,1
6,2,2,3,1.23,2.897,1,1,19,2,8,8,1026,1026,0
6,2,1,2,1.144,1.539,1,0,20,2,6,6,422,422,0
6,2,2,2,1.421,1.964,1,1,21,2,8,8,2183,2183,0
6,2,1,1,1.106,1.839,1,0,22,2,7,7,248,248,0
6,2,1,2,1.142,2.769,1,0,23,2,8,8,328,328,0
6,1,1,1,2.55,2.152,1,1,24,2,8,6,896,100,2
6,1,1,4,1.111,2.261,1,1,25,2,8,7,976,283,2
6,2,1,2,1.232,2.333,1,0,26,2,9,9,653,653,0
6,1,1,2,1.403,1.625,1,1,27,2,8,6,175,160,2
6,2,1,1,0.936,1.839,1,0,28,2,7,7,212,212,0
6,1,2,4,1.96,2.21,1,0,29,2,8,6,455,457,2
6,2,2,2,1.558,1.294,1,1,30,2,7,7,920,920,0
6,1,1,2,1.206,1.789,1,1,31,2,9,9,2212,100,2
6,1,1,3,1.035,2.462,1,1,32,2,8,7,962,408,2
7,1,1,4,2.568,6.28,1,1,1,0,NaN,NaN,NaN,NaN,NaN
7,2,2,4,2.12,2.313,1,1,2,0,NaN,NaN,NaN,NaN,NaN
7,2,2,4,0.111,2.299,1,1,3,1,8,8,162,162,0
7,1,1,4,1.958,1.573,1,1,4,1,8,7,272,12786,0
7,2,2,4,0.468,1.315,1,1,5,1,8,8,1124,1124,0
7,1,1,4,0.922,1.231,1,1,6,1,8,7,104,100,1
7,1,1,3,0.795,3.369,1,1,7,1,7,7,618,1644,1
7,1,2,3,1.804,1.673,1,0,8,1,7,7,177,236,1
7,1,1,4,0.879,1.543,1,1,9,1,8,8,594,100,1
7,2,2,4,0.571,0.862,1,1,10,1,7,7,613,613,0
7,1,1,4,0.758,0.871,1,1,11,1,8,7,1022,556,1
7,1,2,3,0.842,5.111,1,0,12,1,8,9,3412,100,1
7,2,2,4,0.519,1.549,1,1,13,1,7,7,126,126,0
7,2,2,4,0.455,1.194,1,1,14,1,8,8,248,248,0
7,2,2,4,0.42,1.081,1,1,15,1,9,9,707,707,0
7,1,1,4,1.414,7.104,1,1,16,1,8,7,857,227,1
7,1,1,4,1.082,1.452,1,1,17,1,8,7,134,196,1
7,2,2,4,0.846,1.415,1,1,18,2,8,8,2183,2183,0
7,1,1,3,0.653,1.148,1,1,19,2,8,7,962,408,2
7,1,1,4,0.373,2.007,1,1,20,2,8,6,175,160,2
7,2,2,4,2.236,1.647,1,1,21,2,7,7,920,920,0
7,2,NaN,4,NaN,1.719,1,NaN,22,2,6,6,422,422,0
7,2,2,4,0.293,1.337,1,1,23,2,7,7,248,248,0
7,1,1,4,1.184,1.689,1,1,24,2,8,7,976,283,2
7,2,2,4,1.499,1.077,1,1,25,2,7,7,212,212,0
7,1,1,4,1.233,0.633,1,1,26,2,9,9,2212,100,2
7,2,2,4,1.31,0.815,1,1,27,2,9,9,653,653,0
7,1,1,4,0.535,1.164,1,1,28,2,9,9,120,1042,1
7,1,1,4,0.414,0.675,1,1,29,2,8,6,896,100,2
7,2,2,4,1.719,2.566,1,1,30,2,8,8,1026,1026,0
7,2,2,4,0.963,1.217,1,1,31,2,8,8,328,328,0
7,1,1,4,0.382,0.516,1,1,32,2,8,6,455,457,2
8,1,NaN,4,NaN,4.065,1,NaN,1,0,NaN,NaN,NaN,NaN,NaN
8,2,2,4,0.133,1.521,1,1,2,0,NaN,NaN,NaN,NaN,NaN
8,2,2,1,1.517,2.395,1,1,3,1,8,8,248,248,0
8,1,2,1,1.471,1.498,1,0,4,1,8,9,3412,100,1
8,1,2,2,1.93,1.724,1,0,5,1,7,7,177,236,1
8,1,1,2,2.381,1.045,1,1,6,1,8,7,857,227,1
8,1,1,2,2.02,0.501,1,1,7,1,8,8,594,100,1
8,2,2,2,1.1,0.829,1,1,8,1,8,8,1124,1124,0
8,1,1,4,1.647,0.746,1,1,9,1,8,7,1022,556,1
8,1,1,1,1.15,1.447,1,1,10,1,8,7,134,196,1
8,1,1,3,2.077,2.777,1,1,11,1,7,7,618,1644,1
8,1,2,1,1.262,0.93,1,0,12,1,8,7,272,12786,0
8,2,2,1,1.496,1.19,1,1,13,1,9,9,707,707,0
8,2,1,1,0.975,0.598,1,0,14,1,8,8,162,162,0
8,2,2,2,1.623,1.072,1,1,15,1,7,7,126,126,0
8,1,2,4,2.26,0.687,1,0,16,1,8,7,104,100,1
8,2,2,4,0.656,0.547,1,1,17,1,7,7,613,613,0
8,1,2,1,2.371,2.201,1,0,18,2,9,9,120,1042,1
8,1,1,1,1.497,1.773,1,1,19,2,8,6,896,100,2
8,2,1,2,2.091,1.575,1,0,20,2,9,9,653,653,0
8,1,1,1,1.738,1.009,1,1,21,2,8,6,455,457,2
8,1,2,1,2.108,0.894,1,0,22,2,9,9,2212,100,2
8,2,2,2,1.268,1.137,1,1,23,2,6,6,422,422,0
8,1,1,2,1.494,0.988,1,1,24,2,8,7,962,408,2
8,2,2,3,2.305,1.764,1,1,25,2,7,7,920,920,0
8,2,2,2,0.987,2.64,1,1,26,2,8,8,1026,1026,0
8,2,2,1,1.95,0.96,1,1,27,2,7,7,212,212,0
8,1,1,4,1.002,0.571,1,1,28,2,8,7,976,283,2
8,2,2,1,1.161,1.471,1,1,29,2,7,7,248,248,0
8,1,1,3,1.451,0.423,1,1,30,2,8,6,175,160,2
8,2,2,1,0.934,1.902,1,1,31,2,8,8,2183,2183,0
8,2,2,2,1.487,0.828,1,1,32,2,8,8,328,328,0
9,1,2,4,2.451,2.877,1,0,1,0,NaN,NaN,NaN,NaN,NaN
9,2,2,4,1.237,1.117,1,1,2,0,NaN,NaN,NaN,NaN,NaN
9,2,NaN,2,NaN,1.756,1,NaN,3,1,7,7,126,126,0
9,1,1,2,0.995,0.525,1,1,4,1,8,7,272,12786,0
9,2,1,2,1.772,1.245,1,0,5,1,8,8,1124,1124,0
9,1,1,2,1.579,1.045,1,1,6,1,8,9,3412,100,1
9,1,1,1,1.764,0.587,1,1,7,1,8,7,1022,556,1
9,2,2,1,1.418,0.689,1,1,8,1,8,8,162,162,0
9,1,1,1,2.888,0.671,1,1,9,1,7,7,618,1644,1
9,2,2,1,0.803,1.276,1,1,10,1,8,8,248,248,0
9,1,2,2,1.931,1.33,1,0,11,1,8,8,594,100,1
9,1,2,2,0.849,0.766,1,0,12,1,8,7,134,196,1
9,1,1,2,1.408,1.194,1,1,13,1,7,7,177,236,1
9,1,2,1,0.694,1.784,1,0,14,1,8,7,857,227,1
9,1,1,1,2.711,0.487,1,1,15,1,8,7,104,100,1
9,2,2,1,1.231,1.13,1,1,16,1,9,9,707,707,0
9,2,2,1,2.282,1.133,1,1,17,1,7,7,613,613,0
9,2,1,2,2.052,0.586,1,0,18,2,8,8,2183,2183,0
9,1,2,2,0.181,0.557,1,0,19,2,8,6,175,160,2
9,2,1,1,1.19,0.358,1,0,20,2,6,6,422,422,0
9,2,1,2,2.075,1.321,1,0,21,2,9,9,653,653,0
9,2,2,2,0.88,0.526,1,1,22,2,8,8,328,328,0
9,1,2,2,1.11,0.824,1,0,23,2,9,9,120,1042,1
9,1,1,2,1.326,1.572,1,1,24,2,8,6,455,457,2
9,1,2,2,2.469,1.61,1,0,25,2,9,9,2212,100,2
9,2,1,2,1.618,0.662,1,0,26,2,7,7,212,212,0
9,1,1,2,1.26,1.952,1,1,27,2,8,7,962,408,2
9,2,2,2,1.146,0.671,1,1,28,2,7,7,248,248,0
9,2,2,2,0.84,0.591,1,1,29,2,8,8,1026,1026,0
9,1,2,2,1.108,1.438,1,0,30,2,8,6,896,100,2
9,1,1,2,0.997,1.594,1,1,31,2,8,7,976,283,2
9,2,2,2,0.147,1.444,1,1,32,2,7,7,920,920,0
10,1,1,2,2.568,3.62,1,1,1,0,NaN,NaN,NaN,NaN,NaN
10,2,2,4,1.158,2.318,1,1,2,0,NaN,NaN,NaN,NaN,NaN
10,2,2,2,2.441,2.438,1,1,3,1,8,8,248,248,0
10,2,1,3,2.077,0.659,1,0,4,1,8,8,162,162,0
10,1,2,1,1.728,2.278,1,0,5,1,8,8,594,100,1
10,1,2,2,1.89,2.264,1,0,6,1,7,7,618,1644,1
10,1,1,1,0.829,1.425,1,1,7,1,8,7,104,100,1
10,2,2,2,1.933,2.409,1,1,8,1,9,9,707,707,0
10,2,2,3,0.982,1.884,1,1,9,1,7,7,126,126,0
10,1,1,4,0.94,0.874,1,1,10,1,8,7,272,12786,0
10,1,2,2,0.856,2.386,1,0,11,1,8,9,3412,100,1
10,1,1,4,0.908,0.658,1,1,12,1,8,7,134,196,1
10,2,NaN,2,NaN,1.396,1,NaN,13,1,8,8,1124,1124,0
10,1,2,1,1.067,1.108,1,0,14,1,8,7,1022,556,1
10,1,2,1,0.61,1.05,1,0,15,1,7,7,177,236,1
10,2,2,4,0.459,1.827,1,1,16,1,7,7,613,613,0
10,1,2,1,0.698,0.993,1,0,17,1,8,7,857,227,1
10,1,2,2,0.73,0.79,1,0,18,2,9,9,2212,100,2
10,1,1,1,0.851,2.215,1,1,19,2,8,6,175,160,2
10,1,2,2,0.783,1.146,1,0,20,2,9,9,120,1042,1
10,1,1,3,0.826,2.091,1,1,21,2,8,6,896,100,2
10,2,2,2,1.962,1.108,1,1,22,2,6,6,422,422,0
10,2,2,2,0.392,0.772,1,1,23,2,7,7,248,248,0
10,1,1,2,1.95,1.411,1,1,24,2,8,7,976,283,2
10,2,2,1,0.611,1.418,1,1,25,2,7,7,920,920,0
10,2,2,2,1.341,1.126,1,1,26,2,7,7,212,212,0
10,1,1,2,1.201,0.93,1,1,27,2,8,6,455,457,2
10,2,1,1,2.38,0.574,1,0,28,2,9,9,653,653,0
10,2,2,1,0.87,1.401,1,1,29,2,8,8,1026,1026,0
10,1,2,1,1.085,0.975,1,0,30,2,8,7,962,408,2
10,2,2,1,1.309,0.509,1,1,31,2,8,8,328,328,0
10,2,2,1,0.58,0.95,1,1,32,2,8,8,2183,2183,0
11,1,1,4,2.287,2.347,1,1,1,0,NaN,NaN,NaN,NaN,NaN
11,2,2,4,1.98,2.253,1,1,2,0,NaN,NaN,NaN,NaN,NaN
11,1,2,1,2.651,3.226,1,0,3,1,8,7,1022,556,1
11,1,NaN,2,NaN,1.861,1,NaN,4,1,8,7,104,100,1
11,2,2,1,1.478,3.091,1,1,5,1,9,9,707,707,0
11,1,1,1,2.063,1.091,1,1,6,1,8,7,134,196,1
11,1,1,4,2.18,2.091,1,1,7,1,8,7,857,227,1
11,1,1,4,1.288,0.413,1,1,8,1,8,7,272,12786,0
11,1,1,1,2.189,1.282,1,1,9,1,8,8,594,100,1
11,2,1,4,0.662,0.579,1,0,10,1,7,7,613,613,0
11,1,2,1,1.517,1.141,1,0,11,1,8,9,3412,100,1
11,2,2,1,0.903,1.002,1,1,12,1,8,8,162,162,0
11,1,2,1,0.929,1.022,1,0,13,1,7,7,177,236,1
11,1,2,1,0.899,1.014,1,0,14,1,7,7,618,1644,1
11,2,2,1,0.82,1.447,1,1,15,1,7,7,126,126,0
11,2,1,1,2.733,1.163,1,0,16,1,8,8,1124,1124,0
11,2,2,4,0.51,1.666,1,1,17,1,8,8,248,248,0
11,1,1,1,1.006,0.805,1,1,18,2,9,9,2212,100,2
11,1,2,1,1.518,0.792,1,0,19,2,8,6,455,457,2
11,1,1,1,1.247,0.928,1,1,20,2,9,9,120,1042,1
11,2,2,1,1.828,2.189,1,1,21,2,8,8,1026,1026,0
11,1,2,1,2.256,0.938,1,0,22,2,8,6,896,100,2
11,2,1,4,2.111,1.049,1,0,23,2,8,8,2183,2183,0
11,2,2,4,2.454,1.54,1,1,24,2,6,6,422,422,0
11,2,NaN,4,NaN,1.532,1,NaN,25,2,7,7,920,920,0
11,2,2,1,1.476,1.422,1,1,26,2,7,7,212,212,0
11,1,1,1,1.164,1.17,1,1,27,2,8,7,962,408,2
11,2,2,4,2.105,1.176,1,1,28,2,7,7,248,248,0
11,2,2,1,0.739,1.011,1,1,29,2,9,9,653,653,0
11,2,2,1,0.779,0.777,1,1,30,2,8,8,328,328,0
11,1,2,1,0.699,1.777,1,0,31,2,8,6,175,160,2
11,1,1,1,1.514,0.788,1,1,32,2,8,7,976,283,2
12,2,2,4,1.633,3.096,1,1,1,0,NaN,NaN,NaN,NaN,NaN
12,1,1,4,2.334,1.677,1,1,2,0,NaN,NaN,NaN,NaN,NaN
12,1,NaN,2,NaN,2.483,1,NaN,3,1,8,9,3412,100,1
12,1,2,2,1.739,2.057,1,0,4,1,7,7,618,1644,1
12,2,2,2,1.504,1.362,1,1,5,1,8,8,162,162,0
12,2,2,4,1.537,1.679,1,1,6,1,8,8,248,248,0
12,2,2,2,1.967,1.728,1,1,7,1,7,7,613,613,0
12,2,1,2,2.685,0.909,1,0,8,1,9,9,707,707,0
12,1,2,2,2.366,0.894,1,0,9,1,8,8,594,100,1
12,1,2,2,1.488,1.628,1,0,10,1,7,7,177,236,1
12,1,2,2,1.59,0.784,1,0,11,1,8,7,857,227,1
12,1,NaN,2,NaN,0.785,1,NaN,12,1,8,7,134,196,1
12,1,NaN,4,NaN,1.579,1,NaN,13,1,8,7,272,12786,0
12,1,2,2,1.472,1.029,1,0,14,1,8,7,104,100,1
12,2,2,2,1.049,1.088,1,1,15,1,8,8,1124,1124,0
12,2,2,2,0.918,1.623,1,1,16,1,7,7,126,126,0
12,1,2,2,1.376,1.401,1,0,17,1,8,7,1022,556,1
12,2,2,2,0.842,1.294,1,1,18,2,7,7,248,248,0
12,1,2,2,0.856,0.64,1,0,19,2,8,6,896,100,2
12,1,NaN,2,NaN,0.653,1,NaN,20,2,8,7,976,283,2
12,2,2,2,0.689,0.597,1,1,21,2,7,7,212,212,0
12,1,2,2,0.566,0.654,1,0,22,2,9,9,2212,100,2
12,1,2,2,0.72,0.615,1,0,23,2,8,6,175,160,2
12,1,2,2,0.515,0.683,1,0,24,2,8,6,455,457,2
12,1,NaN,2,NaN,0.55,1,NaN,25,2,8,7,962,408,2
12,2,2,2,2.99,0.578,1,1,26,2,6,6,422,422,0
12,1,2,2,1.707,0.706,1,0,27,2,9,9,120,1042,1
12,2,NaN,2,NaN,1.619,1,NaN,28,2,7,7,920,920,0
12,2,2,2,1.292,1.274,1,1,29,2,9,9,653,653,0
12,2,2,2,0.816,0.628,1,1,30,2,8,8,328,328,0
12,2,2,2,1.194,0.555,1,1,31,2,8,8,2183,2183,0
12,2,2,2,1.791,1.862,1,1,32,2,8,8,1026,1026,0
13,1,NaN,4,NaN,8.478,1,NaN,1,0,NaN,NaN,NaN,NaN,NaN
13,2,2,4,2.083,5.094,1,1,2,0,NaN,NaN,NaN,NaN,NaN
13,1,2,1,2.159,4.109,1,0,3,1,8,7,1022,556,1
13,2,NaN,1,NaN,1.412,1,NaN,4,1,7,7,126,126,0
13,1,1,4,1.307,2.268,1,1,5,1,8,7,272,12786,0
13,2,NaN,1,NaN,1.155,1,NaN,6,1,9,9,707,707,0
13,2,NaN,4,NaN,1.968,1,NaN,7,1,8,8,162,162,0
13,1,2,2,0.889,1.367,1,0,8,1,7,7,177,236,1
13,2,NaN,2,NaN,1.408,1,NaN,9,1,8,8,248,248,0
13,1,1,1,2.129,1.334,1,1,10,1,8,8,594,100,1
13,2,2,4,0.848,1.415,1,1,11,1,7,7,613,613,0
13,1,NaN,1,NaN,1.494,1,NaN,12,1,8,7,857,227,1
13,1,2,1,1.548,1.702,1,0,13,1,8,9,3412,100,1
13,2,2,4,0.536,1.13,1,1,14,1,8,8,1124,1124,0
13,1,1,4,0.883,1.095,1,1,15,1,8,7,134,196,1
13,1,2,1,2.927,1.17,1,0,16,1,7,7,618,1644,1
13,1,2,4,2.609,2.979,1,0,17,1,8,7,104,100,1
13,2,2,4,0.772,1.595,1,1,18,2,7,7,920,920,0
13,2,2,1,2.511,1.446,1,1,19,2,8,8,1026,1026,0
13,2,NaN,1,NaN,1.375,1,NaN,20,2,9,9,653,653,0
13,2,1,4,2.966,0.886,1,0,21,2,6,6,422,422,0
13,1,1,1,0.917,1.207,1,1,22,2,8,6,896,100,2
13,2,NaN,4,NaN,1.481,1,NaN,23,2,8,8,328,328,0
13,2,1,2,0.843,3.277,1,0,24,2,7,7,248,248,0
13,2,1,2,2.737,1.373,1,0,25,2,8,8,2183,2183,0
13,1,1,4,2.974,1.343,1,1,26,2,8,7,976,283,2
13,1,1,1,1.572,1.387,1,1,27,2,9,9,2212,100,2
13,1,1,1,1.35,1.347,1,1,28,2,8,6,455,457,2
13,1,1,4,1.093,0.937,1,1,29,2,9,9,120,1042,1
13,1,1,2,1.037,2.86,1,1,30,2,8,6,175,160,2
13,1,1,3,0.885,2.18,1,1,31,2,8,7,962,408,2
13,2,NaN,2,NaN,2.294,1,NaN,32,2,7,7,212,212,0
14,1,1,3,2.804,6.316,1,1,1,0,NaN,NaN,NaN,NaN,NaN
14,2,2,3,1.635,2.775,1,1,2,0,NaN,NaN,NaN,NaN,NaN
14,1,2,1,1.533,3.021,1,0,3,1,8,8,594,100,1
14,1,2,1,1.07,1.107,1,0,4,1,8,7,1022,556,1
14,2,2,3,1.259,1.786,1,1,5,1,8,8,248,248,0
14,1,1,2,1.537,1.659,1,1,6,1,8,7,272,12786,0
14,1,1,3,1.118,1.399,1,1,7,1,8,7,857,227,1
14,2,2,3,1.044,1.303,1,1,8,1,8,8,162,162,0
14,2,2,1,2.085,0.632,1,1,9,1,9,9,707,707,0
14,1,1,3,1.154,0.546,1,1,10,1,8,9,3412,100,1
14,1,1,1,1.199,0.919,1,1,11,1,8,7,104,100,1
14,1,2,1,1.123,1.804,1,0,12,1,8,7,134,196,1
14,1,2,1,1.5,0.744,1,0,13,1,7,7,177,236,1
14,2,2,3,0.77,0.582,1,1,14,1,7,7,126,126,0
14,2,2,3,0.803,0.479,1,1,15,1,7,7,613,613,0
14,1,1,1,1.154,0.763,1,1,16,1,7,7,618,1644,1
14,2,2,1,1.233,0.764,1,1,17,1,8,8,1124,1124,0
14,1,1,1,1.082,0.785,1,1,18,2,8,6,175,160,2
14,1,2,1,0.911,0.968,1,0,19,2,9,9,120,1042,1
14,2,1,1,1.582,0.633,1,0,20,2,8,8,2183,2183,0
14,2,2,3,0.69,1.147,1,1,21,2,7,7,920,920,0
14,1,1,1,0.91,0.435,1,1,22,2,8,6,896,100,2
14,2,2,2,1.572,1.405,1,1,23,2,6,6,422,422,0
14,1,2,1,2.771,0.688,1,0,24,2,9,9,2212,100,2
14,2,2,1,1.42,0.742,1,1,25,2,8,8,1026,1026,0
14,2,1,1,1.347,0.763,1,0,26,2,7,7,248,248,0
14,1,1,1,0.809,1.066,1,1,27,2,8,7,976,283,2
14,2,2,1,0.956,1.558,1,1,28,2,7,7,212,212,0
14,2,2,1,0.913,0.704,1,1,29,2,8,8,328,328,0
14,1,1,1,0.871,0.719,1,1,30,2,8,6,455,457,2
14,2,1,1,1.035,0.726,1,0,31,2,9,9,653,653,0
14,1,1,1,0.809,0.699,1,1,32,2,8,7,962,408,2
15,1,2,4,0.895,2.147,1,0,1,0,NaN,NaN,NaN,NaN,NaN
15,2,2,4,1.005,2.913,1,1,2,0,NaN,NaN,NaN,NaN,NaN
15,2,2,4,0.81,1.779,1,1,3,1,7,7,613,613,0
15,1,1,1,2.403,1.471,1,1,4,1,8,7,1022,556,1
15,1,2,2,1.452,1.096,1,0,5,1,8,9,3412,100,1
15,2,2,3,0.932,3.256,1,1,6,1,8,8,162,162,0
15,1,1,1,1.488,1.382,1,1,7,1,7,7,177,236,1
15,1,1,2,0.9,1.069,1,1,8,1,8,7,857,227,1
15,1,NaN,2,NaN,0.773,1,NaN,9,1,8,7,134,196,1
15,2,2,2,1.521,0.883,1,1,10,1,8,8,248,248,0
15,1,1,2,2.589,2.747,1,1,11,1,7,7,618,1644,1
15,2,2,2,1.896,1.706,1,1,12,1,8,8,1124,1124,0
15,1,1,2,0.583,0.74,1,1,13,1,8,7,272,12786,0
15,2,1,3,0.289,5.831,1,0,14,1,7,7,126,126,0
15,1,NaN,3,NaN,5.934,1,NaN,15,1,8,8,594,100,1
15,2,2,1,1.969,1.267,1,1,16,1,9,9,707,707,0
15,1,1,4,1.134,1.514,1,1,17,1,8,7,104,100,1
15,1,1,2,1.367,1.057,1,1,18,2,8,6,175,160,2
15,1,2,2,2.343,0.937,1,0,19,2,9,9,120,1042,1
15,2,2,2,1.403,1.123,1,1,20,2,7,7,920,920,0
15,2,NaN,2,NaN,0.686,1,NaN,21,2,8,8,1026,1026,0
15,1,1,2,1.215,0.844,1,1,22,2,8,7,976,283,2
15,1,1,1,1.573,1.067,1,1,23,2,9,9,2212,100,2
15,2,2,2,1.174,1.602,1,1,24,2,8,8,328,328,0
15,1,1,1,1.603,0.948,1,1,25,2,8,7,962,408,2
15,2,1,1,1.784,1.103,1,0,26,2,6,6,422,422,0
15,1,1,1,1.677,0.925,1,1,27,2,8,6,896,100,2
15,2,NaN,1,NaN,1.365,1,NaN,28,2,8,8,2183,2183,0
15,2,1,2,1.383,1.769,1,0,29,2,9,9,653,653,0
15,1,2,2,0.789,0.667,1,0,30,2,8,6,455,457,2
15,2,2,2,0.976,0.929,1,1,31,2,7,7,212,212,0
15,2,2,2,1.439,0.678,1,1,32,2,7,7,248,248,0
16,2,NaN,4,NaN,5.329,1,NaN,1,0,NaN,NaN,NaN,NaN,NaN
16,1,1,4,1.552,1.154,1,1,2,0,NaN,NaN,NaN,NaN,NaN
16,1,1,4,1.24,1.087,1,1,3,1,8,8,594,100,1
16,2,NaN,1,NaN,3.016,1,NaN,4,1,9,9,707,707,0
16,2,2,4,0.862,0.7,1,1,5,1,8,8,1124,1124,0
16,1,1,2,0.902,1.834,1,1,6,1,7,7,618,1644,1
16,1,1,2,2.3,1.059,1,1,7,1,8,7,1022,556,1
16,1,2,2,1.099,1.353,1,0,8,1,8,7,104,100,1
16,1,1,2,0.707,0.901,1,1,9,1,8,7,134,196,1
16,1,1,2,0.538,1.321,1,1,10,1,8,7,272,12786,0
16,2,2,4,0.798,0.71,1,1,11,1,8,8,248,248,0
16,1,1,2,1.442,1.078,1,1,12,1,7,7,177,236,1
16,2,2,2,0.889,0.855,1,1,13,1,8,8,162,162,0
16,1,2,2,1.087,0.906,1,0,14,1,8,9,3412,100,1
16,2,2,4,0.658,0.858,1,1,15,1,7,7,126,126,0
16,1,1,2,0.583,1.361,1,1,16,1,8,7,857,227,1
16,2,2,4,0.787,1.353,1,1,17,1,7,7,613,613,0
16,1,1,2,0.841,0.778,1,1,18,2,9,9,120,1042,1
16,2,1,2,0.702,1.796,1,0,19,2,8,8,2183,2183,0
16,2,1,3,1.089,2.31,1,0,20,2,8,8,1026,1026,0
16,2,2,2,0.742,0.93,1,1,21,2,7,7,248,248,0
16,2,2,3,0.89,1.339,1,1,22,2,7,7,212,212,0
16,2,2,2,0.652,0.718,1,1,23,2,8,8,328,328,0
16,1,2,1,0.888,0.903,1,0,24,2,8,7,962,408,2
16,2,1,2,0.969,0.889,1,0,25,2,9,9,653,653,0
16,1,2,2,0.735,2.957,1,0,26,2,8,6,175,160,2
16,2,2,3,0.454,1.316,1,1,27,2,7,7,920,920,0
16,1,1,4,0.5,0.905,1,1,28,2,8,7,976,283,2
16,1,1,4,1.11,0.69,1,1,29,2,8,6,455,457,2
16,1,1,1,1.256,1.769,1,1,30,2,9,9,2212,100,2
16,2,2,2,1.29,1.399,1,1,31,2,6,6,422,422,0
16,1,1,2,0.932,2.04,1,1,32,2,8,6,896,100,2
17,1,NaN,4,NaN,4.037,1,NaN,1,0,NaN,NaN,NaN,NaN,NaN
17,2,2,4,1.32,1.99,1,1,2,0,NaN,NaN,NaN,NaN,NaN
17,1,NaN,2,NaN,2.697,1,NaN,3,1,8,9,3412,100,1
17,1,1,3,2.072,1.839,1,1,4,1,8,8,594,100,1
17,1,NaN,1,NaN,1.485,1,NaN,5,1,8,7,272,12786,0
17,1,1,1,1.59,1.123,1,1,6,1,8,7,1022,556,1
17,2,2,4,0.85,1.15,1,1,7,1,8,8,248,248,0
17,1,1,1,0.861,1.113,1,1,8,1,8,7,857,227,1
17,1,2,1,1.471,0.964,1,0,9,1,7,7,177,236,1
17,2,2,2,0.996,1.47,1,1,10,1,8,8,162,162,0
17,2,NaN,1,NaN,0.806,1,NaN,11,1,9,9,707,707,0
17,1,1,1,0.88,1.015,1,1,12,1,7,7,618,1644,1
17,2,2,4,0.464,0.983,1,1,13,1,7,7,613,613,0
17,1,2,2,0.686,1.479,1,0,14,1,8,7,134,196,1
17,2,2,4,0.247,0.572,1,1,15,1,7,7,126,126,0
17,1,1,2,0.745,1.174,1,1,16,1,8,7,104,100,1
17,2,2,1,2.016,1.013,1,1,17,1,8,8,1124,1124,0
17,1,1,2,1.235,0.737,1,1,18,2,8,6,455,457,2
17,1,1,2,0.5,1.452,1,1,19,2,8,6,175,160,2
17,1,1,2,1.887,1.114,1,1,20,2,9,9,2212,100,2
17,2,1,2,0.779,1.194,1,0,21,2,9,9,653,653,0
17,2,1,2,0.643,0.869,1,0,22,2,8,8,1026,1026,0
17,2,1,2,1.266,1.299,1,0,23,2,7,7,920,920,0
17,1,1,2,0.643,1.065,1,1,24,2,8,7,976,283,2
17,1,1,3,0.586,1.221,1,1,25,2,8,6,896,100,2
17,1,1,3,0.592,2.462,1,1,26,2,9,9,120,1042,1
17,2,2,4,0.37,0.981,1,1,27,2,8,8,2183,2183,0
17,2,2,3,1.98,0.991,1,1,28,2,7,7,212,212,0
17,2,1,1,1.067,1.257,1,0,29,2,8,8,328,328,0
17,1,1,2,0.733,0.892,1,1,30,2,8,7,962,408,2
17,2,2,4,0.278,0.685,1,1,31,2,6,6,422,422,0
17,2,2,4,0.246,0.951,1,1,32,2,7,7,248,248,0
18,1,NaN,4,NaN,3.25,1,NaN,1,0,NaN,NaN,NaN,NaN,NaN
18,2,2,4,1.301,1.37,1,1,2,0,NaN,NaN,NaN,NaN,NaN
18,1,2,3,1.65,1.782,1,0,3,1,8,8,328,100,1
18,1,2,3,1.495,2.618,1,0,4,1,7,6,212,298,1
18,2,2,2,2.233,2.378,1,1,5,1,8,8,1022,1022,0
18,2,NaN,4,NaN,1.325,1,NaN,6,1,9,9,120,120,0
18,1,1,4,2.428,1.143,1,1,7,1,7,7,248,100,1
18,2,2,3,1.455,0.866,1,1,8,1,7,7,618,618,0
18,2,1,1,2.345,1.722,1,0,9,1,8,8,962,962,0
18,1,1,3,2.381,2.502,1,1,10,1,7,7,177,177,0
18,1,NaN,2,NaN,0.775,1,NaN,11,1,8,7,162,615,1
18,2,2,2,1.955,3.008,1,1,12,1,8,8,976,976,0
18,2,2,3,1.718,1.605,1,1,13,1,9,9,2212,2212,0
18,1,NaN,3,NaN,1.72,1,NaN,14,1,6,7,422,116,2
18,1,1,3,1.331,1.077,1,1,15,1,7,6,920,739,1
18,1,1,1,1.525,1.325,1,1,16,1,8,7,2183,100,1
18,1,2,3,1.174,3.059,1,0,17,1,8,7,272,12786,1
18,1,2,4,2.347,0.892,1,0,18,2,8,8,248,100,2
18,2,2,4,2.191,2.109,1,1,19,2,8,8,134,134,0
18,1,1,3,2.043,1.884,1,1,20,2,9,9,707,889,1
18,2,1,2,1.844,1.181,1,0,21,2,8,8,594,594,0
18,1,2,3,1.062,1.064,1,0,22,2,9,10,653,6216,2
18,1,1,3,1.917,2.309,1,1,23,2,8,7,1124,100,2
18,2,2,4,1.134,0.842,1,1,24,2,8,8,175,175,0
18,2,2,1,1.604,1.289,1,1,25,2,8,8,455,455,0
18,2,2,3,1.292,2.061,1,1,26,2,8,8,896,896,0
18,1,1,4,1.249,0.89,1,1,27,2,7,6,613,408,1
18,1,1,1,2.111,1.29,1,1,28,2,8,6,1026,345,2
18,1,1,4,1.567,0.527,1,1,29,2,7,7,126,126,1
18,2,1,4,2.196,0.664,1,0,30,2,8,8,104,104,0
18,2,2,1,1.457,2.502,1,1,31,2,8,8,857,857,0
18,2,2,2,2.35,1.377,1,1,32,2,8,8,3412,3412,0
19,2,NaN,2,NaN,3.766,1,NaN,1,0,NaN,NaN,NaN,NaN,NaN
19,1,1,4,1.326,0.871,1,1,2,0,NaN,NaN,NaN,NaN,NaN
19,1,2,3,1.362,0.803,1,0,3,1,8,7,162,615,1
19,1,2,2,1.018,0.538,1,0,4,1,7,7,177,177,0
19,1,1,4,1.489,1.214,1,1,5,1,8,7,272,12786,1
19,1,1,1,2.791,0.526,1,1,6,1,7,6,212,298,1
19,1,2,1,2.218,0.762,1,0,7,1,8,8,328,100,1
19,2,2,1,0.866,1.89,1,1,8,1,9,9,120,120,0
19,2,2,2,2.983,0.542,1,1,9,1,8,8,962,962,0
19,1,2,2,2.347,0.521,1,0,10,1,6,7,422,116,2
19,2,2,1,2.354,3.462,1,1,11,1,8,8,976,976,0
19,2,NaN,1,NaN,1.641,1,NaN,12,1,8,8,1022,1022,0
19,2,2,2,1.342,1.487,1,1,13,1,7,7,618,618,0
19,1,1,1,0.95,2.029,1,1,14,1,7,6,920,739,1
19,2,2,1,2.868,1.659,1,1,15,1,9,9,2212,2212,0
19,1,1,2,1.563,1.661,1,1,16,1,7,7,248,100,1
19,1,1,1,1.954,2.133,1,1,17,1,8,7,2183,100,1
19,2,2,1,2.285,1.735,1,1,18,2,8,8,175,175,0
19,2,2,1,1.987,2.178,1,1,19,2,8,8,594,594,0
19,2,2,1,0.876,1.917,1,1,20,2,8,8,134,134,0
19,1,2,4,2.746,0.918,1,0,21,2,7,6,613,408,1
19,1,1,2,1.221,1.465,1,1,22,2,8,8,248,100,2
19,2,1,1,2.442,2.088,1,0,23,2,8,8,3412,3412,0
19,1,1,1,1.095,2.054,1,1,24,2,9,10,653,6216,2
19,1,1,1,1.099,1.058,1,1,25,2,8,7,1124,100,2
19,2,2,1,1.683,1.831,1,1,26,2,8,8,104,104,0
19,1,1,1,1.862,1.468,1,1,27,2,8,6,1026,345,2
19,1,1,4,0.914,0.982,1,1,28,2,7,7,126,126,1
19,2,1,1,0.715,1.523,1,0,29,2,8,8,857,857,0
19,2,1,1,0.72,1.447,1,0,30,2,8,8,896,896,0
19,1,1,1,2.64,1.628,1,1,31,2,9,9,707,889,1
19,2,1,1,1.182,0.747,1,0,32,2,8,8,455,455,0
20,1,NaN,3,NaN,11.733,1,NaN,1,0,NaN,NaN,NaN,NaN,NaN
20,2,1,2,1.811,5.351,1,0,2,0,NaN,NaN,NaN,NaN,NaN
20,1,1,4,1.22,2.14,1,1,3,1,7,6,920,739,1
20,1,1,1,0.857,2.856,1,1,4,1,7,7,248,100,1
20,1,1,3,0.819,5.973,1,1,5,1,8,7,272,12786,1
20,1,2,3,0.705,3.694,1,0,6,1,6,7,422,116,2
20,1,1,1,1.18,0.897,1,1,7,1,8,7,2183,100,1
20,2,2,1,0.827,1.198,1,1,8,1,7,7,618,618,0
20,2,2,1,1.22,1.115,1,1,9,1,9,9,120,120,0
20,2,2,1,1.015,0.874,1,1,10,1,8,8,1022,1022,0
20,2,2,1,1.011,0.969,1,1,11,1,8,8,962,962,0
20,2,2,1,0.816,1.037,1,1,12,1,9,9,2212,2212,0
20,2,2,1,1.23,0.854,1,1,13,1,8,8,976,976,0
20,1,1,1,2,0.929,1,1,14,1,8,8,328,100,1
20,1,1,1,1.606,0.76,1,1,15,1,7,7,177,177,0
20,1,1,1,1.519,0.803,1,1,16,1,8,7,162,615,1
20,1,2,1,1.725,0.778,1,0,17,1,7,6,212,298,1
20,1,2,1,1.158,2.511,1,0,18,2,9,10,653,6216,2
20,2,2,1,1.285,0.785,1,1,19,2,8,8,3412,3412,0
20,1,1,4,1.766,4.479,1,1,20,2,7,7,126,126,1
20,2,1,1,1.491,4.046,1,0,21,2,8,8,896,896,0
20,2,2,1,1.794,0.919,1,1,22,2,8,8,594,594,0
20,2,2,1,1.132,1.039,1,1,23,2,8,8,175,175,0
20,2,2,4,0.681,2.617,1,1,24,2,8,8,857,857,0
20,2,2,1,1.056,0.892,1,1,25,2,8,8,455,455,0
20,2,1,1,1.025,0.917,1,0,26,2,8,8,104,104,0
20,1,1,1,1.688,0.863,1,1,27,2,9,9,707,889,1
20,1,1,4,1.329,1.173,1,1,28,2,8,7,1124,100,2
20,1,2,4,0.781,1.125,1,0,29,2,7,6,613,408,1
20,1,1,1,1.561,1.205,1,1,30,2,8,6,1026,345,2
20,2,NaN,1,NaN,1.321,1,NaN,31,2,8,8,134,134,0
20,1,1,3,1.366,4.254,1,1,32,2,8,8,248,100,2
21,2,2,4,1.327,2.688,1,1,1,0,NaN,NaN,NaN,NaN,NaN
21,1,2,4,1.996,1.708,1,0,2,0,NaN,NaN,NaN,NaN,NaN
21,1,NaN,3,NaN,2.424,1,NaN,3,1,7,6,212,298,1
21,1,1,4,1.216,1.477,1,1,4,1,7,7,248,100,1
21,2,2,2,0.904,1.696,1,1,5,1,9,9,2212,2212,0
21,1,1,3,0.667,1.528,1,1,6,1,8,7,272,12786,1
21,1,1,2,1.405,1.071,1,1,7,1,8,8,328,100,1
21,1,1,2,1.335,0.313,1,1,8,1,7,6,920,739,1
21,1,1,3,0.75,1.017,1,1,9,1,6,7,422,116,2
21,2,1,2,1.329,1.306,1,0,10,1,8,8,1022,1022,0
21,1,1,3,1.573,0.282,1,1,11,1,8,7,2183,100,1
21,1,1,3,1.556,0.315,1,1,12,1,8,7,162,615,1
21,2,2,2,1.297,1.665,1,1,13,1,7,7,618,618,0
21,2,2,3,0.63,0.463,1,1,14,1,8,8,976,976,0
21,1,1,2,1.055,1.358,1,1,15,1,7,7,177,177,0
21,2,2,1,1.492,1.53,1,1,16,1,9,9,120,120,0
21,2,2,2,1.337,0.514,1,1,17,1,8,8,962,962,0
21,2,2,3,1.184,0.352,1,1,18,2,8,8,175,175,0
21,2,2,2,1.601,1.072,1,1,19,2,8,8,594,594,0
21,1,2,2,1.77,0.983,1,0,20,2,8,6,1026,345,2
21,1,1,4,1.025,3.449,1,1,21,2,7,7,126,126,1
21,2,2,2,1.023,0.648,1,1,22,2,8,8,455,455,0
21,1,2,2,1.369,1.59,1,0,23,2,8,8,248,100,2
21,1,1,2,1.374,1.661,1,1,24,2,9,9,707,889,1
21,2,2,2,1.211,1.257,1,1,25,2,8,8,134,134,0
21,2,2,3,1.293,1.693,1,1,26,2,8,8,3412,3412,0
21,2,2,2,1.615,1.652,1,1,27,2,8,8,104,104,0
21,1,2,2,1.45,2.01,1,0,28,2,8,7,1124,100,2
21,1,2,2,1.889,1.367,1,0,29,2,9,10,653,6216,2
21,2,2,1,1.719,1.154,1,1,30,2,8,8,896,896,0
21,1,2,3,0.78,0.922,1,0,31,2,7,6,613,408,1
21,2,1,2,2.377,1.128,1,0,32,2,8,8,857,857,0
22,2,2,4,0.895,3.475,1,1,1,0,NaN,NaN,NaN,NaN,NaN
22,1,2,4,1.632,0.97,1,0,2,0,NaN,NaN,NaN,NaN,NaN
22,2,1,2,1.368,1.325,1,0,3,1,9,9,120,120,0
22,2,2,2,0.833,0.745,1,1,4,1,8,8,1022,1022,0
22,1,1,3,0.914,0.782,1,1,5,1,7,7,248,100,1
22,1,2,4,1.033,0.702,1,0,6,1,7,7,177,177,0
22,2,1,2,1.561,1.859,1,0,7,1,7,7,618,618,0
22,1,2,3,2.139,1.859,1,0,8,1,8,7,162,615,1
22,2,2,2,2.135,1.173,1,1,9,1,8,8,976,976,0
22,2,2,4,1.373,0.562,1,1,10,1,9,9,2212,2212,0
22,1,1,2,0.868,1.075,1,1,11,1,7,6,212,298,1
22,1,1,4,0.756,0.477,1,1,12,1,7,6,920,739,1
22,2,1,4,0.3,0.458,1,0,13,1,8,8,962,962,0
22,1,2,4,2.797,0.614,1,0,14,1,8,7,2183,100,1
22,1,NaN,3,NaN,0.95,1,NaN,15,1,6,7,422,116,2
22,1,1,4,0.607,0.799,1,1,16,1,8,8,328,100,1
22,1,1,4,1.023,0.559,1,1,17,1,8,7,272,12786,1
22,1,2,4,0.527,0.646,1,0,18,2,8,8,248,100,2
22,1,1,4,0.258,0.563,1,1,19,2,9,10,653,6216,2
22,2,2,4,0.454,0.5,1,1,20,2,8,8,455,455,0
22,1,1,4,0.905,0.573,1,1,21,2,7,6,613,408,1
22,2,2,4,1.045,0.827,1,1,22,2,8,8,104,104,0
22,1,1,4,0.811,0.487,1,1,23,2,7,7,126,126,1
22,1,1,3,1.375,0.465,1,1,24,2,8,7,1124,100,2
22,2,2,3,0.721,0.215,1,1,25,2,8,8,175,175,0
22,2,2,3,1.377,0.843,1,1,26,2,8,8,594,594,0
22,2,2,2,0.791,0.524,1,1,27,2,8,8,896,896,0
22,2,2,2,0.91,0.461,1,1,28,2,8,8,857,857,0
22,1,1,2,0.565,1.063,1,1,29,2,8,6,1026,345,2
22,2,2,4,0.22,0.629,1,1,30,2,8,8,134,134,0
22,2,1,2,1.171,1.286,1,0,31,2,8,8,3412,3412,0
22,1,1,1,0.555,0.519,1,1,32,2,9,9,707,889,1
23,1,NaN,4,NaN,7.513,1,NaN,1,0,NaN,NaN,NaN,NaN,NaN
23,2,1,4,0.136,2.596,1,0,2,0,NaN,NaN,NaN,NaN,NaN
23,2,2,2,1.509,4.505,1,1,3,1,7,7,618,618,0
23,2,1,2,0.724,2.564,1,0,4,1,8,8,1022,1022,0
23,2,1,1,0.893,1.576,1,0,5,1,9,9,120,120,0
23,1,1,2,0.738,1.577,1,1,6,1,7,6,212,298,1
23,1,1,3,0.583,2.541,1,1,7,1,8,7,272,12786,1
23,2,1,3,1.213,3.06,1,0,8,1,8,8,976,976,0
23,1,1,2,0.824,1.413,1,1,9,1,7,6,920,739,1
23,2,2,2,1.098,2.247,1,1,10,1,9,9,2212,2212,0
23,2,2,2,0.705,1.024,1,1,11,1,8,8,962,962,0
23,1,1,2,0.793,1.383,1,1,12,1,7,7,177,177,0
23,1,1,3,1.481,0.738,1,1,13,1,8,7,162,615,1
23,1,1,2,0.935,1.707,1,1,14,1,7,7,248,100,1
23,1,1,2,0.856,1.224,1,1,15,1,8,7,2183,100,1
23,1,1,2,1.294,0.579,1,1,16,1,6,7,422,116,2
23,1,2,1,0.863,0.897,1,0,17,1,8,8,328,100,1
23,2,1,1,0.696,0.768,1,0,18,2,8,8,896,896,0
23,1,2,1,0.815,0.821,1,0,19,2,8,8,248,100,2
23,1,1,3,1.247,0.556,1,1,20,2,7,6,613,408,1
23,2,2,1,0.934,0.704,1,1,21,2,8,8,857,857,0
23,2,2,1,0.738,0.989,1,1,22,2,8,8,3412,3412,0
23,2,1,2,0.54,0.837,1,0,23,2,8,8,134,134,0
23,1,2,2,1.056,0.777,1,0,24,2,9,9,707,889,1
23,2,2,2,0.979,1.112,1,1,25,2,8,8,175,175,0
23,1,1,2,0.739,1.106,1,1,26,2,7,7,126,126,1
23,2,1,2,0.904,0.698,1,0,27,2,8,8,104,104,0
23,1,1,2,0.662,0.841,1,1,28,2,8,6,1026,345,2
23,1,1,1,0.942,1.08,1,1,29,2,9,10,653,6216,2
23,2,1,2,0.775,0.819,1,0,30,2,8,8,455,455,0
23,1,1,2,0.55,0.763,1,1,31,2,8,7,1124,100,2
23,2,2,2,1.214,1.773,1,1,32,2,8,8,594,594,0
24,2,2,4,2.189,6.429,1,1,1,0,NaN,NaN,NaN,NaN,NaN
24,1,1,4,2.338,2.001,1,1,2,0,NaN,NaN,NaN,NaN,NaN
24,1,NaN,4,NaN,2.154,1,NaN,3,1,8,7,2183,100,1
24,1,2,4,2.525,1.513,1,0,4,1,7,6,920,739,1
24,1,NaN,4,NaN,0.945,1,NaN,5,1,7,7,248,100,1
24,1,2,3,2.72,2.883,1,0,6,1,8,8,328,100,1
24,2,2,4,0.721,1.232,1,1,7,1,9,9,120,120,0
24,1,NaN,4,NaN,0.942,1,NaN,8,1,8,7,272,12786,1
24,2,2,3,1.102,1.596,1,1,9,1,9,9,2212,2212,0
24,2,2,3,1.797,1.247,1,1,10,1,8,8,1022,1022,0
24,2,2,2,0.942,1.589,1,1,11,1,8,8,962,962,0
24,2,NaN,1,NaN,2.291,1,NaN,12,1,7,7,618,618,0
24,2,NaN,2,NaN,1.981,1,0,13,1,8,8,976,976,0
24,1,2,4,1.059,1.141,1,0,14,1,7,7,177,177,0
24,1,NaN,3,NaN,1.277,1,NaN,15,1,7,6,212,298,1
24,1,2,4,2.131,0.753,1,0,16,1,8,7,162,615,1
24,1,NaN,3,NaN,1.227,1,NaN,17,1,6,7,422,116,2
24,2,2,3,0.757,1.129,1,1,18,2,8,8,175,175,0
24,2,2,3,1.089,1.199,1,1,19,2,8,8,134,134,0
24,2,2,3,0.684,1.467,1,1,20,2,8,8,455,455,0
24,1,NaN,3,NaN,1.116,1,NaN,21,2,8,6,1026,345,2
24,2,2,3,0.8,1.082,1,1,22,2,8,8,3412,3412,0
24,2,2,4,0.642,0.847,1,1,23,2,8,8,857,857,0
24,2,2,3,0.723,0.834,1,1,24,2,8,8,896,896,0
24,1,2,3,1.327,1.007,1,0,25,2,8,7,1124,100,2
24,1,2,4,2.065,1.089,1,0,26,2,7,7,126,126,1
24,2,2,4,1.298,0.632,1,1,27,2,8,8,104,104,0
24,2,2,4,0.825,1.037,1,1,28,2,8,8,594,594,0
24,1,2,3,1.169,0.818,1,0,29,2,9,9,707,889,1
24,1,2,3,0.637,1.558,1,0,30,2,8,8,248,100,2
24,1,2,4,0.71,1.621,1,0,31,2,9,10,653,6216,2
24,1,2,4,1.3,0.567,1,0,32,2,7,6,613,408,1
25,2,2,4,1.079,6.089,1,1,1,0,NaN,NaN,NaN,NaN,NaN
25,1,1,4,2.645,2.383,1,1,2,0,NaN,NaN,NaN,NaN,NaN
25,1,NaN,1,NaN,3.382,1,NaN,3,1,7,6,212,298,1
25,2,2,1,1.797,2.914,1,1,4,1,8,8,1022,1022,0
25,2,1,1,2.197,0.655,1,0,5,1,9,9,2212,2212,0
25,1,2,4,0.602,0.578,1,0,6,1,8,7,162,615,1
25,2,2,2,0.592,1.868,1,1,7,1,9,9,120,120,0
25,1,2,1,1.328,0.59,1,0,8,1,8,7,2183,100,1
25,1,1,2,0.791,0.438,1,1,9,1,6,7,422,116,2
25,1,2,1,1.019,1.589,1,0,10,1,8,8,328,100,1
25,1,2,1,0.717,1.044,1,0,11,1,7,7,248,100,1
25,2,2,3,0.756,1.811,1,1,12,1,8,8,976,976,0
25,1,2,1,0.908,1.009,1,0,13,1,7,6,920,739,1
25,2,2,1,0.525,1.027,1,1,14,1,7,7,618,618,0
25,1,1,1,0.905,0.59,1,1,15,1,7,7,177,177,0
25,2,2,1,1.72,0.548,1,1,16,1,8,8,962,962,0
25,1,1,4,1.258,0.563,1,1,17,1,8,7,272,12786,1
25,2,2,1,1.21,1.272,1,1,18,2,8,8,857,857,0
25,2,2,1,0.796,0.746,1,1,19,2,8,8,594,594,0
25,1,1,4,2.529,0.5,1,1,20,2,7,6,613,408,1
25,2,2,4,0.597,0.539,1,1,21,2,8,8,134,134,0
25,1,1,1,1.606,0.616,1,1,22,2,8,6,1026,345,2
25,1,NaN,1,NaN,0.972,1,NaN,23,2,8,8,248,100,2
25,1,1,1,2.249,0.538,1,1,24,2,9,10,653,6216,2
25,1,1,4,1.21,0.888,1,1,25,2,7,7,126,126,1
25,2,NaN,1,NaN,0.707,1,NaN,26,2,8,8,3412,3412,0
25,2,2,1,0.871,0.909,1,1,27,2,8,8,104,104,0
25,2,2,1,0.882,0.701,1,1,28,2,8,8,896,896,0
25,1,2,1,0.748,0.619,1,0,29,2,8,7,1124,100,2
25,1,2,1,1.413,0.465,1,0,30,2,9,9,707,889,1
25,2,2,1,0.756,0.578,1,1,31,2,8,8,455,455,0
25,2,2,1,0.824,0.452,1,1,32,2,8,8,175,175,0
26,1,NaN,1,NaN,6.344,1,NaN,1,0,NaN,NaN,NaN,NaN,NaN
26,2,1,4,0.229,1.454,1,0,2,0,NaN,NaN,NaN,NaN,NaN
26,1,1,3,0.595,1.635,1,1,3,1,7,7,248,100,1
26,2,1,2,2.15,1.488,1,0,4,1,8,8,976,976,0
26,2,2,3,1.057,1.476,1,1,5,1,7,7,618,618,0
26,1,1,3,0.859,1.758,1,1,6,1,6,7,422,116,2
26,1,1,3,0.779,1.189,1,1,7,1,7,6,920,739,1
26,1,2,3,1.026,1.551,1,0,8,1,8,7,162,615,1
26,2,1,2,1.756,2.17,1,0,9,1,9,9,2212,2212,0
26,1,1,4,0.309,0.857,1,1,10,1,8,7,2183,100,1
26,2,2,4,0.392,0.995,1,1,11,1,8,8,1022,1022,0
26,2,2,3,0.853,0.468,1,1,12,1,8,8,962,962,0
26,1,1,2,0.702,1.991,1,1,13,1,8,8,328,100,1
26,1,1,3,1.769,2.359,1,1,14,1,7,6,212,298,1
26,1,1,3,2.511,0.58,1,1,15,1,8,7,272,12786,1
26,2,2,2,0.895,0.471,1,1,16,1,9,9,120,120,0
26,1,1,2,1.682,0.919,1,1,17,1,7,7,177,177,0
26,1,1,3,0.854,0.853,1,1,18,2,9,9,707,889,1
26,2,2,4,0.357,0.581,1,1,19,2,8,8,896,896,0
26,1,1,2,0.657,2.702,1,1,20,2,7,7,126,126,1
26,1,1,1,0.629,2.546,1,1,21,2,9,10,653,6216,2
26,1,1,3,0.667,1.061,1,1,22,2,8,6,1026,345,2
26,1,1,4,1.599,0.753,1,1,23,2,7,6,613,408,1
26,2,2,3,0.855,1.103,1,1,24,2,8,8,134,134,0
26,2,2,2,1.965,1.699,1,1,25,2,8,8,104,104,0
26,2,2,3,1.483,1.104,1,1,26,2,8,8,857,857,0
26,2,2,4,0.503,0.471,1,1,27,2,8,8,455,455,0
26,2,2,4,0.073,0.623,1,1,28,2,8,8,594,594,0
26,1,2,3,2.226,1.136,1,0,29,2,8,8,248,100,2
26,2,2,2,0.932,0.985,1,1,30,2,8,8,3412,3412,0
26,1,1,4,0.594,0.567,1,1,31,2,8,7,1124,100,2
26,2,2,3,1.373,1.078,1,1,32,2,8,8,175,175,0
27,2,NaN,4,NaN,4.26,1,NaN,1,0,NaN,NaN,NaN,NaN,NaN
27,1,NaN,4,NaN,1.422,1,NaN,2,0,NaN,NaN,NaN,NaN,NaN
27,2,1,2,2.484,2.474,1,0,3,1,9,9,120,120,0
27,1,1,2,2.524,1.942,1,1,4,1,8,8,328,100,1
27,2,NaN,2,NaN,1.41,1,NaN,5,1,7,7,618,618,0
27,2,2,2,1.177,1.159,1,1,6,1,8,8,962,962,0
27,1,1,4,2.173,1.221,1,1,7,1,8,7,162,615,1
27,1,1,2,2.1,2.526,1,1,8,1,6,7,422,116,2
27,1,2,3,1.214,1.89,1,0,9,1,7,7,177,177,0
27,1,NaN,4,NaN,3.956,1,NaN,10,1,7,7,248,100,1
27,1,2,1,0.946,2.156,1,0,11,1,8,7,272,12786,1
27,2,2,4,0.837,1.015,1,1,12,1,8,8,976,976,0
27,1,2,4,1.788,0.87,1,0,13,1,7,6,212,298,1
27,1,2,2,1.412,1.063,1,0,14,1,8,7,2183,100,1
27,2,2,2,2.947,1.075,1,1,15,1,9,9,2212,2212,0
27,1,2,2,1.653,0.902,1,0,16,1,7,6,920,739,1
27,2,2,2,1.524,2.292,1,1,17,1,8,8,1022,1022,0
27,1,NaN,2,NaN,1.607,1,NaN,18,2,9,9,707,889,1
27,2,2,1,2.032,1.467,1,1,19,2,8,8,104,104,0
27,2,1,1,1.942,1.036,1,0,20,2,8,8,455,455,0
27,1,1,1,0.864,0.953,1,1,21,2,8,7,1124,100,2
27,2,NaN,1,NaN,1.174,1,NaN,22,2,8,8,594,594,0
27,2,1,1,1.915,1.215,1,0,23,2,8,8,896,896,0
27,1,1,1,1.944,0.906,1,1,24,2,9,10,653,6216,2
27,2,2,1,1.224,1.417,1,1,25,2,8,8,3412,3412,0
27,1,1,1,1.48,1.453,1,1,26,2,7,7,126,126,1
27,1,1,4,1.636,1.788,1,1,27,2,7,6,613,408,1
27,2,2,1,1.485,1.992,1,1,28,2,8,8,134,134,0
27,1,1,1,1.02,1.756,1,1,29,2,8,6,1026,345,2
27,2,2,1,1.681,1.911,1,1,30,2,8,8,175,175,0
27,2,2,1,1.364,2.152,1,1,31,2,8,8,857,857,0
27,1,NaN,2,NaN,2.425,1,NaN,32,2,8,8,248,100,2
28,1,NaN,4,NaN,3.686,1,NaN,1,0,NaN,NaN,NaN,NaN,NaN
28,2,2,4,1.317,1.531,1,1,2,0,NaN,NaN,NaN,NaN,NaN
28,1,1,2,1.241,2.818,1,1,3,1,7,6,920,739,1
28,2,2,4,1.04,2.109,1,1,4,1,9,9,120,120,0
28,2,1,2,1.118,2.647,1,0,5,1,8,8,976,976,0
28,1,1,4,1.155,1.961,1,1,6,1,7,7,248,100,1
28,1,1,1,1.496,3.928,1,1,7,1,8,7,272,12786,1
28,2,1,1,0.921,2.432,1,0,8,1,9,9,2212,2212,0
28,1,1,1,1.03,2.621,1,1,9,1,7,7,177,177,0
28,1,1,1,0.843,2.132,1,1,10,1,7,6,212,298,1
28,1,1,2,0.845,2.984,1,1,11,1,8,7,2183,100,1
28,1,2,1,0.99,2.154,1,0,12,1,8,7,162,615,1
28,1,2,1,1.231,1.674,1,0,13,1,6,7,422,116,2
28,2,2,1,1.705,1.823,1,1,14,1,7,7,618,618,0
28,1,2,1,0.755,1.871,1,0,15,1,8,8,328,100,1
28,2,2,1,0.908,1.769,1,1,16,1,8,8,1022,1022,0
28,2,1,1,0.956,2.009,1,0,17,1,8,8,962,962,0
28,1,1,4,0.876,1.959,1,1,18,2,7,7,126,126,1
28,2,2,1,0.755,2.257,1,1,19,2,8,8,134,134,0
28,1,1,1,0.521,1.476,1,1,20,2,8,7,1124,100,2
28,2,2,2,0.785,2.306,1,1,21,2,8,8,104,104,0
28,1,1,1,0.644,1.948,1,1,22,2,9,9,707,889,1
28,2,1,1,0.56,1.427,1,0,23,2,8,8,3412,3412,0
28,2,2,1,0.675,1.339,1,1,24,2,8,8,594,594,0
28,1,1,1,0.915,1.141,1,1,25,2,9,10,653,6216,2
28,1,1,4,0.756,1.707,1,1,26,2,7,6,613,408,1
28,2,1,3,1.189,3.356,1,0,27,2,8,8,857,857,0
28,2,1,1,0.963,2.032,1,0,28,2,8,8,175,175,0
28,1,1,4,1.238,0.598,1,1,29,2,8,8,248,100,2
28,2,2,3,0.555,2.705,1,1,30,2,8,8,896,896,0
28,1,1,1,0.567,2.349,1,1,31,2,8,6,1026,345,2
28,2,2,2,0.68,2.043,1,1,32,2,8,8,455,455,0
29,2,2,4,1.27,6.63,1,1,1,0,NaN,NaN,NaN,NaN,NaN
29,1,1,4,1.874,2.845,1,1,2,0,NaN,NaN,NaN,NaN,NaN
29,1,1,3,2.109,3.299,1,1,3,1,7,7,248,100,1
29,1,2,2,1.737,2.758,1,0,4,1,8,8,328,100,1
29,1,NaN,2,NaN,4.309,1,NaN,5,1,6,7,422,116,2
29,1,2,4,2.947,1.906,1,0,6,1,8,7,272,12786,1
29,2,2,3,1.717,1.492,1,1,7,1,8,8,962,962,0
29,2,2,3,1.837,0.88,1,1,8,1,8,8,1022,1022,0
29,2,2,4,2.032,1.015,1,1,9,1,7,7,618,618,0
29,1,1,3,2.378,1.032,1,1,10,1,8,7,2183,100,1
29,2,NaN,3,NaN,0.99,1,NaN,11,1,9,9,120,120,0
29,2,2,2,1.205,0.71,1,1,12,1,9,9,2212,2212,0
29,1,NaN,3,NaN,0.961,1,NaN,13,1,8,7,162,615,1
29,2,1,2,2.647,0.947,1,0,14,1,8,8,976,976,0
29,1,NaN,1,NaN,2.394,1,NaN,15,1,7,6,920,739,1
29,1,1,2,1.915,2.579,1,1,16,1,7,7,177,177,0
29,1,2,3,2.407,3.071,1,0,17,1,7,6,212,298,1
29,2,1,2,1.831,0.457,1,0,18,2,8,8,896,896,0
29,1,1,2,1.178,1.125,1,1,19,2,8,7,1124,100,2
29,2,1,2,1.905,1.103,1,0,20,2,8,8,134,134,0
29,1,2,4,1.326,0.768,1,0,21,2,7,6,613,408,1
29,1,1,1,1.907,1.405,1,1,22,2,9,9,707,889,1
29,2,2,1,1.612,0.617,1,1,23,2,8,8,3412,3412,0
29,2,2,2,1.52,0.853,1,1,24,2,8,8,857,857,0
29,1,1,4,1.972,3.061,1,1,25,2,8,6,1026,345,2
29,2,1,2,1.567,0.978,1,0,26,2,8,8,104,104,0
29,1,2,2,1.525,0.842,1,0,27,2,8,8,248,100,2
29,2,2,2,1.212,1.02,1,1,28,2,8,8,175,175,0
29,2,2,4,1.407,1.007,1,1,29,2,8,8,455,455,0
29,2,2,1,1.065,3.559,1,1,30,2,8,8,594,594,0
29,1,1,4,1.831,0.84,1,1,31,2,7,7,126,126,1
29,1,1,1,1.919,1.032,1,1,32,2,9,10,653,6216,2
30,2,NaN,4,NaN,11.65,1,NaN,1,0,NaN,NaN,NaN,NaN,NaN
30,1,1,4,0.82,0.775,1,1,2,0,NaN,NaN,NaN,NaN,NaN
30,1,2,1,0.891,5.084,1,0,3,1,8,7,2183,100,1
30,2,2,1,0.658,2.386,1,1,4,1,7,7,618,618,0
30,2,2,4,0.467,0.857,1,1,5,1,8,8,962,962,0
30,1,1,1,0.979,1.593,1,1,6,1,8,8,328,100,1
30,1,1,4,0.858,1.707,1,1,7,1,8,7,162,615,1
30,1,2,1,1.526,1.775,1,0,8,1,6,7,422,116,2
30,2,2,1,0.979,1.878,1,1,9,1,9,9,120,120,0
30,1,1,4,0.829,0.767,1,1,10,1,7,7,248,100,1
30,2,2,1,1.567,1.609,1,1,11,1,9,9,2212,2212,0
30,2,1,1,1.258,0.632,1,0,12,1,8,8,1022,1022,0
30,1,1,4,0.819,0.857,1,1,13,1,8,7,272,12786,1
30,2,2,1,1.326,1.22,1,1,14,1,8,8,976,976,0
30,1,1,1,0.898,0.757,1,1,15,1,7,6,212,298,1
30,1,1,1,1.324,0.769,1,1,16,1,7,6,920,739,1
30,1,2,1,1.192,0.755,1,0,17,1,7,7,177,177,0
30,1,2,1,2.12,0.965,1,0,18,2,8,8,248,100,2
30,2,2,4,0.582,0.588,1,1,19,2,8,8,104,104,0
30,1,1,4,0.932,0.77,1,1,20,2,7,6,613,408,1
30,2,1,1,1.219,0.865,1,0,21,2,8,8,594,594,0
30,1,1,1,0.715,0.751,1,1,22,2,8,7,1124,100,2
30,2,2,1,1.336,0.965,1,1,23,2,8,8,455,455,0
30,2,1,2,1.728,2.28,1,0,24,2,8,8,857,857,0
30,1,1,3,0.63,2.679,1,1,25,2,7,7,126,126,1
30,2,2,1,1.134,1.059,1,1,26,2,8,8,896,896,0
30,1,1,1,1.288,0.554,1,1,27,2,8,6,1026,345,2
30,2,2,2,1.483,1.655,1,1,28,2,8,8,175,175,0
30,2,1,1,1.681,1.006,1,0,29,2,8,8,3412,3412,0
30,2,2,3,0.584,0.807,1,1,30,2,8,8,134,134,0
30,1,1,1,1.536,1.768,1,1,31,2,9,10,653,6216,2
30,1,2,1,1.175,0.908,1,0,32,2,9,9,707,889,1
31,1,1,4,2.111,3.892,1,1,1,0,NaN,NaN,NaN,NaN,NaN
31,2,2,4,1.023,1.892,1,1,2,0,NaN,NaN,NaN,NaN,NaN
31,1,1,2,1.379,2.485,1,1,3,1,7,6,920,739,1
31,1,2,2,1.064,2.895,1,0,4,1,8,7,272,12786,1
31,2,2,2,1.095,2.221,1,1,5,1,7,7,618,618,0
31,2,2,2,0.683,1.432,1,1,6,1,9,9,120,120,0
31,1,1,2,0.874,2.147,1,1,7,1,7,7,248,100,1
31,1,1,2,1.76,1.198,1,1,8,1,8,7,2183,100,1
31,2,1,3,0.987,1.794,1,0,9,1,8,8,962,962,0
31,1,2,2,1.52,1.055,1,0,10,1,6,7,422,116,2
31,2,2,2,0.951,1.363,1,1,11,1,8,8,1022,1022,0
31,1,2,2,0.798,1.015,1,0,12,1,7,7,177,177,0
31,1,1,3,1.296,1.396,1,1,13,1,7,6,212,298,1
31,2,2,2,1.049,1.164,1,1,14,1,9,9,2212,2212,0
31,1,1,2,0.942,1.321,1,1,15,1,8,8,328,100,1
31,2,2,2,1.507,1.177,1,1,16,1,8,8,976,976,0
31,1,2,1,1.184,4.615,1,0,17,1,8,7,162,615,1
31,2,2,1,0.633,1.203,1,1,18,2,8,8,455,455,0
31,1,2,3,1.407,0.975,1,0,19,2,7,6,613,408,1
31,1,2,2,2.223,1.499,1,0,20,2,9,9,707,889,1
31,2,2,3,1.293,2.559,1,1,21,2,8,8,896,896,0
31,2,2,1,1.214,1.024,1,1,22,2,8,8,104,104,0
31,1,1,4,1.03,2.281,1,1,23,2,7,7,126,126,1
31,1,1,2,0.752,0.873,1,1,24,2,8,6,1026,345,2
31,2,2,3,1.57,1.901,1,1,25,2,8,8,3412,3412,0
31,1,1,2,0.794,1.726,1,1,26,2,8,8,248,100,2
31,1,1,3,1.183,1.832,1,1,27,2,8,7,1124,100,2
31,2,2,2,0.86,1.899,1,1,28,2,8,8,134,134,0
31,1,2,3,2.597,1.039,1,0,29,2,9,10,653,6216,2
31,2,2,2,1.722,2.666,1,1,30,2,8,8,175,175,0
31,2,2,3,2.027,1.096,1,1,31,2,8,8,594,594,0
31,2,2,2,1.949,2.294,1,1,32,2,8,8,857,857,0
32,2,NaN,4,NaN,4.512,1,NaN,1,0,NaN,NaN,NaN,NaN,NaN
32,1,1,4,1.432,1.528,1,1,2,0,NaN,NaN,NaN,NaN,NaN
32,2,2,1,1.229,1.822,1,1,3,1,9,9,120,120,0
32,1,1,3,2.378,2.19,1,1,4,1,8,7,162,615,1
32,2,2,2,1.779,2.484,1,1,5,1,8,8,962,962,0
32,1,1,3,1.617,2.547,1,1,6,1,8,7,2183,100,1
32,2,2,2,2.269,1.166,1,1,7,1,8,8,1022,1022,0
32,2,2,3,1.794,2.417,1,1,8,1,7,7,618,618,0
32,1,NaN,2,NaN,2.009,1,NaN,9,1,6,7,422,116,2
32,1,2,1,1.311,1.242,1,0,10,1,7,7,177,177,0
32,1,1,4,1.333,0.741,1,1,11,1,7,7,248,100,1
32,1,1,4,0.833,0.872,1,1,12,1,7,6,212,298,1
32,2,2,4,0.683,1.03,1,1,13,1,8,8,976,976,0
32,1,1,2,2.654,1.685,1,1,14,1,7,6,920,739,1
32,1,2,1,1.273,1.137,1,0,15,1,8,8,328,100,1
32,2,NaN,1,NaN,1.077,1,NaN,16,1,9,9,2212,2212,0
32,1,1,1,0.601,1.045,1,1,17,1,8,7,272,12786,1
32,2,2,1,1.108,0.853,1,1,18,2,8,8,175,175,0
32,2,2,4,0.635,1.039,1,1,19,2,8,8,594,594,0
32,2,2,1,0.824,1.231,1,1,20,2,8,8,455,455,0
32,1,2,1,1.358,0.817,1,0,21,2,9,9,707,889,1
32,1,1,4,1.081,0.699,1,1,22,2,7,7,126,126,1
32,1,1,1,2.267,1.164,1,1,23,2,8,7,1124,100,2
32,1,2,2,1.159,1.166,1,0,24,2,9,10,653,6216,2
32,1,2,2,2.421,0.961,1,0,25,2,8,8,248,100,2
32,1,1,2,1.396,0.814,1,1,26,2,8,6,1026,345,2
32,2,2,2,1.703,0.788,1,1,27,2,8,8,857,857,0
32,2,2,3,1.517,1.683,1,1,28,2,8,8,134,134,0
32,2,2,4,0.529,0.967,1,1,29,2,8,8,104,104,0
32,1,1,4,0.901,0.844,1,1,30,2,7,6,613,408,1
32,2,2,2,1.156,1.246,1,1,31,2,8,8,896,896,0
32,2,2,2,2.895,2.026,1,1,32,2,8,8,3412,3412,0
33,1,1,4,0.701,4.8,2,1,1,0,NaN,NaN,NaN,NaN,NaN
33,2,1,1,0.459,4.696,2,0,2,0,NaN,NaN,NaN,NaN,NaN
33,1,1,4,0.64,2.916,2,1,3,1,8,7,857,227,1
33,2,2,4,0.635,1.791,2,1,4,1,7,7,126,126,0
33,2,2,4,0.495,2.122,2,1,5,1,8,8,162,162,0
33,1,1,4,0.563,5.163,2,1,6,1,8,7,104,100,1
33,1,1,2,2.392,5.288,2,1,7,1,8,9,3412,100,1
33,1,1,2,1.569,0.833,2,1,8,1,8,7,1022,556,1
33,1,1,4,0.604,3.186,2,1,9,1,7,7,618,1644,1
33,1,1,3,0.879,1.386,2,1,10,1,7,7,177,236,1
33,1,1,4,0.879,1.817,2,1,11,1,8,7,134,196,1
33,1,1,4,1.867,2.431,2,1,12,1,8,7,272,12786,0
33,2,2,2,0.426,2.024,2,1,13,1,9,9,707,707,0
33,2,2,2,0.836,3.826,2,1,14,1,8,8,1124,1124,0
33,2,2,2,0.533,4.575,2,1,15,1,8,8,248,248,0
33,2,2,4,0.293,1.576,2,1,16,1,7,7,613,613,0
33,1,1,2,1.402,1.553,2,1,17,1,8,8,594,100,1
33,1,NaN,1,NaN,3.297,2,NaN,18,2,9,9,2212,100,2
33,2,2,4,0.201,1.183,2,1,19,2,7,7,248,248,0
33,1,1,4,0.588,0.995,2,1,20,2,8,6,175,160,2
33,2,1,3,0.955,2.244,2,0,21,2,8,8,1026,1026,0
33,1,1,3,0.885,2.352,2,1,22,2,8,7,976,283,2
33,2,2,2,0.832,2.269,2,1,23,2,8,8,328,328,0
33,2,2,4,0.242,1.223,2,1,24,2,8,8,2183,2183,0
33,2,2,3,0.881,1.468,2,1,25,2,9,9,653,653,0
33,2,2,2,1.422,1.3,2,1,26,2,7,7,920,920,0
33,2,2,3,0.51,2.024,2,1,27,2,6,6,422,422,0
33,2,1,3,0.695,2.058,2,0,28,2,7,7,212,212,0
33,1,1,4,0.504,2.291,2,1,29,2,8,6,896,100,2
33,1,1,4,0.361,1.226,2,1,30,2,8,7,962,408,2
33,1,1,4,0.523,0.853,2,1,31,2,9,9,120,1042,1
33,1,1,4,0.549,1.423,2,1,32,2,8,6,455,457,2
34,1,1,4,2.329,3.434,2,1,1,0,NaN,NaN,NaN,NaN,NaN
34,2,2,4,0.86,1.656,2,1,2,0,NaN,NaN,NaN,NaN,NaN
34,1,NaN,1,NaN,2.141,2,NaN,3,1,8,7,1022,556,1
34,2,2,3,1.028,2.09,2,1,4,1,8,8,248,248,0
34,1,1,2,0.963,1.836,2,1,5,1,8,8,594,100,1
34,2,2,4,0.637,0.674,2,1,6,1,8,8,1124,1124,0
34,2,2,3,0.639,1.412,2,1,7,1,7,7,126,126,0
34,1,2,3,0.726,1.542,2,0,8,1,8,9,3412,100,1
34,1,1,4,1.06,2.664,2,1,9,1,7,7,177,236,1
34,2,1,2,1.015,1.565,2,0,10,1,7,7,613,613,0
34,1,1,4,1.211,1.994,2,1,11,1,8,7,134,196,1
34,1,1,4,0.92,1.762,2,1,12,1,8,7,272,12786,0
34,2,2,4,0.693,0.68,2,1,13,1,8,8,162,162,0
34,1,2,2,1.527,1.513,2,0,14,1,8,7,857,227,1
34,1,2,1,1.321,1.635,2,0,15,1,8,7,104,100,1
34,2,2,3,0.608,2.055,2,1,16,1,9,9,707,707,0
34,1,1,3,1.637,1.411,2,1,17,1,7,7,618,1644,1
34,2,2,3,0.975,1.128,2,1,18,2,7,7,248,248,0
34,2,2,2,1.005,2.021,2,1,19,2,6,6,422,422,0
34,2,2,2,1.797,1.469,2,1,20,2,8,8,328,328,0
34,2,1,2,1.732,1.95,2,0,21,2,8,8,2183,2183,0
34,2,1,2,1.891,1.959,2,0,22,2,9,9,653,653,0
34,1,1,3,0.938,2.9,2,1,23,2,8,6,175,160,2
34,1,1,4,2.29,2.933,2,1,24,2,9,9,2212,100,2
34,2,2,3,0.755,1.108,2,1,25,2,7,7,920,920,0
34,2,2,3,1.066,2.223,2,1,26,2,7,7,212,212,0
34,1,1,4,1.174,2.246,2,1,27,2,8,7,962,408,2
34,1,1,4,0.956,1.349,2,1,28,2,8,6,896,100,2
34,2,2,3,1.217,1.759,2,1,29,2,8,8,1026,1026,0
34,1,1,4,0.651,2.704,2,1,30,2,8,6,455,457,2
34,1,1,2,1.463,1.5,2,1,31,2,9,9,120,1042,1
34,1,1,3,1.058,0.712,2,1,32,2,8,7,976,283,2
35,2,1,1,1.435,7.888,2,0,1,0,NaN,NaN,NaN,NaN,NaN
35,1,1,4,1.295,3.274,2,1,2,0,NaN,NaN,NaN,NaN,NaN
35,2,2,3,2.106,2.357,2,1,3,1,7,7,126,126,0
35,1,2,2,1.779,2.667,2,0,4,1,8,9,3412,100,1
35,1,NaN,1,NaN,2.992,2,NaN,5,1,7,7,618,1644,1
35,2,2,3,1.377,1.001,2,1,6,1,8,8,162,162,0
35,2,2,4,2.154,1.298,2,1,7,1,7,7,613,613,0
35,1,2,2,2.152,1.281,2,0,8,1,8,7,272,12786,0
35,2,2,2,1.544,2.617,2,1,9,1,8,8,248,248,0
35,1,NaN,2,NaN,0.227,2,NaN,10,1,8,7,104,100,1
35,1,1,3,1.638,2.18,2,1,11,1,8,7,1022,556,1
35,1,1,2,1.543,1.256,2,1,12,1,8,8,594,100,1
35,1,1,3,1.567,1.775,2,1,13,1,7,7,177,236,1
35,1,1,3,0.82,1.026,2,1,14,1,8,7,857,227,1
35,2,2,4,1.237,1.458,2,1,15,1,9,9,707,707,0
35,1,1,4,2.631,1.406,2,1,16,1,8,7,134,196,1
35,2,2,3,1.942,1.495,2,1,17,1,8,8,1124,1124,0
35,2,2,4,0.848,0.813,2,1,18,2,7,7,248,248,0
35,1,1,4,0.718,1.281,2,1,19,2,8,6,175,160,2
35,1,1,4,0.688,0.676,2,1,20,2,8,6,896,100,2
35,2,2,2,1.051,1.84,2,1,21,2,8,8,2183,2183,0
35,1,1,3,1.847,1.725,2,1,22,2,9,9,120,1042,1
35,1,1,4,1.081,1.117,2,1,23,2,8,6,455,457,2
35,2,NaN,2,NaN,0.01,2,NaN,24,2,8,8,1026,1026,0
35,1,2,1,1.195,1.979,2,0,25,2,9,9,2212,100,2
35,2,2,4,1.15,1.103,2,1,26,2,7,7,212,212,0
35,2,2,1,1.7,1.231,2,1,27,2,9,9,653,653,0
35,1,1,4,1.232,1.102,2,1,28,2,8,7,976,283,2
35,2,2,2,1.188,1.38,2,1,29,2,8,8,328,328,0
35,2,2,3,1.214,0.669,2,1,30,2,7,7,920,920,0
35,2,2,3,1.604,1.523,2,1,31,2,6,6,422,422,0
35,1,1,4,1.384,1.921,2,1,32,2,8,7,962,408,2
36,2,2,4,1.709,3.639,2,1,1,0,NaN,NaN,NaN,NaN,NaN
36,1,2,3,2.081,4.78,2,0,2,0,NaN,NaN,NaN,NaN,NaN
36,2,2,3,0.911,2.025,2,1,3,1,9,9,707,707,0
36,2,2,4,1.801,1.952,2,1,4,1,8,8,162,162,0
36,1,1,4,2.941,2.359,2,1,5,1,8,7,104,100,1
36,1,2,3,2.102,1.217,2,0,6,1,7,7,177,236,1
36,1,2,2,1.036,2.049,2,0,7,1,8,9,3412,100,1
36,1,1,4,2.09,3.366,2,1,8,1,8,7,1022,556,1
36,1,1,4,1.439,1.349,2,1,9,1,8,8,594,100,1
36,1,1,3,1.741,1.446,2,1,10,1,8,7,272,12786,0
36,2,2,4,1.068,0.512,2,1,11,1,8,8,248,248,0
36,2,2,4,0.506,0.869,2,1,12,1,7,7,613,613,0
36,2,2,2,1.839,1.812,2,1,13,1,8,8,1124,1124,0
36,1,1,1,0.827,0.649,2,1,14,1,8,7,134,196,1
36,1,2,3,1.884,2.399,2,0,15,1,7,7,618,1644,1
36,1,1,3,1.904,1.523,2,1,16,1,8,7,857,227,1
36,2,2,4,0.936,0.738,2,1,17,1,7,7,126,126,0
36,1,1,3,1.121,2.548,2,1,18,2,8,6,896,100,2
36,1,2,3,2,1.344,2,0,19,2,9,9,2212,100,2
36,2,2,3,1.804,2.244,2,1,20,2,6,6,422,422,0
36,2,NaN,2,NaN,1.972,2,NaN,21,2,7,7,212,212,0
36,1,1,3,2.166,1.407,2,1,22,2,8,6,175,160,2
36,2,2,3,1.193,1.56,2,1,23,2,8,8,1026,1026,0
36,2,1,2,1.26,1.689,2,0,24,2,7,7,920,920,0
36,1,1,3,1.703,3.379,2,1,25,2,8,7,962,408,2
36,2,2,3,2.142,1.623,2,1,26,2,7,7,248,248,0
36,1,1,3,1.672,2.212,2,1,27,2,8,7,976,283,2
36,1,2,3,1.309,1.239,2,0,28,2,9,9,120,1042,1
36,2,2,3,1.464,1.869,2,1,29,2,8,8,2183,2183,0
36,2,2,3,2.405,1.124,2,1,30,2,9,9,653,653,0
36,2,1,2,2.378,2.074,2,0,31,2,8,8,328,328,0
36,1,1,4,1.128,1.738,2,1,32,2,8,6,455,457,2
37,1,1,4,2.18,2.443,2,1,1,0,NaN,NaN,NaN,NaN,NaN
37,2,2,4,0.693,1.288,2,1,2,0,NaN,NaN,NaN,NaN,NaN
37,1,2,3,1.089,2.18,2,0,3,1,8,9,3412,100,1
37,2,NaN,2,NaN,3.392,2,NaN,4,1,8,8,1124,1124,0
37,1,1,2,2.085,2.368,2,1,5,1,8,7,857,227,1
37,2,2,4,0.381,1.516,2,1,6,1,8,8,162,162,0
37,2,2,2,1.595,1.769,2,1,7,1,8,8,248,248,0
37,1,1,3,1.775,1.303,2,1,8,1,8,8,594,100,1
37,1,1,4,1.454,1.779,2,1,9,1,8,7,272,12786,0
37,1,1,4,1.513,1.067,2,1,10,1,7,7,177,236,1
37,1,1,3,1.359,2.279,2,1,11,1,8,7,1022,556,1
37,2,2,4,1.192,0.615,2,1,12,1,7,7,613,613,0
37,1,1,4,1.002,0.528,2,1,13,1,8,7,134,196,1
37,1,1,4,0.712,0.571,2,1,14,1,7,7,618,1644,1
37,2,2,4,1.41,0.426,2,1,15,1,7,7,126,126,0
37,1,NaN,1,NaN,0.161,2,NaN,16,1,8,7,104,100,1
37,2,2,3,1.532,1.422,2,1,17,1,9,9,707,707,0
37,2,2,3,1.398,1.085,2,1,18,2,7,7,248,248,0
37,2,2,1,0.98,1.948,2,1,19,2,7,7,212,212,0
37,1,1,4,0.847,0.989,2,1,20,2,8,7,962,408,2
37,1,1,3,1.031,1.821,2,1,21,2,8,6,455,457,2
37,2,2,1,1.798,1.277,2,1,22,2,9,9,653,653,0
37,1,1,4,0.748,0.798,2,1,23,2,9,9,120,1042,1
37,2,1,2,1.439,1.301,2,0,24,2,8,8,2183,2183,0
37,1,1,3,0.387,2.291,2,1,25,2,8,6,896,100,2
37,2,2,2,1.001,1.744,2,1,26,2,6,6,422,422,0
37,2,2,2,0.876,1.192,2,1,27,2,7,7,920,920,0
37,2,1,3,0.955,3.316,2,0,28,2,8,8,1026,1026,0
37,1,1,3,0.418,1.712,2,1,29,2,9,9,2212,100,2
37,1,1,4,0.686,1.522,2,1,30,2,8,7,976,283,2
37,1,1,4,0.646,1.435,2,1,31,2,8,6,175,160,2
37,2,1,1,0.948,3.293,2,0,32,2,8,8,328,328,0
38,2,1,2,1.698,4.62,2,0,1,0,NaN,NaN,NaN,NaN,NaN
38,1,2,4,1.821,2.434,2,0,2,0,NaN,NaN,NaN,NaN,NaN
38,2,2,3,2.263,2.299,2,1,3,1,8,8,1124,1124,0
38,1,2,2,1.357,1.733,2,0,4,1,8,9,3412,100,1
38,1,1,3,1.082,1.63,2,1,5,1,8,7,272,12786,0
38,1,1,1,1.398,1.292,2,1,6,1,8,7,134,196,1
38,1,2,2,1.28,1.756,2,0,7,1,8,8,594,100,1
38,1,1,2,2.336,1.153,2,1,8,1,8,7,857,227,1
38,1,1,3,1.069,2.528,2,1,9,1,8,7,104,100,1
38,2,NaN,1,NaN,2.222,2,NaN,10,1,9,9,707,707,0
38,2,2,4,0.962,1.019,2,1,11,1,7,7,613,613,0
38,2,2,2,1.548,1.389,2,1,12,1,8,8,248,248,0
38,2,2,2,0.831,1.213,2,1,13,1,8,8,162,162,0
38,1,1,3,0.886,1.745,2,1,14,1,8,7,1022,556,1
38,1,1,3,1.05,1.024,2,1,15,1,7,7,177,236,1
38,1,1,2,2.471,1.059,2,1,16,1,7,7,618,1644,1
38,2,2,3,1.209,1.367,2,1,17,1,7,7,126,126,0
38,1,1,3,0.833,0.879,2,1,18,2,8,6,175,160,2
38,1,1,3,0.942,1.334,2,1,19,2,8,6,455,457,2
38,2,2,2,0.739,0.82,2,1,20,2,7,7,920,920,0
38,2,1,1,0.853,2.658,2,0,21,2,9,9,653,653,0
38,2,2,3,1.24,1.061,2,1,22,2,6,6,422,422,0
38,1,1,4,1.371,1.299,2,1,23,2,8,7,962,408,2
38,1,1,4,1.106,0.564,2,1,24,2,8,6,896,100,2
38,2,1,1,1.776,1.224,2,0,25,2,7,7,212,212,0
38,1,2,2,1.559,1.4,2,0,26,2,9,9,120,1042,1
38,2,1,1,2.162,1.274,2,0,27,2,8,8,2183,2183,0
38,2,1,3,1.401,0.816,2,0,28,2,8,8,328,328,0
38,2,1,1,1.506,0.996,2,0,29,2,8,8,1026,1026,0
38,2,2,3,1.662,1.354,2,1,30,2,7,7,248,248,0
38,1,1,3,0.917,1.248,2,1,31,2,8,7,976,283,2
38,1,2,1,1.312,1.45,2,0,32,2,9,9,2212,100,2
39,2,2,4,1.955,3.395,2,1,1,0,NaN,NaN,NaN,NaN,NaN
39,1,1,4,1.273,5.765,2,1,2,0,NaN,NaN,NaN,NaN,NaN
39,1,2,4,2.614,1.403,2,0,3,1,8,7,104,100,1
39,1,2,3,1.263,3.691,2,0,4,1,8,7,1022,556,1
39,1,2,3,1.204,2.883,2,0,5,1,8,9,3412,100,1
39,2,NaN,2,NaN,0.466,2,NaN,6,1,7,7,613,613,0
39,2,2,3,0.89,1.702,2,1,7,1,8,8,248,248,0
39,2,2,2,1.357,1.062,2,1,8,1,8,8,1124,1124,0
39,1,1,2,2.951,2.16,2,1,9,1,7,7,177,236,1
39,1,1,4,2.007,1.718,2,1,10,1,8,7,134,196,1
39,1,2,2,1.808,2.119,2,0,11,1,8,7,857,227,1
39,1,2,3,0.925,2.919,2,0,12,1,8,8,594,100,1
39,1,1,4,2.14,1.397,2,1,13,1,7,7,618,1644,1
39,2,2,3,1.544,1.369,2,1,14,1,9,9,707,707,0
39,1,2,3,1.247,2.139,2,0,15,1,8,7,272,12786,0
39,2,2,4,0.547,1.884,2,1,16,1,8,8,162,162,0
39,2,2,3,1.053,1.938,2,1,17,1,7,7,126,126,0
39,2,2,3,0.63,1.276,2,1,18,2,7,7,248,248,0
39,1,1,4,0.98,2.028,2,1,19,2,8,6,455,457,2
39,1,1,4,1.22,1.058,2,1,20,2,9,9,120,1042,1
39,2,2,2,1.283,2.175,2,1,21,2,6,6,422,422,0
39,2,2,3,0.998,1.965,2,1,22,2,9,9,653,653,0
39,2,2,3,1.113,2.044,2,1,23,2,8,8,2183,2183,0
39,2,2,2,1.288,0.772,2,1,24,2,8,8,1026,1026,0
39,2,2,3,1.442,1.416,2,1,25,2,7,7,212,212,0
39,2,2,3,1.451,1.567,2,1,26,2,7,7,920,920,0
39,1,1,4,1.292,1.591,2,1,27,2,9,9,2212,100,2
39,1,1,4,1.254,1.411,2,1,28,2,8,6,896,100,2
39,2,2,2,1.593,1.465,2,1,29,2,8,8,328,328,0
39,1,1,4,1.215,0.846,2,1,30,2,8,7,962,408,2
39,1,1,4,0.782,2.254,2,1,31,2,8,6,175,160,2
39,1,1,3,1.509,1.592,2,1,32,2,8,7,976,283,2
40,1,1,4,0.872,11.156,2,1,1,0,NaN,NaN,NaN,NaN,NaN
40,2,2,4,1.576,1.96,2,1,2,0,NaN,NaN,NaN,NaN,NaN
40,1,2,2,2.29,3.013,2,0,3,1,8,8,594,100,1
40,2,1,4,2.047,1.436,2,0,4,1,8,8,162,162,0
40,1,2,3,1.349,1.95,2,0,5,1,8,7,857,227,1
40,1,2,3,1.474,2.198,2,0,6,1,8,7,1022,556,1
40,1,1,4,1.312,1.595,2,1,7,1,8,7,134,196,1
40,1,1,4,1.149,2.83,2,1,8,1,8,7,104,100,1
40,2,1,3,1.838,1.251,2,0,9,1,9,9,707,707,0
40,1,1,4,1.597,1.339,2,1,10,1,8,7,272,12786,0
40,1,2,3,1.278,1.546,2,0,11,1,8,9,3412,100,1
40,1,1,4,1.428,1.369,2,1,12,1,7,7,618,1644,1
40,2,2,4,1.997,1.341,2,1,13,1,8,8,248,248,0
40,2,1,4,1.072,1.508,2,0,14,1,8,8,1124,1124,0
40,2,1,3,1.122,1.395,2,0,15,1,7,7,126,126,0
40,2,1,2,2.214,6.155,2,0,16,1,7,7,613,613,0
40,1,2,3,1.792,1.686,2,0,17,1,7,7,177,236,1
40,1,1,3,1.624,2.342,2,1,18,2,9,9,2212,100,2
40,1,NaN,2,NaN,0.169,2,NaN,19,2,8,7,976,283,2
40,1,2,2,1.612,1.466,2,0,20,2,8,6,455,457,2
40,1,1,4,2.312,1.561,2,1,21,2,8,6,896,100,2
40,1,1,4,1.142,1.19,2,1,22,2,8,7,962,408,2
40,2,2,3,0.912,1.723,2,1,23,2,9,9,653,653,0
40,1,1,2,0.739,1.412,2,1,24,2,8,6,175,160,2
40,2,1,2,1.082,2.268,2,0,25,2,8,8,2183,2183,0
40,2,2,3,1.003,1.346,2,1,26,2,8,8,328,328,0
40,2,2,4,1.19,1.237,2,1,27,2,6,6,422,422,0
40,1,1,4,2.031,1.293,2,1,28,2,9,9,120,1042,1
40,2,2,3,0.87,0.979,2,1,29,2,7,7,248,248,0
40,2,1,3,1.102,1.522,2,0,30,2,8,8,1026,1026,0
40,2,2,4,1.591,1.35,2,1,31,2,7,7,920,920,0
40,2,2,2,0.979,2.123,2,1,32,2,7,7,212,212,0
41,2,2,4,0.912,2.73,2,1,1,0,NaN,NaN,NaN,NaN,NaN
41,1,1,4,1.342,2.008,2,1,2,0,NaN,NaN,NaN,NaN,NaN
41,2,2,2,1.845,2.475,2,1,3,1,9,9,707,707,0
41,1,1,4,1.017,1.423,2,1,4,1,8,7,272,12786,0
41,1,2,2,1.015,1.918,2,0,5,1,8,9,3412,100,1
41,1,1,3,1.283,1.695,2,1,6,1,7,7,177,236,1
41,1,2,2,1.292,2.071,2,0,7,1,8,7,1022,556,1
41,1,1,3,0.678,1.978,2,1,8,1,8,7,134,196,1
41,1,2,2,0.969,1.777,2,0,9,1,8,7,857,227,1
41,2,2,2,1.571,2.467,2,1,10,1,8,8,1124,1124,0
41,1,1,3,0.343,1.56,2,1,11,1,7,7,618,1644,1
41,2,2,2,1.489,1.636,2,1,12,1,8,8,162,162,0
41,1,1,2,0.859,2.344,2,1,13,1,8,7,104,100,1
41,2,2,4,0.515,1.261,2,1,14,1,7,7,613,613,0
41,2,1,1,1.175,4.901,2,0,15,1,8,8,248,248,0
41,2,2,4,0.778,1.37,2,1,16,1,7,7,126,126,0
41,1,1,1,1.36,1.673,2,1,17,1,8,8,594,100,1
41,2,2,2,0.634,1.472,2,1,18,2,7,7,212,212,0
41,1,1,2,0.494,1.641,2,1,19,2,8,7,976,283,2
41,2,2,2,0.767,1.679,2,1,20,2,9,9,653,653,0
41,1,1,3,0.517,1.679,2,1,21,2,8,6,175,160,2
41,2,2,2,0.628,1.227,2,1,22,2,8,8,328,328,0
41,2,2,2,1.235,1.92,2,1,23,2,6,6,422,422,0
41,1,1,3,0.799,3.934,2,1,24,2,9,9,120,1042,1
41,1,1,3,0.446,2.332,2,1,25,2,8,6,896,100,2
41,2,2,2,1.16,1.401,2,1,26,2,8,8,2183,2183,0
41,1,2,2,0.779,1.611,2,0,27,2,9,9,2212,100,2
41,2,2,4,0.518,1.28,2,1,28,2,7,7,920,920,0
41,1,1,3,0.699,1.614,2,1,29,2,8,6,455,457,2
41,2,2,4,0.383,1.167,2,1,30,2,7,7,248,248,0
41,2,2,2,0.546,1.403,2,1,31,2,8,8,1026,1026,0
41,1,1,3,1.637,1.458,2,1,32,2,8,7,962,408,2
42,1,1,4,2.422,3.747,2,1,1,0,NaN,NaN,NaN,NaN,NaN
42,2,2,4,2.374,1.814,2,1,2,0,NaN,NaN,NaN,NaN,NaN
42,1,1,4,2.261,1.673,2,1,3,1,8,7,104,100,1
42,2,NaN,3,NaN,7.495,2,NaN,4,1,8,8,248,248,0
42,2,2,4,0.984,1.648,2,1,5,1,8,8,162,162,0
42,1,1,3,1.224,2.246,2,1,6,1,8,7,857,227,1
42,1,1,4,2.693,1.768,2,1,7,1,8,7,134,196,1
42,1,1,3,1.242,1.64,2,1,8,1,7,7,177,236,1
42,1,1,2,2.338,1.588,2,1,9,1,8,8,594,100,1
42,2,1,2,2.658,1.351,2,0,10,1,9,9,707,707,0
42,1,1,4,1.568,1.584,2,1,11,1,7,7,618,1644,1
42,1,1,3,1.938,1.876,2,1,12,1,8,7,1022,556,1
42,2,1,2,2.296,0.827,2,0,13,1,8,8,1124,1124,0
42,1,NaN,1,NaN,0.195,2,NaN,14,1,8,7,272,12786,0
42,1,2,3,1.373,1.892,2,0,15,1,8,9,3412,100,1
42,2,2,4,1.29,1.174,2,1,16,1,7,7,613,613,0
42,2,2,4,1.033,0.767,2,1,17,1,7,7,126,126,0
42,2,1,3,1.979,1.851,2,0,18,2,8,8,1026,1026,0
42,2,2,4,1.107,0.678,2,1,19,2,7,7,248,248,0
42,1,1,4,2.909,1.448,2,1,20,2,8,6,896,100,2
42,1,1,4,1.391,1.126,2,1,21,2,8,6,455,457,2
42,2,2,2,2.075,1.607,2,1,22,2,8,8,2183,2183,0
42,1,1,4,1.416,1.055,2,1,23,2,9,9,120,1042,1
42,1,1,4,1.029,0.699,2,1,24,2,8,7,976,283,2
42,2,1,2,2.226,2.024,2,0,25,2,7,7,920,920,0
42,2,2,3,1.912,4.907,2,1,26,2,6,6,422,422,0
42,1,1,4,1.592,0.807,2,1,27,2,8,7,962,408,2
42,2,1,3,1.641,1.574,2,0,28,2,7,7,212,212,0
42,1,1,4,1.496,0.699,2,1,29,2,9,9,2212,100,2
42,2,2,1,2.13,1.548,2,1,30,2,9,9,653,653,0
42,1,1,4,1.185,0.673,2,1,31,2,8,6,175,160,2
42,2,2,3,1.751,7.088,2,1,32,2,8,8,328,328,0
43,1,NaN,4,NaN,6.558,2,NaN,1,0,NaN,NaN,NaN,NaN,NaN
43,2,2,4,1.201,1.28,2,1,2,0,NaN,NaN,NaN,NaN,NaN
43,1,2,3,1.328,1.882,2,0,3,1,8,7,1022,556,1
43,2,NaN,2,NaN,0.299,2,NaN,4,1,9,9,707,707,0
43,2,2,4,0.279,0.715,2,1,5,1,8,8,1124,1124,0
43,2,2,2,1.014,5.291,2,1,6,1,8,8,248,248,0
43,1,NaN,2,NaN,0.773,2,NaN,7,1,7,7,177,236,1
43,1,1,4,1.616,0.956,2,1,8,1,8,7,272,12786,0
43,1,2,4,2.463,3.195,2,0,9,1,8,7,104,100,1
43,2,NaN,1,NaN,0.505,2,NaN,10,1,7,7,126,126,0
43,1,2,3,2.716,1.166,2,0,11,1,8,9,3412,100,1
43,1,NaN,2,NaN,0.717,2,NaN,12,1,8,7,857,227,1
43,2,2,3,2.65,2.527,2,1,13,1,8,8,162,162,0
43,2,2,4,0.725,0.519,2,1,14,1,7,7,613,613,0
43,1,1,4,2.234,1.086,2,1,15,1,7,7,618,1644,1
43,1,NaN,1,NaN,0.323,2,NaN,16,1,8,8,594,100,1
43,1,2,2,2.384,3.055,2,0,17,1,8,7,134,196,1
43,2,NaN,1,NaN,0.071,2,NaN,18,2,9,9,653,653,0
43,2,2,3,1.538,1.347,2,1,19,2,7,7,212,212,0
43,1,1,3,2.038,2.643,2,1,20,2,8,6,896,100,2
43,1,1,4,1.491,0.407,2,1,21,2,8,6,175,160,2
43,2,2,2,2.687,1.187,2,1,22,2,8,8,2183,2183,0
43,2,NaN,2,NaN,0.629,2,NaN,23,2,6,6,422,422,0
43,1,NaN,2,NaN,0.604,2,NaN,24,2,9,9,2212,100,2
43,2,1,2,2.08,0.988,2,0,25,2,7,7,920,920,0
43,2,NaN,2,NaN,0.23,2,NaN,26,2,8,8,1026,1026,0
43,1,1,4,2.071,1.683,2,1,27,2,9,9,120,1042,1
43,1,NaN,1,NaN,0.592,2,NaN,28,2,8,7,976,283,2
43,2,2,3,2.599,1.758,2,1,29,2,8,8,328,328,0
43,1,1,4,1.367,0.864,2,1,30,2,8,7,962,408,2
43,2,2,4,1.726,0.808,2,1,31,2,7,7,248,248,0
43,1,1,4,1.258,0.759,2,1,32,2,8,6,455,457,2
44,2,2,4,1.626,3.767,2,1,1,0,NaN,NaN,NaN,NaN,NaN
44,1,1,4,1.327,2.601,2,1,2,0,NaN,NaN,NaN,NaN,NaN
44,2,2,4,1.014,0.828,2,1,3,1,8,8,248,248,0
44,2,2,4,0.63,0.827,2,1,4,1,8,8,1124,1124,0
44,2,2,4,0.518,0.256,2,1,5,1,7,7,613,613,0
44,1,1,4,2.56,1.064,2,1,6,1,7,7,618,1644,1
44,1,1,4,1.979,0.186,2,1,7,1,8,7,104,100,1
44,1,2,4,2.22,0.274,2,0,8,1,8,9,3412,100,1
44,1,2,4,2.067,0.319,2,0,9,1,7,7,177,236,1
44,1,1,4,1.997,0.668,2,1,10,1,8,7,134,196,1
44,1,NaN,1,NaN,0.451,2,NaN,11,1,8,7,1022,556,1
44,2,2,3,0.828,0.633,2,1,12,1,9,9,707,707,0
44,1,1,1,2.681,0.557,2,1,13,1,8,7,272,12786,0
44,1,1,4,1.058,0.566,2,1,14,1,8,8,594,100,1
44,2,1,3,2.941,0.551,2,0,15,1,7,7,126,126,0
44,2,2,2,1.85,0.559,2,1,16,1,8,8,162,162,0
44,1,1,3,1.751,0.687,2,1,17,1,8,7,857,227,1
44,2,1,2,1.522,1.028,2,0,18,2,8,8,1026,1026,0
44,1,1,4,0.518,1.248,2,1,19,2,8,7,962,408,2
44,2,1,3,1.705,2.164,2,0,20,2,7,7,212,212,0
44,2,2,4,0.921,0.611,2,1,21,2,7,7,248,248,0
44,1,1,4,1.176,0.472,2,1,22,2,8,6,896,100,2
44,2,2,3,1.444,0.537,2,1,23,2,7,7,920,920,0
44,2,1,3,1.682,0.59,2,0,24,2,8,8,328,328,0
44,2,2,4,0.242,0.326,2,1,25,2,6,6,422,422,0
44,1,1,2,2.599,2.285,2,1,26,2,9,9,2212,100,2
44,1,1,4,1.021,0.371,2,1,27,2,8,6,455,457,2
44,2,1,2,1.797,1.516,2,0,28,2,8,8,2183,2183,0
44,1,1,4,1.183,0.591,2,1,29,2,8,6,175,160,2
44,1,1,4,1.848,0.461,2,1,30,2,9,9,120,1042,1
44,1,1,4,1.021,0.388,2,1,31,2,8,7,976,283,2
44,2,1,3,1.99,0.741,2,0,32,2,9,9,653,653,0
45,1,NaN,1,NaN,0.569,2,NaN,1,0,NaN,NaN,NaN,NaN,NaN
45,2,2,4,0.779,4.842,2,1,2,0,NaN,NaN,NaN,NaN,NaN
45,1,2,2,2.423,3.909,2,0,3,1,8,8,594,100,1
45,1,NaN,2,NaN,0.488,2,NaN,4,1,8,7,134,196,1
45,2,1,3,1.804,4.417,2,0,5,1,9,9,707,707,0
45,2,2,4,0.807,1.174,2,1,6,1,7,7,613,613,0
45,1,2,2,2.207,2.644,2,0,7,1,8,9,3412,100,1
45,2,2,3,1.233,1.486,2,1,8,1,8,8,1124,1124,0
45,1,2,3,1.852,1.057,2,0,9,1,8,7,1022,556,1
45,1,1,3,2.479,3.962,2,1,10,1,8,7,857,227,1
45,1,2,4,1.38,1.995,2,0,11,1,7,7,177,236,1
45,1,NaN,4,NaN,5.784,2,NaN,12,1,7,7,618,1644,1
45,1,1,4,2.295,2.314,2,1,13,1,8,7,104,100,1
45,2,NaN,1,NaN,1.002,2,NaN,14,1,8,8,248,248,0
45,2,2,4,0.955,1.412,2,1,15,1,7,7,126,126,0
45,2,2,4,0.979,1.739,2,1,16,1,8,8,162,162,0
45,1,1,4,2.224,2.15,2,1,17,1,8,7,272,12786,0
45,1,1,4,1.406,1.62,2,1,18,2,8,6,175,160,2
45,2,2,2,2.315,2.493,2,1,19,2,7,7,212,212,0
45,2,NaN,1,NaN,2.042,2,NaN,20,2,8,8,328,328,0
45,2,2,4,1.488,1.284,2,1,21,2,6,6,422,422,0
45,2,NaN,2,NaN,2.884,2,NaN,22,2,9,9,653,653,0
45,2,2,3,1.433,1.934,2,1,23,2,8,8,1026,1026,0
45,1,2,3,1.737,3.106,2,0,24,2,9,9,120,1042,1
45,2,2,3,0.945,1.178,2,1,25,2,7,7,248,248,0
45,1,NaN,2,NaN,2.38,2,NaN,26,2,8,6,896,100,2
45,1,2,4,0.938,1.619,2,0,27,2,8,6,455,457,2
45,1,2,3,1.841,2.199,2,0,28,2,9,9,2212,100,2
45,1,NaN,1,NaN,0.024,2,NaN,29,2,8,7,962,408,2
45,2,2,3,2.073,3.349,2,1,30,2,8,8,2183,2183,0
45,2,2,4,1.826,8.088,2,1,31,2,7,7,920,920,0
45,1,1,4,1.381,2.509,2,1,32,2,8,7,976,283,2
46,2,2,4,2.804,4.514,2,1,1,0,NaN,NaN,NaN,NaN,NaN
46,1,1,4,2.009,2.312,2,1,2,0,NaN,NaN,NaN,NaN,NaN
46,2,NaN,2,NaN,0.169,2,NaN,3,1,9,9,707,707,0
46,2,2,4,1.327,2.105,2,1,4,1,7,7,613,613,0
46,2,2,2,2.352,3.649,2,1,5,1,8,8,248,248,0
46,1,NaN,2,NaN,0.469,2,NaN,6,1,7,7,177,236,1
46,1,NaN,3,NaN,2.356,2,NaN,7,1,8,8,594,100,1
46,1,NaN,1,NaN,0.6,2,NaN,8,1,7,7,618,1644,1
46,1,2,4,0.973,1.173,2,0,9,1,8,7,104,100,1
46,1,1,4,2.947,2.555,2,1,10,1,8,7,134,196,1
46,1,1,4,1.876,2.424,2,1,11,1,8,7,272,12786,0
46,2,2,4,1.414,1.933,2,1,12,1,8,8,162,162,0
46,1,1,3,2.433,2.573,2,1,13,1,8,7,1022,556,1
46,2,2,4,0.952,1.729,2,1,14,1,7,7,126,126,0
46,1,1,4,1.582,2.542,2,1,15,1,8,7,857,227,1
46,2,NaN,1,NaN,0.4,2,NaN,16,1,8,8,1124,1124,0
46,1,2,3,0.848,2.333,2,0,17,1,8,9,3412,100,1
46,1,1,4,1.415,2.574,2,1,18,2,8,7,962,408,2
46,1,1,4,1.096,1.18,2,1,19,2,8,6,896,100,2
46,2,2,3,1.15,1.647,2,1,20,2,6,6,422,422,0
46,1,1,4,0.976,1.32,2,1,21,2,8,7,976,283,2
46,2,2,4,0.917,1.12,2,1,22,2,7,7,920,920,0
46,1,1,1,1.188,2.068,2,1,23,2,8,6,455,457,2
46,2,2,3,1.348,1.741,2,1,24,2,7,7,248,248,0
46,2,1,2,1.818,2.209,2,0,25,2,9,9,653,653,0
46,1,NaN,1,NaN,1.793,2,NaN,26,2,9,9,2212,100,2
46,1,1,2,1.466,2.222,2,1,27,2,9,9,120,1042,1
46,2,2,3,1.703,2.114,2,1,28,2,8,8,1026,1026,0
46,1,1,2,1.664,2.141,2,1,29,2,8,6,175,160,2
46,2,1,4,1.769,2.162,2,0,30,2,8,8,328,328,0
46,2,1,3,2.669,1.762,2,0,31,2,7,7,212,212,0
46,2,NaN,1,NaN,0.004,2,NaN,32,2,8,8,2183,2183,0
47,1,2,2,1.505,5.714,2,0,1,0,NaN,NaN,NaN,NaN,NaN
47,2,2,4,0.924,2.55,2,1,2,0,NaN,NaN,NaN,NaN,NaN
47,2,2,2,1.029,1.691,2,1,3,1,9,9,707,707,0
47,1,2,3,1.987,1.282,2,0,4,1,8,8,594,100,1
47,1,1,3,1.149,1.15,2,1,5,1,7,7,177,236,1
47,1,2,2,1.1,1.087,2,0,6,1,8,7,104,100,1
47,2,1,1,1.699,1.183,2,0,7,1,8,8,162,162,0
47,1,1,4,1.393,1.576,2,1,8,1,8,7,272,12786,0
47,2,2,4,0.09,1.221,2,1,9,1,8,8,1124,1124,0
47,1,1,3,0.694,1.129,2,1,10,1,7,7,618,1644,1
47,1,2,2,0.525,0.903,2,0,11,1,8,9,3412,100,1
47,1,1,1,0.788,0.74,2,1,12,1,8,7,1022,556,1
47,1,1,3,1.017,1.184,2,1,13,1,8,7,857,227,1
47,1,1,3,0.626,1.384,2,1,14,1,8,7,134,196,1
47,2,2,3,0.723,0.773,2,1,15,1,8,8,248,248,0
47,2,2,4,0.535,0.321,2,1,16,1,7,7,613,613,0
47,2,2,4,0.597,0.701,2,1,17,1,7,7,126,126,0
47,2,2,2,2.113,0.827,2,1,18,2,9,9,653,653,0
47,2,1,1,0.748,0.589,2,0,19,2,8,8,1026,1026,0
47,2,1,3,1.112,0.842,2,0,20,2,7,7,920,920,0
47,2,2,4,0.203,0.642,2,1,21,2,7,7,248,248,0
47,2,2,2,0.602,0.545,2,1,22,2,6,6,422,422,0
47,1,1,4,0.669,0.738,2,1,23,2,8,7,962,408,2
47,2,2,4,0.79,0.741,2,1,24,2,7,7,212,212,0
47,1,1,2,0.776,0.984,2,1,25,2,8,6,455,457,2
47,1,1,1,0.626,0.648,2,1,26,2,9,9,120,1042,1
47,1,1,3,1.073,0.725,2,1,27,2,8,7,976,283,2
47,1,1,4,1.001,0.448,2,1,28,2,8,6,896,100,2
47,2,1,2,0.592,1.192,2,0,29,2,8,8,328,328,0
47,1,1,3,0.57,0.483,2,1,30,2,8,6,175,160,2
47,1,2,2,1.2,0.528,2,0,31,2,9,9,2212,100,2
47,2,1,2,1.165,0.829,2,0,32,2,8,8,2183,2183,0
48,1,NaN,4,NaN,4.457,2,NaN,1,0,NaN,NaN,NaN,NaN,NaN
48,2,NaN,4,NaN,3.72,2,NaN,2,0,NaN,NaN,NaN,NaN,NaN
48,2,2,3,0.948,1.964,2,1,3,1,8,8,1124,1124,0
48,2,2,4,0.407,1.509,2,1,4,1,8,8,248,248,0
48,1,2,2,2.067,1.566,2,0,5,1,8,7,1022,556,1
48,1,2,2,2.186,1.601,2,0,6,1,8,9,3412,100,1
48,2,NaN,1,NaN,1.765,2,NaN,7,1,7,7,126,126,0
48,2,2,4,1.166,1.455,2,1,8,1,7,7,613,613,0
48,2,2,4,1.013,1.147,2,1,9,1,8,8,162,162,0
48,1,2,3,1.567,1.392,2,0,10,1,8,7,857,227,1
48,1,NaN,2,NaN,2.753,2,NaN,11,1,8,8,594,100,1
48,2,NaN,1,NaN,1.324,2,NaN,12,1,9,9,707,707,0
48,1,1,3,1.514,2.092,2,1,13,1,8,7,134,196,1
48,1,1,3,1.131,1.597,2,1,14,1,7,7,177,236,1
48,1,1,4,0.607,1.301,2,1,15,1,7,7,618,1644,1
48,1,1,4,0.404,1.411,2,1,16,1,8,7,104,100,1
48,1,1,3,1.117,1.168,2,1,17,1,8,7,272,12786,0
48,1,1,3,2.329,1.419,2,1,18,2,8,6,896,100,2
48,2,NaN,1,NaN,0.218,2,NaN,19,2,9,9,653,653,0
48,2,2,4,0.339,1.317,2,1,20,2,7,7,248,248,0
48,1,1,3,0.979,1.163,2,1,21,2,8,7,962,408,2
48,1,1,2,2.815,1.245,2,1,22,2,8,6,175,160,2
48,1,1,4,0.301,2.369,2,1,23,2,8,7,976,283,2
48,2,1,3,1.269,1.298,2,0,24,2,6,6,422,422,0
48,1,1,3,1.328,1.098,2,1,25,2,9,9,120,1042,1
48,2,2,2,1.632,1.534,2,1,26,2,8,8,1026,1026,0
48,1,1,3,0.883,1.295,2,1,27,2,8,6,455,457,2
48,2,1,3,1.87,1.571,2,0,28,2,8,8,328,328,0
48,2,2,3,1.301,1.696,2,1,29,2,8,8,2183,2183,0
48,2,2,3,0.927,2.121,2,1,30,2,7,7,920,920,0
48,1,2,1,1.878,1.482,2,0,31,2,9,9,2212,100,2
48,2,1,2,1.153,1.218,2,0,32,2,7,7,212,212,0
49,2,2,4,1.137,2.979,2,1,1,0,NaN,NaN,NaN,NaN,NaN
49,1,1,4,1.303,3.505,2,1,2,0,NaN,NaN,NaN,NaN,NaN
49,1,2,3,2.112,4.106,2,0,3,1,8,8,594,100,1
49,1,1,1,2.739,3.172,2,1,4,1,8,7,104,100,1
49,2,2,3,1.602,2.4,2,1,5,1,8,8,162,162,0
49,1,2,2,1.903,2.034,2,0,6,1,8,7,857,227,1
49,1,1,3,1.233,2.847,2,1,7,1,7,7,618,1644,1
49,2,2,2,2.574,2.47,2,1,8,1,7,7,126,126,0
49,2,2,3,1.7,1.647,2,1,9,1,8,8,248,248,0
49,1,1,4,2.589,1.924,2,1,10,1,8,7,134,196,1
49,1,NaN,1,NaN,3.84,2,NaN,11,1,8,7,1022,556,1
49,2,2,4,0.04,1.333,2,1,12,1,7,7,613,613,0
49,1,2,2,1.297,2.605,2,0,13,1,7,7,177,236,1
49,2,1,2,2.678,1.354,2,0,14,1,8,8,1124,1124,0
49,2,2,3,2.757,10.613,2,1,15,1,9,9,707,707,0
49,1,NaN,2,NaN,0.23,2,NaN,16,1,8,7,272,12786,0
49,1,2,4,0.607,0.71,2,0,17,1,8,9,3412,100,1
49,2,2,2,1.01,1.721,2,1,18,2,8,8,328,328,0
49,1,2,2,2.357,1.141,2,0,19,2,8,7,976,283,2
49,2,1,2,2.314,1.404,2,0,20,2,6,6,422,422,0
49,1,1,3,2.134,1.04,2,1,21,2,9,9,120,1042,1
49,2,2,3,0.999,2.67,2,1,22,2,7,7,920,920,0
49,2,1,1,0.933,1.631,2,0,23,2,9,9,653,653,0
49,1,NaN,1,NaN,0.231,2,NaN,24,2,8,6,175,160,2
49,2,2,2,1.436,1.682,2,1,25,2,8,8,2183,2183,0
49,1,1,2,1.934,1.824,2,1,26,2,8,6,896,100,2
49,2,2,3,0.84,2.004,2,1,27,2,7,7,212,212,0
49,1,1,4,0.998,1.005,2,1,28,2,8,7,962,408,2
49,2,2,2,1.351,1.776,2,1,29,2,8,8,1026,1026,0
49,1,2,2,1.898,1.693,2,0,30,2,9,9,2212,100,2
49,2,NaN,2,NaN,0.099,2,NaN,31,2,7,7,248,248,0
49,1,1,4,1.6,1.056,2,1,32,2,8,6,455,457,2
50,2,2,4,1.056,5.365,2,1,1,0,NaN,NaN,NaN,NaN,NaN
50,1,1,3,0.876,6.04,2,1,2,0,NaN,NaN,NaN,NaN,NaN
50,2,2,2,0.824,3.334,2,1,3,1,9,9,707,707,0
50,2,2,3,1.037,3.266,2,1,4,1,8,8,248,248,0
50,1,1,2,1.596,2.604,2,1,5,1,8,8,594,100,1
50,1,2,4,0.801,1.759,2,0,6,1,8,9,3412,100,1
50,1,1,3,0.569,3.665,2,1,7,1,8,7,1022,556,1
50,1,1,3,0.768,1.761,2,1,8,1,8,7,134,196,1
50,1,2,2,0.653,2.69,2,0,9,1,8,7,272,12786,0
50,2,2,3,0.615,3.118,2,1,10,1,7,7,126,126,0
50,1,2,3,0.66,2.281,2,0,11,1,7,7,177,236,1
50,1,1,3,0.592,2.055,2,1,12,1,7,7,618,1644,1
50,1,2,2,2.647,2.764,2,0,13,1,8,7,104,100,1
50,1,1,4,1.517,2.4,2,1,14,1,8,7,857,227,1
50,2,2,4,0.018,1.152,2,1,15,1,7,7,613,613,0
50,2,2,3,0.165,1.581,2,1,16,1,8,8,162,162,0
50,2,2,3,0.465,0.94,2,1,17,1,8,8,1124,1124,0
50,2,2,3,0.641,1.318,2,1,18,2,7,7,248,248,0
50,2,2,3,0.42,2.082,2,1,19,2,7,7,212,212,0
50,1,1,3,0.641,1.879,2,1,20,2,8,6,175,160,2
50,1,1,3,1.166,1.647,2,1,21,2,9,9,2212,100,2
50,2,2,2,0.431,0.957,2,1,22,2,8,8,1026,1026,0
50,2,2,2,2.537,2.003,2,1,23,2,9,9,653,653,0
50,1,NaN,2,NaN,3.164,2,NaN,24,2,8,7,976,283,2
50,2,2,3,0.336,2.131,2,1,25,2,8,8,2183,2183,0
50,2,2,3,0.256,1.252,2,1,26,2,8,8,328,328,0
50,2,2,3,0.196,1.227,2,1,27,2,6,6,422,422,0
50,2,2,3,0.237,0.867,2,1,28,2,7,7,920,920,0
50,1,1,3,0.387,2.291,2,1,29,2,8,6,896,100,2
50,1,2,2,0.537,1.283,2,0,30,2,8,7,962,408,2
50,1,2,3,0.274,0.919,2,0,31,2,9,9,120,1042,1
50,1,1,3,0.548,1.117,2,1,32,2,8,6,455,457,2
51,1,1,2,2.472,7.071,2,1,1,0,NaN,NaN,NaN,NaN,NaN
51,2,2,4,2.165,7.449,2,1,2,0,NaN,NaN,NaN,NaN,NaN
51,1,1,2,2.997,2.649,2,1,3,1,8,8,328,100,1
51,1,NaN,1,NaN,0.037,2,NaN,4,1,8,7,272,12786,1
51,1,2,2,1.629,2.261,2,0,5,1,7,7,248,100,1
51,2,2,2,1.35,2.264,2,1,6,1,9,9,2212,2212,0
51,2,2,2,2.05,2.713,2,1,7,1,8,8,962,962,0
51,1,2,2,1.392,1.638,2,0,8,1,7,7,177,177,0
51,2,2,2,1.943,2.18,2,1,9,1,7,7,618,618,0
51,1,2,2,0.858,2.411,2,0,10,1,7,6,920,739,1
51,1,NaN,1,NaN,0.41,2,NaN,11,1,7,6,212,298,1
51,2,2,2,0.833,1.9,2,1,12,1,9,9,120,120,0
51,1,1,2,2.174,1.328,2,1,13,1,6,7,422,116,2
51,2,1,2,0.871,1.402,2,0,14,1,8,8,976,976,0
51,1,1,2,2.722,13.858,2,1,15,1,8,7,2183,100,1
51,1,1,1,1.511,1.603,2,1,16,1,8,7,162,615,1
51,2,2,2,0.709,1.291,2,1,17,1,8,8,1022,1022,0
51,2,2,2,0.962,1.256,2,1,18,2,8,8,3412,3412,0
51,2,2,2,0.635,1.25,2,1,19,2,8,8,857,857,0
51,2,2,2,0.708,1.329,2,1,20,2,8,8,455,455,0
51,1,2,2,0.876,1.64,2,0,21,2,8,8,248,100,2
51,2,2,2,1.064,1.666,2,1,22,2,8,8,134,134,0
51,2,1,2,1.081,1.142,2,0,23,2,8,8,175,175,0
51,2,2,2,2.227,0.983,2,1,24,2,8,8,104,104,0
51,1,1,2,1.601,0.935,2,1,25,2,7,7,126,126,1
51,1,1,2,0.906,0.863,2,1,26,2,9,9,707,889,1
51,1,2,1,0.902,1.362,2,0,27,2,9,10,653,6216,2
51,2,1,2,2.603,1.633,2,0,28,2,8,8,594,594,0
51,2,2,2,1.294,1.064,2,1,29,2,8,8,896,896,0
51,1,1,3,0.943,3.575,2,1,30,2,8,6,1026,345,2
51,1,2,2,1.418,1.283,2,0,31,2,8,7,1124,100,2
51,1,1,3,2.416,2.907,2,1,32,2,7,6,613,408,1
52,1,1,4,2.777,2.968,2,1,1,0,NaN,NaN,NaN,NaN,NaN
52,2,2,4,0.936,2.706,2,1,2,0,NaN,NaN,NaN,NaN,NaN
52,1,NaN,2,NaN,0.186,2,NaN,3,1,6,7,422,116,2
52,2,2,3,0.938,1.316,2,1,4,1,8,8,962,962,0
52,2,NaN,2,NaN,0.464,2,NaN,5,1,8,8,1022,1022,0
52,1,2,3,1.622,0.675,2,0,6,1,7,7,177,177,0
52,1,1,1,2.579,1.099,2,1,7,1,7,6,920,739,1
52,1,1,4,1.005,1.876,2,1,8,1,7,7,248,100,1
52,1,NaN,2,NaN,0.713,2,NaN,9,1,8,7,2183,100,1
52,2,2,4,0.084,0.879,2,1,10,1,8,8,976,976,0
52,1,NaN,1,NaN,0.316,2,NaN,11,1,7,6,212,298,1
52,1,2,2,2.41,1.033,2,0,12,1,8,7,272,12786,1
52,2,NaN,2,NaN,1.214,2,NaN,13,1,9,9,120,120,0
52,1,2,2,2.411,0.569,2,0,14,1,8,8,328,100,1
52,2,2,2,0.956,0.581,2,1,15,1,7,7,618,618,0
52,1,1,4,1.286,1.121,2,1,16,1,8,7,162,615,1
52,2,2,2,1.168,0.417,2,1,17,1,9,9,2212,2212,0
52,1,1,4,1.227,0.297,2,1,18,2,8,7,1124,100,2
52,1,1,4,1.964,0.348,2,1,19,2,8,6,1026,345,2
52,2,NaN,2,NaN,0.133,2,NaN,20,2,8,8,455,455,0
52,1,1,2,1.041,1.83,2,1,21,2,8,8,248,100,2
52,2,2,2,1.599,0.926,2,1,22,2,8,8,134,134,0
52,2,1,3,1.802,0.897,2,0,23,2,8,8,896,896,0
52,1,1,4,1.071,0.756,2,1,24,2,9,10,653,6216,2
52,2,1,4,0.903,0.626,2,0,25,2,8,8,857,857,0
52,2,NaN,1,NaN,1.619,2,NaN,26,2,8,8,3412,3412,0
52,2,1,2,1.683,1.024,2,0,27,2,8,8,175,175,0
52,1,1,1,0.968,1.009,2,1,28,2,9,9,707,889,1
52,2,1,1,1.914,0.413,2,0,29,2,8,8,104,104,0
52,1,2,1,0.702,2.337,2,0,30,2,7,7,126,126,1
52,2,2,2,2.438,0.692,2,1,31,2,8,8,594,594,0
52,1,1,4,1.178,0.298,2,1,32,2,7,6,613,408,1
53,1,1,4,2.609,3.478,2,1,1,0,NaN,NaN,NaN,NaN,NaN
53,2,2,4,0.964,3.804,2,1,2,0,NaN,NaN,NaN,NaN,NaN
53,2,2,2,2.796,3.275,2,1,3,1,9,9,2212,2212,0
53,2,2,1,2.944,2.809,2,1,4,1,8,8,1022,1022,0
53,1,1,1,2.068,3.679,2,1,5,1,8,7,162,615,1
53,1,1,3,1.51,3.017,2,1,6,1,8,7,2183,100,1
53,2,NaN,1,NaN,0.353,2,NaN,7,1,9,9,120,120,0
53,1,2,2,1.662,2.075,2,0,8,1,7,7,177,177,0
53,1,1,3,1.554,4.418,2,1,9,1,6,7,422,116,2
53,1,NaN,2,NaN,4.208,2,NaN,10,1,7,6,212,298,1
53,1,1,1,0.978,4.154,2,1,11,1,8,8,328,100,1
53,1,1,2,1.229,2.155,2,1,12,1,7,7,248,100,1
53,2,2,1,1.392,0.647,2,1,13,1,8,8,962,962,0
53,1,2,1,2.01,0.984,2,0,14,1,7,6,920,739,1
53,1,1,1,2.14,1.54,2,1,15,1,8,7,272,12786,1
53,2,2,1,2.257,1.846,2,1,16,1,7,7,618,618,0
53,2,1,2,1.751,4.063,2,0,17,1,8,8,976,976,0
53,2,2,2,1.218,1.632,2,1,18,2,8,8,134,134,0
53,1,2,1,1.856,0.692,2,0,19,2,8,7,1124,100,2
53,2,2,2,1.593,0.953,2,1,20,2,8,8,3412,3412,0
53,2,2,2,2.069,1.697,2,1,21,2,8,8,455,455,0
53,2,1,1,1.454,1.428,2,0,22,2,8,8,104,104,0
53,1,1,1,2.603,1.731,2,1,23,2,8,6,1026,345,2
53,1,1,1,2.207,1.014,2,1,24,2,9,9,707,889,1
53,2,1,2,2.91,3.033,2,0,25,2,8,8,175,175,0
53,2,2,2,1.935,1.152,2,1,26,2,8,8,896,896,0
53,2,1,2,1.539,1.748,2,0,27,2,8,8,857,857,0
53,1,1,3,0.816,3.407,2,1,28,2,7,7,126,126,1
53,1,2,2,2.008,1.623,2,0,29,2,9,10,653,6216,2
53,2,2,2,2.358,2.727,2,1,30,2,8,8,594,594,0
53,1,2,4,1.148,2.349,2,0,31,2,7,6,613,408,1
53,1,1,2,1.601,3.552,2,1,32,2,8,8,248,100,2
54,1,1,4,2.012,5.386,2,1,1,0,NaN,NaN,NaN,NaN,NaN
54,2,2,4,1.131,1.453,2,1,2,0,NaN,NaN,NaN,NaN,NaN
54,2,NaN,2,NaN,3.081,2,NaN,3,1,8,8,976,976,0
54,1,2,3,1.56,2.072,2,0,4,1,7,6,212,298,1
54,1,NaN,1,NaN,0.293,2,NaN,5,1,8,7,2183,100,1
54,2,2,2,1.027,1.561,2,1,6,1,8,8,962,962,0
54,1,2,3,1.546,2.107,2,0,7,1,8,8,328,100,1
54,2,NaN,4,NaN,2.008,2,NaN,8,1,9,9,2212,2212,0
54,1,2,3,1.01,1.543,2,0,9,1,7,7,248,100,1
54,1,1,1,1.729,1.946,2,1,10,1,8,7,162,615,1
54,1,1,3,1.062,1.994,2,1,11,1,7,7,177,177,0
54,1,1,2,1.732,1.485,2,1,12,1,8,7,272,12786,1
54,1,2,3,1.165,1.837,2,0,13,1,7,6,920,739,1
54,2,2,3,1.038,0.947,2,1,14,1,9,9,120,120,0
54,2,1,1,0.807,1.526,2,0,15,1,8,8,1022,1022,0
54,2,1,2,0.979,1.739,2,0,16,1,7,7,618,618,0
54,1,1,3,0.881,1.405,2,1,17,1,6,7,422,116,2
54,2,1,2,0.748,1.198,2,0,18,2,8,8,594,594,0
54,1,1,4,0.797,1.404,2,1,19,2,8,6,1026,345,2
54,1,2,3,1.301,1.248,2,0,20,2,8,8,248,100,2
54,1,1,4,1.024,1.398,2,1,21,2,7,6,613,408,1
54,2,2,4,0.559,1.448,2,1,22,2,8,8,3412,3412,0
54,1,1,1,1.519,1.505,2,1,23,2,9,9,707,889,1
54,2,2,3,0.919,1.345,2,1,24,2,8,8,175,175,0
54,1,1,4,1.165,0.733,2,1,25,2,8,7,1124,100,2
54,1,1,2,2.08,1.452,2,1,26,2,9,10,653,6216,2
54,2,1,3,1.524,1.99,2,0,27,2,8,8,134,134,0
54,1,1,4,0.712,1.227,2,1,28,2,7,7,126,126,1
54,2,2,2,1.579,2.652,2,1,29,2,8,8,455,455,0
54,2,1,3,1.347,1.868,2,0,30,2,8,8,896,896,0
54,2,2,1,1.171,1.412,2,1,31,2,8,8,104,104,0
54,2,NaN,2,NaN,0.115,2,NaN,32,2,8,8,857,857,0
55,1,1,4,1.353,2.496,2,1,1,0,NaN,NaN,NaN,NaN,NaN
55,2,2,4,0.838,1.075,2,1,2,0,NaN,NaN,NaN,NaN,NaN
55,1,1,3,1.611,1.16,2,1,3,1,7,7,248,100,1
55,1,1,4,1.921,1.378,2,1,4,1,8,7,162,615,1
55,1,1,2,2.211,1.385,2,1,5,1,7,6,212,298,1
55,2,2,3,1.305,1.314,2,1,6,1,7,7,618,618,0
55,2,2,3,1.078,1.705,2,1,7,1,8,8,1022,1022,0
55,2,2,4,0.731,0.797,2,1,8,1,8,8,976,976,0
55,1,1,3,1.301,0.767,2,1,9,1,8,7,2183,100,1
55,1,1,4,1.751,2.016,2,1,10,1,8,7,272,12786,1
55,1,1,4,1.27,0.898,2,1,11,1,6,7,422,116,2
55,1,1,3,1.941,1.141,2,1,12,1,8,8,328,100,1
55,1,1,2,1.233,0.942,2,1,13,1,7,7,177,177,0
55,2,1,2,2.721,1.075,2,0,14,1,8,8,962,962,0
55,1,1,1,1.138,1.747,2,1,15,1,7,6,920,739,1
55,2,2,3,1.701,0.4,2,1,16,1,9,9,120,120,0
55,2,1,1,1.821,0.483,2,0,17,1,9,9,2212,2212,0
55,1,1,2,2.021,0.882,2,1,18,2,8,6,1026,345,2
55,1,1,4,1.447,0.972,2,1,19,2,8,7,1124,100,2
55,1,1,4,0.813,1.611,2,1,20,2,7,6,613,408,1
55,1,1,4,0.948,0.364,2,1,21,2,9,10,653,6216,2
55,1,1,4,0.951,1.071,2,1,22,2,8,8,248,100,2
55,2,2,4,0.545,0.955,2,1,23,2,8,8,104,104,0
55,2,2,4,0.495,0.33,2,1,24,2,8,8,134,134,0
55,2,1,2,2.038,0.611,2,0,25,2,8,8,175,175,0
55,2,1,4,0.66,0.871,2,0,26,2,8,8,896,896,0
55,1,1,4,0.748,0.732,2,1,27,2,9,9,707,889,1
55,2,2,2,1.595,0.778,2,1,28,2,8,8,455,455,0
55,1,1,4,0.823,0.693,2,1,29,2,7,7,126,126,1
55,2,1,3,1.499,1.55,2,0,30,2,8,8,594,594,0
55,2,2,3,1.313,0.475,2,1,31,2,8,8,3412,3412,0
55,2,1,3,2.6,1.52,2,0,32,2,8,8,857,857,0
56,1,2,4,2.229,3.076,2,0,1,0,NaN,NaN,NaN,NaN,NaN
56,2,2,4,1.807,1.935,2,1,2,0,NaN,NaN,NaN,NaN,NaN
56,1,1,2,1.155,8.699,2,1,3,1,7,6,920,739,1
56,1,1,2,1.605,2.531,2,1,4,1,6,7,422,116,2
56,1,2,4,2.873,2.011,2,0,5,1,8,7,272,12786,1
56,2,1,2,1.234,2.774,2,0,6,1,7,7,618,618,0
56,1,1,2,1.384,0.753,2,1,7,1,7,7,248,100,1
56,1,1,2,1.11,2.054,2,1,8,1,8,7,2183,100,1
56,1,1,2,2.15,0.773,2,1,9,1,7,6,212,298,1
56,2,1,2,0.845,0.595,2,0,10,1,9,9,120,120,0
56,2,2,4,1.812,2.054,2,1,11,1,8,8,976,976,0
56,1,1,2,1.497,1.134,2,1,12,1,8,7,162,615,1
56,2,1,2,1.532,1.212,2,0,13,1,8,8,1022,1022,0
56,1,1,2,1.511,0.977,2,1,14,1,7,7,177,177,0
56,2,1,2,1.466,0.867,2,0,15,1,9,9,2212,2212,0
56,1,1,2,2.11,0.554,2,1,16,1,8,8,328,100,1
56,2,1,2,1.728,0.632,2,0,17,1,8,8,962,962,0
56,2,1,2,1.62,2.301,2,0,18,2,8,8,104,104,0
56,1,1,2,1.687,2.971,2,1,19,2,7,7,126,126,1
56,1,1,2,2.883,2.043,2,1,20,2,9,10,653,6216,2
56,2,1,2,0.812,0.403,2,0,21,2,8,8,175,175,0
56,1,1,2,1.036,0.547,2,1,22,2,8,7,1124,100,2
56,2,1,2,1.207,0.59,2,0,23,2,8,8,857,857,0
56,2,1,2,1.064,0.481,2,0,24,2,8,8,896,896,0
56,1,1,2,2.108,1.245,2,1,25,2,9,9,707,889,1
56,1,2,4,1.622,1.241,2,0,26,2,7,6,613,408,1
56,1,1,2,1.773,0.55,2,1,27,2,8,8,248,100,2
56,2,1,2,1.787,0.493,2,0,28,2,8,8,455,455,0
56,1,1,2,1.319,0.222,2,1,29,2,8,6,1026,345,2
56,2,2,4,1.463,1.133,2,1,30,2,8,8,134,134,0
56,2,1,2,1.497,0.442,2,0,31,2,8,8,3412,3412,0
56,2,2,4,1.237,0.97,2,1,32,2,8,8,594,594,0
57,2,1,4,0.32,12.77,2,0,1,0,NaN,NaN,NaN,NaN,NaN
57,1,NaN,1,NaN,0.333,2,NaN,2,0,NaN,NaN,NaN,NaN,NaN
57,1,1,4,1.521,5.507,2,1,3,1,8,7,272,12786,1
57,2,2,2,2.633,3.183,2,1,4,1,8,8,1022,1022,0
57,1,NaN,1,NaN,3.08,2,NaN,5,1,7,7,177,177,0
57,2,2,3,2.335,2.753,2,1,6,1,8,8,962,962,0
57,1,NaN,2,NaN,0.267,2,NaN,7,1,7,6,212,298,1
57,2,2,2,1.947,1.723,2,1,8,1,8,8,976,976,0
57,1,NaN,1,NaN,0.043,2,NaN,9,1,8,7,162,615,1
57,1,1,2,1.201,1.456,2,1,10,1,8,7,2183,100,1
57,2,2,4,1.506,1.444,2,1,11,1,7,7,618,618,0
57,1,NaN,2,NaN,2.11,2,NaN,12,1,6,7,422,116,2
57,2,2,2,1.749,0.877,2,1,13,1,9,9,120,120,0
57,1,2,3,1.511,1.097,2,0,14,1,7,6,920,739,1
57,1,2,2,2.747,1.437,2,0,15,1,7,7,248,100,1
57,2,1,3,0.607,2.198,2,0,16,1,9,9,2212,2212,0
57,1,1,2,1.453,0.418,2,1,17,1,8,8,328,100,1
57,2,1,3,1.386,1.601,2,0,18,2,8,8,594,594,0
57,2,1,2,1.407,0.758,2,0,19,2,8,8,104,104,0
57,1,1,4,1.475,1.255,2,1,20,2,8,7,1124,100,2
57,2,2,4,1.152,1.409,2,1,21,2,8,8,857,857,0
57,1,1,2,1.396,1.195,2,1,22,2,8,6,1026,345,2
57,1,1,4,1.144,1.129,2,1,23,2,7,6,613,408,1
57,2,2,2,1.402,0.736,2,1,24,2,8,8,134,134,0
57,2,2,2,2.175,0.967,2,1,25,2,8,8,896,896,0
57,1,1,4,1.117,1.647,2,1,26,2,7,7,126,126,1
57,1,1,2,1.594,0.585,2,1,27,2,9,9,707,889,1
57,1,2,2,2.128,1.45,2,0,28,2,9,10,653,6216,2
57,2,1,1,1.373,1.445,2,0,29,2,8,8,175,175,0
57,2,2,2,1.677,1.017,2,1,30,2,8,8,455,455,0
57,1,2,1,1.954,0.723,2,0,31,2,8,8,248,100,2
57,2,2,2,1.895,1.131,2,1,32,2,8,8,3412,3412,0
58,2,2,4,1.413,5.705,2,1,1,0,NaN,NaN,NaN,NaN,NaN
58,1,NaN,3,NaN,5.987,2,NaN,2,0,NaN,NaN,NaN,NaN,NaN
58,1,1,3,1.944,2.057,2,1,3,1,7,7,248,100,1
58,2,2,2,1.521,2.627,2,1,4,1,8,8,1022,1022,0
58,1,2,3,2.884,1.888,2,0,5,1,7,6,212,298,1
58,2,2,3,1.234,1.439,2,1,6,1,9,9,120,120,0
58,1,1,4,1.55,2.27,2,1,7,1,8,7,162,615,1
58,1,NaN,1,NaN,0.146,2,NaN,8,1,8,7,2183,100,1
58,2,2,3,0.995,1.929,2,1,9,1,9,9,2212,2212,0
58,2,2,4,0.919,1.248,2,1,10,1,8,8,976,976,0
58,1,1,3,1.688,1.923,2,1,11,1,6,7,422,116,2
58,1,2,4,0.961,1.289,2,0,12,1,8,8,328,100,1
58,1,1,3,1.027,1.657,2,1,13,1,7,7,177,177,0
58,2,2,2,1.715,1.213,2,1,14,1,8,8,962,962,0
58,1,2,2,1.576,1.223,2,0,15,1,8,7,272,12786,1
58,2,2,3,1.536,1.313,2,1,16,1,7,7,618,618,0
58,1,2,1,2.521,1.731,2,0,17,1,7,6,920,739,1
58,2,2,2,2.712,1.307,2,1,18,2,8,8,134,134,0
58,1,1,2,2.6,1.6,2,1,19,2,7,6,613,408,1
58,1,1,3,2.194,1.353,2,1,20,2,8,8,248,100,2
58,2,2,1,1.524,1.03,2,1,21,2,8,8,594,594,0
58,2,2,4,1.006,1.492,2,1,22,2,8,8,104,104,0
58,1,1,3,1.066,1.359,2,1,23,2,9,9,707,889,1
58,1,1,2,1.29,1.349,2,1,24,2,7,7,126,126,1
58,1,1,1,1.169,0.946,2,1,25,2,8,6,1026,345,2
58,2,2,2,1.262,1.45,2,1,26,2,8,8,175,175,0
58,2,2,2,1.602,1.17,2,1,27,2,8,8,455,455,0
58,2,2,4,0.563,1.02,2,1,28,2,8,8,896,896,0
58,1,1,2,2.258,1.03,2,1,29,2,8,7,1124,100,2
58,1,1,1,1.407,1.43,2,1,30,2,9,10,653,6216,2
58,2,2,3,1.326,1.288,2,1,31,2,8,8,3412,3412,0
58,2,1,2,1.446,0.988,2,0,32,2,8,8,857,857,0
59,1,1,3,1.636,6.418,2,1,1,0,NaN,NaN,NaN,NaN,NaN
59,2,2,4,1.598,1.517,2,1,2,0,NaN,NaN,NaN,NaN,NaN
59,2,2,2,1.999,2.574,2,1,3,1,9,9,120,120,0
59,2,1,2,2.406,1.749,2,0,4,1,8,8,962,962,0
59,1,1,3,1.085,1.36,2,1,5,1,8,8,328,100,1
59,1,1,3,1.366,0.366,2,1,6,1,7,7,177,177,0
59,1,1,3,1.483,1.438,2,1,7,1,6,7,422,116,2
59,1,2,4,1.568,1.184,2,0,8,1,7,6,920,739,1
59,1,1,4,1.372,1.267,2,1,9,1,8,7,162,615,1
59,2,2,4,1.693,1.416,2,1,10,1,8,8,976,976,0
59,1,1,4,1.518,1.152,2,1,11,1,8,7,272,12786,1
59,1,1,4,1.649,0.59,2,1,12,1,7,6,212,298,1
59,1,1,4,2.803,1.697,2,1,13,1,7,7,248,100,1
59,2,1,2,1.658,1.718,2,0,14,1,7,7,618,618,0
59,2,2,3,1.501,1.872,2,1,15,1,9,9,2212,2212,0
59,2,2,2,1.329,0.459,2,1,16,1,8,8,1022,1022,0
59,1,2,2,1.094,0.649,2,0,17,1,8,7,2183,100,1
59,2,2,1,2.719,1.106,2,1,18,2,8,8,3412,3412,0
59,2,2,3,2.231,0.893,2,1,19,2,8,8,857,857,0
59,2,1,3,0.859,1.8,2,0,20,2,8,8,594,594,0
59,2,1,3,0.77,0.947,2,0,21,2,8,8,896,896,0
59,1,1,4,1.135,0.929,2,1,22,2,8,7,1124,100,2
59,2,NaN,2,NaN,0.484,2,NaN,23,2,8,8,455,455,0
59,1,2,3,0.786,2.082,2,0,24,2,9,9,707,889,1
59,1,1,4,1.025,1.431,2,1,25,2,7,7,126,126,1
59,2,1,2,1.04,1.349,2,0,26,2,8,8,104,104,0
59,1,2,2,1.409,1.576,2,0,27,2,8,8,248,100,2
59,1,1,1,1.386,1.746,2,1,28,2,8,6,1026,345,2
59,2,2,1,1.102,1.602,2,1,29,2,8,8,175,175,0
59,1,2,2,1.651,1.488,2,0,30,2,7,6,613,408,1
59,1,1,2,0.998,1.597,2,1,31,2,9,10,653,6216,2
59,2,2,2,1.759,1.128,2,1,32,2,8,8,134,134,0
60,1,1,4,2.344,7.943,2,1,1,0,NaN,NaN,NaN,NaN,NaN
60,2,NaN,2,NaN,0.041,2,NaN,2,0,NaN,NaN,NaN,NaN,NaN
60,1,NaN,1,NaN,0.293,2,NaN,3,1,6,7,422,116,2
60,1,2,3,2.772,2.852,2,0,4,1,8,7,272,12786,1
60,2,2,2,1.613,2.14,2,1,5,1,9,9,120,120,0
60,1,2,2,2.257,0.806,2,0,6,1,8,8,328,100,1
60,1,NaN,1,NaN,0.166,2,NaN,7,1,7,7,177,177,0
60,2,2,2,0.87,0.578,2,1,8,1,7,7,618,618,0
60,2,2,3,1.732,1.021,2,1,9,1,8,8,1022,1022,0
60,1,NaN,2,NaN,0.036,2,NaN,10,1,8,7,2183,100,1
60,1,2,2,0.795,0.41,2,0,11,1,7,6,920,739,1
60,1,1,2,1.124,0.646,2,1,12,1,7,6,212,298,1
60,2,2,4,0.409,0.727,2,1,13,1,8,8,976,976,0
60,1,1,2,1.811,0.489,2,1,14,1,7,7,248,100,1
60,2,2,3,0.768,0.784,2,1,15,1,8,8,962,962,0
60,2,2,3,0.728,0.634,2,1,16,1,9,9,2212,2212,0
60,1,2,2,0.893,0.793,2,0,17,1,8,7,162,615,1
60,1,1,4,1.546,1.26,2,1,18,2,7,6,613,408,1
60,1,NaN,1,NaN,2.242,2,NaN,19,2,9,10,653,6216,2
60,2,2,4,0.297,0.765,2,1,20,2,8,8,455,455,0
60,2,2,2,1.134,0.928,2,1,21,2,8,8,857,857,0
60,2,2,4,0.156,1.189,2,1,22,2,8,8,104,104,0
60,1,2,2,1.047,0.413,2,0,23,2,8,8,248,100,2
60,2,2,3,0.814,0.605,2,1,24,2,8,8,175,175,0
60,1,1,3,0.788,1.092,2,1,25,2,8,6,1026,345,2
60,2,1,3,0.857,0.662,2,0,26,2,8,8,134,134,0
60,1,2,2,1.197,1.005,2,0,27,2,9,9,707,889,1
60,2,1,2,0.951,0.96,2,0,28,2,8,8,896,896,0
60,2,NaN,2,NaN,0.05,2,NaN,29,2,8,8,594,594,0
60,1,1,3,0.77,0.739,2,1,30,2,7,7,126,126,1
60,2,2,4,0.47,0.723,2,1,31,2,8,8,3412,3412,0
60,1,2,2,1.54,0.47,2,0,32,2,8,7,1124,100,2
61,1,1,4,2.145,12.381,2,1,1,0,NaN,NaN,NaN,NaN,NaN
61,2,2,4,1.356,2.723,2,1,2,0,NaN,NaN,NaN,NaN,NaN
61,1,1,3,1.455,2.954,2,1,3,1,8,7,272,12786,1
61,1,1,2,2.216,1.61,2,1,4,1,8,8,328,100,1
61,2,2,3,2.089,2.567,2,1,5,1,8,8,962,962,0
61,2,2,2,1.283,3.276,2,1,6,1,9,9,120,120,0
61,1,1,2,1.794,2.806,2,1,7,1,8,7,162,615,1
61,2,2,1,2.373,0.515,2,1,8,1,8,8,1022,1022,0
61,2,2,2,1.862,1.955,2,1,9,1,7,7,618,618,0
61,1,1,3,1.559,0.982,2,1,10,1,7,7,177,177,0
61,2,2,2,1.786,1.248,2,1,11,1,9,9,2212,2212,0
61,2,2,4,1.165,2.074,2,1,12,1,8,8,976,976,0
61,1,1,2,2.027,2.689,2,1,13,1,7,7,248,100,1
61,1,1,3,1.585,2.348,2,1,14,1,7,6,920,739,1
61,1,1,2,1.654,1.443,2,1,15,1,7,6,212,298,1
61,1,1,2,2.92,1.521,2,1,16,1,6,7,422,116,2
61,1,1,4,2.761,1.76,2,1,17,1,8,7,2183,100,1
61,1,2,2,2.253,0.629,2,0,18,2,8,8,248,100,2
61,2,NaN,1,NaN,1.185,2,NaN,19,2,8,8,175,175,0
61,1,1,2,1.21,1.023,2,1,20,2,9,10,653,6216,2
61,2,2,2,1.33,1.065,2,1,21,2,8,8,104,104,0
61,2,2,1,1.09,1.019,2,1,22,2,8,8,134,134,0
61,1,1,2,1.288,0.747,2,1,23,2,9,9,707,889,1
61,2,2,3,1.515,1.337,2,1,24,2,8,8,896,896,0
61,1,1,4,1.624,2.299,2,1,25,2,7,6,613,408,1
61,2,2,2,2.624,0.827,2,1,26,2,8,8,857,857,0
61,2,2,2,1.451,0.295,2,1,27,2,8,8,594,594,0
61,1,1,4,1.337,1.598,2,1,28,2,7,7,126,126,1
61,1,2,2,1.75,0.294,2,0,29,2,8,7,1124,100,2
61,2,2,3,1.142,0.441,2,1,30,2,8,8,455,455,0
61,2,2,3,0.946,0.252,2,1,31,2,8,8,3412,3412,0
61,1,1,4,1.018,2.736,2,1,32,2,8,6,1026,345,2
62,2,2,4,1.768,3.359,2,1,1,0,NaN,NaN,NaN,NaN,NaN
62,1,1,4,1.713,3.416,2,1,2,0,NaN,NaN,NaN,NaN,NaN
62,2,NaN,1,NaN,16.511,2,NaN,3,1,8,8,976,976,0
62,1,2,4,2.047,2.094,2,0,4,1,7,7,177,177,0
62,2,2,3,2.486,2.572,2,1,5,1,8,8,962,962,0
62,1,2,4,2.767,4.068,2,0,6,1,6,7,422,116,2
62,1,1,2,2.393,4.354,2,1,7,1,8,7,2183,100,1
62,1,1,1,2.568,1.467,2,1,8,1,7,6,920,739,1
62,1,NaN,1,NaN,4.265,2,NaN,9,1,7,7,248,100,1
62,2,1,2,1.387,1.904,2,0,10,1,9,9,2212,2212,0
62,1,1,4,2.214,2.268,2,1,11,1,8,7,272,12786,1
62,1,2,4,1.819,1.428,2,0,12,1,8,7,162,615,1
62,1,2,3,2.347,2.819,2,0,13,1,7,6,212,298,1
62,1,1,4,1.646,3.078,2,1,14,1,8,8,328,100,1
62,2,2,4,1.661,2.106,2,1,15,1,7,7,618,618,0
62,2,2,2,1.706,2.58,2,1,16,1,9,9,120,120,0
62,2,1,1,2.108,5.062,2,0,17,1,8,8,1022,1022,0
62,1,1,4,1.909,1.908,2,1,18,2,8,7,1124,100,2
62,2,2,1,1.393,1.514,2,1,19,2,8,8,857,857,0
62,2,2,4,1.62,1.311,2,1,20,2,8,8,104,104,0
62,2,2,3,1.318,2.452,2,1,21,2,8,8,455,455,0
62,1,1,2,1.269,2.375,2,1,22,2,9,9,707,889,1
62,2,2,4,1.237,1.556,2,1,23,2,8,8,3412,3412,0
62,1,1,3,1.353,2.218,2,1,24,2,9,10,653,6216,2
62,2,2,2,1.387,1.548,2,1,25,2,8,8,134,134,0
62,1,1,3,1.306,2.063,2,1,26,2,8,6,1026,345,2
62,2,1,2,2.427,2.105,2,0,27,2,8,8,594,594,0
62,2,2,1,1.571,1.273,2,1,28,2,8,8,175,175,0
62,1,1,4,1.929,1.833,2,1,29,2,7,7,126,126,1
62,1,1,2,1.82,1.981,2,1,30,2,8,8,248,100,2
62,1,1,4,2.411,1.832,2,1,31,2,7,6,613,408,1
62,2,2,4,1.424,1.276,2,1,32,2,8,8,896,896,0
63,1,1,1,1.643,4.44,2,1,1,0,NaN,NaN,NaN,NaN,NaN
63,2,2,4,0.871,1.217,2,1,2,0,NaN,NaN,NaN,NaN,NaN
63,1,2,4,0.723,1.551,2,0,3,1,7,6,212,298,1
63,1,2,4,1.287,1.588,2,0,4,1,8,7,162,615,1
63,2,1,3,0.766,2.452,2,0,5,1,9,9,120,120,0
63,2,2,4,0.47,0.61,2,1,6,1,8,8,962,962,0
63,1,2,3,0.614,1.243,2,0,7,1,7,6,920,739,1
63,1,2,3,1.054,1.312,2,0,8,1,8,8,328,100,1
63,2,1,3,1.191,0.882,2,0,9,1,9,9,2212,2212,0
63,2,2,3,1.28,1.479,2,1,10,1,8,8,1022,1022,0
63,1,1,3,1.745,0.926,2,1,11,1,7,7,248,100,1
63,2,2,3,2.371,1.786,2,1,12,1,7,7,618,618,0
63,1,1,3,1.143,1.238,2,1,13,1,8,7,2183,100,1
63,1,1,4,0.791,0.33,2,1,14,1,6,7,422,116,2
63,2,2,4,0.523,0.338,2,1,15,1,8,8,976,976,0
63,1,1,4,1.082,0.771,2,1,16,1,7,7,177,177,0
63,1,1,3,2.266,0.795,2,1,17,1,8,7,272,12786,1
63,1,2,3,2.541,1.592,2,0,18,2,8,6,1026,345,2
63,1,2,3,2.23,1.558,2,0,19,2,8,7,1124,100,2
63,2,2,4,0.494,0.215,2,1,20,2,8,8,455,455,0
63,2,2,3,1.864,0.494,2,1,21,2,8,8,175,175,0
63,2,1,3,1.957,0.802,2,0,22,2,8,8,3412,3412,0
63,2,1,3,1.237,0.996,2,0,23,2,8,8,134,134,0
63,1,1,4,2.973,0.486,2,1,24,2,8,8,248,100,2
63,1,2,4,0.844,0.372,2,0,25,2,7,6,613,408,1
63,1,1,4,1.517,0.418,2,1,26,2,7,7,126,126,1
63,1,1,4,1.079,0.689,2,1,27,2,9,10,653,6216,2
63,1,2,3,2.11,0.924,2,0,28,2,9,9,707,889,1
63,2,2,3,1.243,1.869,2,1,29,2,8,8,857,857,0
63,2,1,4,0.962,0.492,2,0,30,2,8,8,896,896,0
63,2,1,3,2.744,0.766,2,0,31,2,8,8,594,594,0
63,2,2,3,2.182,1.442,2,1,32,2,8,8,104,104,0
64,2,2,4,1.495,3.007,2,1,1,0,NaN,NaN,NaN,NaN,NaN
64,1,NaN,1,NaN,0.615,2,NaN,2,0,NaN,NaN,NaN,NaN,NaN
64,1,2,3,1.47,1.869,2,0,3,1,7,6,212,298,1
64,1,1,3,1.108,3.841,2,1,4,1,8,7,2183,100,1
64,2,2,2,1.07,1.249,2,1,5,1,8,8,962,962,0
64,1,2,3,0.983,1.923,2,0,6,1,7,6,920,739,1
64,2,2,3,0.95,2.891,2,1,7,1,7,7,618,618,0
64,1,1,3,1.17,2.605,2,1,8,1,7,7,177,177,0
64,2,NaN,2,NaN,0.553,2,NaN,9,1,9,9,2212,2212,0
64,2,2,2,0.871,1.056,2,1,10,1,9,9,120,120,0
64,2,2,3,1.069,1.325,2,1,11,1,8,8,1022,1022,0
64,1,1,3,1.885,1.641,2,1,12,1,8,7,162,615,1
64,1,1,3,1.148,2.268,2,1,13,1,7,7,248,100,1
64,1,1,3,2.421,1.986,2,1,14,1,6,7,422,116,2
64,1,1,2,1.608,2.804,2,1,15,1,8,8,328,100,1
64,1,1,4,1.342,2.572,2,1,16,1,8,7,272,12786,1
64,2,2,4,1.107,1.254,2,1,17,1,8,8,976,976,0
64,2,2,1,1.762,1.025,2,1,18,2,8,8,594,594,0
64,1,2,3,1.226,2.225,2,0,19,2,8,6,1026,345,2
64,1,1,1,2.085,1.132,2,1,20,2,9,9,707,889,1
64,2,2,3,0.907,1.098,2,1,21,2,8,8,455,455,0
64,1,1,3,1.332,0.957,2,1,22,2,8,8,248,100,2
64,2,2,3,0.761,0.87,2,1,23,2,8,8,896,896,0
64,2,2,3,0.678,1.18,2,1,24,2,8,8,857,857,0
64,1,2,3,1.02,0.978,2,0,25,2,8,7,1124,100,2
64,2,2,1,0.725,1.838,2,1,26,2,8,8,3412,3412,0
64,2,2,4,0.641,1.021,2,1,27,2,8,8,104,104,0
64,1,1,4,1.029,1.258,2,1,28,2,7,7,126,126,1
64,2,1,1,1.383,1.051,2,0,29,2,8,8,134,134,0
64,1,1,1,1.182,0.602,2,1,30,2,9,10,653,6216,2
64,2,2,2,0.679,1.724,2,1,31,2,8,8,175,175,0
64,1,2,4,1.613,2.85,2,0,32,2,7,6,613,408,1
65,1,2,4,1.741,4.946,2,0,1,0,NaN,NaN,NaN,NaN,NaN
65,2,2,4,0.819,3.043,2,1,2,0,NaN,NaN,NaN,NaN,NaN
65,1,2,2,1.188,5.214,2,0,3,1,7,6,920,739,1
65,2,2,1,0.98,3.174,2,1,4,1,8,8,1022,1022,0
65,1,1,4,0.973,5.138,2,1,5,1,8,7,272,12786,1
65,1,1,4,0.861,2.737,2,1,6,1,7,7,177,177,0
65,2,2,3,1.305,7.385,2,1,7,1,7,7,618,618,0
65,2,2,2,1.067,2.648,2,1,8,1,9,9,120,120,0
65,1,2,2,1.065,3.807,2,0,9,1,8,8,328,100,1
65,1,1,2,0.877,7.587,2,1,10,1,8,7,162,615,1
65,1,1,3,0.992,3.999,2,1,11,1,7,7,248,100,1
65,1,1,4,1.816,5.882,2,1,12,1,8,7,2183,100,1
65,1,1,2,1.501,1.522,2,1,13,1,7,6,212,298,1
65,2,1,2,1.825,9.952,2,0,14,1,8,8,962,962,0
65,2,2,3,1.033,2.822,2,1,15,1,9,9,2212,2212,0
65,2,2,4,0.491,0.96,2,1,16,1,8,8,976,976,0
65,1,1,4,1.46,0.805,2,1,17,1,6,7,422,116,2
65,1,1,2,1.501,0.677,2,1,18,2,8,8,248,100,2
65,1,1,3,0.885,2.059,2,1,19,2,8,6,1026,345,2
65,2,2,4,1.87,4.703,2,1,20,2,8,8,104,104,0
65,2,2,1,1.273,8.847,2,1,21,2,8,8,134,134,0
65,2,2,3,2.348,2.23,2,1,22,2,8,8,896,896,0
65,1,1,2,2.017,6.356,2,1,23,2,9,10,653,6216,2
65,2,1,2,1.952,1.784,2,0,24,2,8,8,455,455,0
65,2,1,2,1.389,0.998,2,0,25,2,8,8,3412,3412,0
65,1,1,4,1.269,1.469,2,1,26,2,7,6,613,408,1
65,1,2,2,1.708,1.868,2,0,27,2,9,9,707,889,1
65,2,1,2,1.234,2.256,2,0,28,2,8,8,857,857,0
65,1,1,4,1.278,1.161,2,1,29,2,7,7,126,126,1
65,1,1,4,1.166,0.701,2,1,30,2,8,7,1124,100,2
65,2,2,2,1.391,1.83,2,1,31,2,8,8,175,175,0
65,2,1,3,1.347,1.282,2,0,32,2,8,8,594,594,0
66,1,1,4,1.08,3.274,2,1,1,0,NaN,NaN,NaN,NaN,NaN
66,2,2,4,0.864,1.101,2,1,2,0,NaN,NaN,NaN,NaN,NaN
66,2,2,3,1.381,3.293,2,1,3,1,8,8,1022,1022,0
66,2,1,1,2.39,1.974,2,0,4,1,7,7,618,618,0
66,1,1,4,1.248,1.501,2,1,5,1,7,6,920,739,1
66,2,2,3,1.132,1.837,2,1,6,1,9,9,2212,2212,0
66,1,1,2,0.863,2.49,2,1,7,1,8,8,328,100,1
66,1,1,4,0.704,1.363,2,1,8,1,8,7,162,615,1
66,1,1,3,1.671,1.731,2,1,9,1,8,7,272,12786,1
66,1,1,4,0.906,0.725,2,1,10,1,7,7,177,177,0
66,2,2,4,0.561,0.874,2,1,11,1,8,8,976,976,0
66,2,1,2,1.345,0.971,2,0,12,1,9,9,120,120,0
66,1,1,4,0.622,0.548,2,1,13,1,8,7,2183,100,1
66,1,1,3,0.699,1.694,2,1,14,1,7,6,212,298,1
66,1,1,3,0.773,0.709,2,1,15,1,6,7,422,116,2
66,2,2,2,1.347,1.5,2,1,16,1,8,8,962,962,0
66,1,1,4,0.6,1.166,2,1,17,1,7,7,248,100,1
66,2,2,4,0.611,1.13,2,1,18,2,8,8,594,594,0
66,1,1,4,0.582,0.908,2,1,19,2,7,7,126,126,1
66,1,1,3,0.609,1.096,2,1,20,2,8,6,1026,345,2
66,1,2,3,0.883,1.567,2,0,21,2,8,8,248,100,2
66,2,2,2,1.001,0.432,2,1,22,2,8,8,857,857,0
66,1,1,4,1.466,2.079,2,1,23,2,8,7,1124,100,2
66,2,2,3,0.535,0.817,2,1,24,2,8,8,896,896,0
66,2,2,3,0.667,1.184,2,1,25,2,8,8,3412,3412,0
66,2,1,2,0.687,1.379,2,0,26,2,8,8,175,175,0
66,1,1,4,0.652,1.473,2,1,27,2,7,6,613,408,1
66,2,2,3,0.997,0.796,2,1,28,2,8,8,104,104,0
66,2,2,2,0.654,1.444,2,1,29,2,8,8,134,134,0
66,1,1,3,0.827,1.737,2,1,30,2,9,9,707,889,1
66,2,2,2,1.781,1.149,2,1,31,2,8,8,455,455,0
66,1,1,3,0.719,1.154,2,1,32,2,9,10,653,6216,2
67,1,1,NaN,1.293,NaN,3,1,1,0,NaN,NaN,NaN,NaN,NaN
67,2,1,4,0.537,0.827,3,0,2,0,NaN,NaN,NaN,NaN,NaN
67,2,2,3,1.211,2.928,3,1,3,1,9,9,707,707,0
67,1,2,4,0.969,2.427,3,0,4,1,8,7,104,100,1
67,2,2,NaN,1.143,NaN,3,1,5,1,7,7,613,613,0
67,2,2,3,1.369,1.379,3,1,6,1,8,8,162,162,0
67,1,1,NaN,0.897,NaN,3,1,7,1,8,9,3412,100,1
67,2,1,2,1.134,1.783,3,0,8,1,8,8,248,248,0
67,2,NaN,2,NaN,2.173,3,NaN,9,1,8,8,1124,1124,0
67,1,1,2,1.15,2.316,3,1,10,1,7,7,177,236,1
67,2,2,4,1.103,1.217,3,1,11,1,7,7,126,126,0
67,1,1,2,1.057,2.803,3,1,12,1,8,7,857,227,1
67,1,2,3,0.814,2.649,3,0,13,1,8,7,272,12786,0
67,1,1,2,0.722,2.287,3,1,14,1,8,7,1022,556,1
67,1,1,4,0.742,2.391,3,1,15,1,8,7,134,196,1
67,1,1,4,1.047,2.058,3,1,16,1,7,7,618,1644,1
67,1,1,NaN,0.757,NaN,3,1,17,1,8,8,594,100,1
67,2,2,3,0.707,2.471,3,1,18,2,8,8,2183,2183,0
67,1,1,3,1.043,2.121,3,1,19,2,8,6,175,160,2
67,1,1,4,0.78,1.564,3,1,20,2,8,7,962,408,2
67,1,2,NaN,0.15,NaN,3,0,21,2,9,9,2212,100,2
67,2,1,2,0.485,1.89,3,0,22,2,8,8,328,328,0
67,2,2,3,0.795,1.779,3,1,23,2,8,8,1026,1026,0
67,1,1,4,1.133,1.564,3,1,24,2,8,6,896,100,2
67,1,1,2,0.847,2.034,3,1,25,2,8,7,976,283,2
67,2,2,4,1.067,0.896,3,1,26,2,7,7,212,212,0
67,1,1,2,0.86,1.747,3,1,27,2,9,9,120,1042,1
67,2,2,2,0.933,1.756,3,1,28,2,9,9,653,653,0
67,1,1,4,0.93,1.57,3,1,29,2,8,6,455,457,2
67,2,2,3,0.775,2.175,3,1,30,2,7,7,248,248,0
67,2,2,3,0.877,2.281,3,1,31,2,7,7,920,920,0
67,2,2,3,0.957,1.964,3,1,32,2,6,6,422,422,0
68,2,2,4,2.965,2.24,3,1,1,0,NaN,NaN,NaN,NaN,NaN
68,1,1,4,1.612,1.296,3,1,2,0,NaN,NaN,NaN,NaN,NaN
68,1,1,4,0.834,2.87,3,1,3,1,7,7,618,1644,1
68,2,2,NaN,2.033,NaN,3,1,4,1,9,9,707,707,0
68,2,2,4,0.933,0.857,3,1,5,1,8,8,162,162,0
68,1,1,2,0.969,1.162,3,1,6,1,8,8,594,100,1
68,1,1,4,1.008,1.184,3,1,7,1,8,7,272,12786,0
68,2,2,4,0.806,0.44,3,1,8,1,8,8,1124,1124,0
68,2,2,4,0.83,0.632,3,1,9,1,7,7,613,613,0
68,2,2,2,1.052,1.263,3,1,10,1,7,7,126,126,0
68,2,2,4,0.638,0.465,3,1,11,1,8,8,248,248,0
68,1,1,3,0.873,1.494,3,1,12,1,8,7,857,227,1
68,1,1,3,0.807,1.192,3,1,13,1,8,7,1022,556,1
68,1,1,3,0.797,1.065,3,1,14,1,8,7,134,196,1
68,1,1,3,0.899,1.488,3,1,15,1,8,9,3412,100,1
68,1,2,2,0.818,1.153,3,0,16,1,7,7,177,236,1
68,1,1,2,0.834,1.22,3,1,17,1,8,7,104,100,1
68,1,1,3,0.84,1.293,3,1,18,2,8,7,962,408,2
68,2,2,2,0.884,1.705,3,1,19,2,6,6,422,422,0
68,2,2,3,0.854,1.49,3,1,20,2,9,9,653,653,0
68,2,2,3,0.666,1.045,3,1,21,2,8,8,2183,2183,0
68,1,2,2,0.961,1.986,3,0,22,2,9,9,120,1042,1
68,1,1,3,0.753,1.085,3,1,23,2,8,6,175,160,2
68,1,2,3,0.695,1.108,3,0,24,2,9,9,2212,100,2
68,1,1,3,0.686,1.117,3,1,25,2,8,7,976,283,2
68,1,1,3,2.082,1.253,3,1,26,2,8,6,896,100,2
68,2,2,3,0.724,1.089,3,1,27,2,7,7,920,920,0
68,2,1,2,0.646,1.274,3,0,28,2,7,7,212,212,0
68,2,2,3,0.581,1.006,3,1,29,2,7,7,248,248,0
68,1,1,4,0.879,1.567,3,1,30,2,8,6,455,457,2
68,2,2,2,0.511,1.151,3,1,31,2,8,8,328,328,0
68,2,2,3,0.455,0.925,3,1,32,2,8,8,1026,1026,0
69,2,2,NaN,2.494,NaN,3,1,1,0,NaN,NaN,NaN,NaN,NaN
69,1,NaN,4,NaN,2.658,3,NaN,2,0,NaN,NaN,NaN,NaN,NaN
69,2,2,4,1.445,0.018,3,1,3,1,8,8,162,162,0
69,2,2,4,1.405,1.017,3,1,4,1,8,8,1124,1124,0
69,1,2,3,1.127,1.043,3,0,5,1,8,7,104,100,1
69,2,2,4,1.048,0.713,3,1,6,1,8,8,248,248,0
69,2,1,2,1.005,1.076,3,0,7,1,9,9,707,707,0
69,1,1,1,0.851,1.526,3,1,8,1,7,7,618,1644,1
69,1,1,2,0.738,0.978,3,1,9,1,7,7,177,236,1
69,1,1,4,0.749,1.657,3,1,10,1,8,7,134,196,1
69,1,1,4,0.507,1.348,3,1,11,1,8,7,857,227,1
69,2,2,4,0.752,0.342,3,1,12,1,7,7,613,613,0
69,1,2,3,0.937,1.135,3,0,13,1,8,9,3412,100,1
69,2,2,4,0.746,0.921,3,1,14,1,7,7,126,126,0
69,1,1,4,0.544,0.596,3,1,15,1,8,7,272,12786,0
69,1,2,2,1.208,0.851,3,0,16,1,8,7,1022,556,1
69,1,1,3,0.711,1.141,3,1,17,1,8,8,594,100,1
69,2,2,4,0.641,0.806,3,1,18,2,6,6,422,422,0
69,1,1,4,0.423,0.908,3,1,19,2,8,7,976,283,2
69,2,2,4,0.739,1.046,3,1,20,2,8,8,328,328,0
69,2,2,3,0.899,0.869,3,1,21,2,7,7,212,212,0
69,1,1,4,0.66,0.994,3,1,22,2,8,7,962,408,2
69,2,2,3,0.936,1.028,3,1,23,2,8,8,1026,1026,0
69,1,1,2,1.362,0.867,3,1,24,2,9,9,2212,100,2
69,2,2,2,0.871,1.092,3,1,25,2,7,7,248,248,0
69,1,1,1,0.852,1.411,3,1,26,2,9,9,120,1042,1
69,1,1,4,0.55,1.602,3,1,27,2,8,6,896,100,2
69,1,2,3,0.777,1.097,3,0,28,2,8,6,455,457,2
69,2,1,3,0.633,1.457,3,0,29,2,9,9,653,653,0
69,2,2,4,0.711,0.826,3,1,30,2,7,7,920,920,0
69,2,1,3,0.623,1.497,3,0,31,2,8,8,2183,2183,0
69,1,1,4,1.818,1.375,3,1,32,2,8,6,175,160,2
70,2,2,NaN,1.824,NaN,3,1,1,0,NaN,NaN,NaN,NaN,NaN
70,1,1,NaN,2.126,NaN,3,1,2,0,NaN,NaN,NaN,NaN,NaN
70,2,2,4,0.558,1.715,3,1,3,1,8,8,248,248,0
70,1,2,NaN,2.071,NaN,3,0,4,1,7,7,177,236,1
70,1,1,NaN,1.254,NaN,3,1,5,1,8,7,134,196,1
70,1,2,4,0.676,1.638,3,0,6,1,8,7,857,227,1
70,1,2,4,0.279,1.415,3,0,7,1,8,9,3412,100,1
70,2,2,2,0.477,1.686,3,1,8,1,9,9,707,707,0
70,2,2,3,1.061,1.349,3,1,9,1,8,8,1124,1124,0
70,2,2,4,1.405,0.075,3,1,10,1,7,7,613,613,0
70,2,2,2,1.524,1.21,3,1,11,1,8,8,162,162,0
70,1,2,3,2.232,2.847,3,0,12,1,7,7,618,1644,1
70,1,2,2,1.056,2.611,3,0,13,1,8,7,1022,556,1
70,2,2,3,0.861,1.578,3,1,14,1,7,7,126,126,0
70,1,1,NaN,1.551,NaN,3,1,15,1,8,7,272,12786,0
70,1,2,NaN,2.293,NaN,3,0,16,1,8,8,594,100,1
70,1,1,4,1.171,1.426,3,1,17,1,8,7,104,100,1
70,2,1,NaN,1.382,NaN,3,0,18,2,8,8,328,328,0
70,1,1,3,1.133,1.493,3,1,19,2,8,6,896,100,2
70,1,1,3,1.604,1.729,3,1,20,2,8,6,175,160,2
70,1,1,2,0.904,1.499,3,1,21,2,8,7,962,408,2
70,2,2,4,0.472,0.014,3,1,22,2,7,7,248,248,0
70,2,1,NaN,0.047,NaN,3,0,23,2,9,9,653,653,0
70,1,2,2,0.704,1.977,3,0,24,2,9,9,120,1042,1
70,1,1,4,0.945,1.352,3,1,25,2,8,7,976,283,2
70,1,1,3,0.717,1.608,3,1,26,2,8,6,455,457,2
70,2,2,3,0.637,1.338,3,1,27,2,8,8,1026,1026,0
70,1,2,2,0.793,1.655,3,0,28,2,9,9,2212,100,2
70,2,2,3,0.703,1.527,3,1,29,2,7,7,920,920,0
70,2,2,NaN,0.445,NaN,3,1,30,2,6,6,422,422,0
70,2,2,3,0.276,1.529,3,1,31,2,8,8,2183,2183,0
70,2,2,2,1.178,1.466,3,1,32,2,7,7,212,212,0
71,1,1,4,2.696,2.393,3,1,1,0,NaN,NaN,NaN,NaN,NaN
71,2,2,4,0.884,1.038,3,1,2,0,NaN,NaN,NaN,NaN,NaN
71,1,2,3,1.085,1.582,3,0,3,1,8,9,3412,100,1
71,1,1,4,1.229,1.999,3,1,4,1,7,7,618,1644,1
71,1,1,4,0.786,1.272,3,1,5,1,8,7,104,100,1
71,1,1,4,1.032,1.344,3,1,6,1,8,7,272,12786,0
71,2,2,4,0.95,0.558,3,1,7,1,8,8,162,162,0
71,1,1,2,1.296,2.419,3,1,8,1,8,8,594,100,1
71,2,2,4,0.6,0.543,3,1,9,1,7,7,126,126,0
71,2,2,4,0.667,0.563,3,1,10,1,8,8,1124,1124,0
71,1,1,4,0.769,0.819,3,1,11,1,8,7,134,196,1
71,1,2,2,1.522,2.037,3,0,12,1,8,7,1022,556,1
71,1,2,3,1.914,2.311,3,0,13,1,8,7,857,227,1
