Subj_idx,Stimulus,Response,Confidence,Awareness,RT_dec,RT_conf,RT_aware,Trial_count,Block_count,Accuracy
ab,2,1,1,2,3.28144930069,0.763834319654,0.952956132816,0,0,0
ab,1,1,1,1,0.599596590851,0.46993238912,1.47052837821,1,0,1
ab,1,1,1,1,0.423074864777,1.1224734471100002,1.09417782574,2,0,1
ab,1,2,1,1,0.5172215050419999,4.51666286153,0.658875944564,3,0,0
ab,2,1,1,2,1.37596785663,1.77573100102,0.576493158638,4,0,0
ab,2,2,1,1,1.5641429403600002,0.6346005544860001,2.6113866255900002,5,0,1
ab,1,1,1,1,2.45819009511,1.49340850701,1.34120798672,6,0,1
ab,2,2,2,2,3.3051745173900002,1.09344515957,0.376581555987,7,0,1
ab,1,1,1,1,0.681861949985,2.5873945998299996,3.0469618609299998,8,0,1
ab,2,1,1,2,2.72851388119,0.717774142466,0.328933999599,9,0,0
ab,1,1,1,2,1.4465328873899999,0.375765343542,0.364835411916,10,0,1
ab,2,1,1,2,1.04587152431,1.0822957746,0.847086448832,11,0,0
ab,2,2,1,1,0.846574391026,0.587575167583,1.08237508581,12,0,1
ab,1,1,2,1,0.752403495391,3.0344564852900002,0.376622366608,13,0,1
ab,2,1,1,2,1.9994144060699999,0.5639650676479999,0.553040526102,14,0,0
ab,1,1,2,2,3.54049279981,0.5758143932909999,3.38808707139,15,0,1
ab,1,1,2,1,0.893627883357,0.940477322578,1.2588456061,16,0,1
ab,2,2,1,2,1.5288844878499999,0.505195076699,0.30597763962900004,17,0,1
ab,2,2,1,1,0.541227776017,0.44633961444700004,2.41116547822,18,0,1
ab,1,1,1,1,1.32883851814,0.928735798578,1.96470381691,19,0,1
ab,1,1,1,1,0.528942238725,1.0111120394,0.48241812946400003,20,0,1
ab,2,1,2,2,1.74062693586,3.69319305773,0.247122562385,21,0,0
ab,1,1,2,1,0.646685118714,0.71677004716,0.376571160828,22,0,1
ab,1,1,1,1,0.399530215838,1.5992897411700002,9.41115354304,23,0,1
ab,2,1,2,2,0.999490637234,0.35227883049099995,2.91749324218,24,0,0
ab,1,1,1,1,0.846788069284,0.705294947222,7.64633322335,25,0,1
ab,2,2,2,2,0.6936057840209999,0.528762055977,0.529525137612,26,0,1
ab,2,2,2,2,0.564204541299,1.28168800433,0.35306847752899995,27,0,1
ab,2,2,2,1,0.6582125794520001,3.84629449176,0.647154825874,28,0,1
ab,1,1,1,1,0.49423318958400003,0.434525324339,1.3641458664,29,0,1
ab,1,1,2,2,0.987872315114,1.21087926485,0.8823937970919999,30,0,1
ab,1,1,2,1,0.670093475575,3.4691092465699995,0.447146971756,31,0,1
ab,2,2,1,2,0.775984719887,0.799176703447,0.847103004086,32,0,1
ab,2,2,1,2,0.505195846712,1.3758061541600002,0.7885097308319999,33,0,1
ab,2,2,2,2,0.552376390977,0.458294816704,0.905875690074,34,0,1
ab,1,1,2,1,0.646467205392,1.1051836035200002,0.8707261942219999,35,0,1
ab,2,1,1,2,3.6345997844699998,0.410372366126,0.411882359147,36,0,0
ab,1,1,2,2,0.811299383258,0.364036524736,2.1882070392200004,37,0,1
ab,2,1,2,2,0.8348317120090001,1.58681324097,1.811675919,38,0,0
ab,1,1,1,2,1.07010879881,0.49339272177199994,1.12947439384,39,0,1
ab,2,2,1,2,0.893655988786,0.587495086362,0.564824400748,40,0,1
ab,2,1,1,2,1.22232972442,0.658774688021,0.235453804493,41,0,0
ab,1,2,1,2,0.634755711852,0.611481337033,0.21186680491,42,0,0
ab,1,1,1,1,0.858290504639,0.411100027221,0.635356321007,43,0,1
ab,1,1,1,1,0.55243491187,0.340514591144,0.458046487918,44,0,1
ab,2,1,2,2,0.42312761058,0.411098487197,3.0586891397200002,45,0,0
ab,1,1,2,1,0.599551545163,3.9167301605500002,0.32948571300900004,46,0,1
ab,2,1,2,2,0.670065370146,1.50516504624,0.517791313729,47,0,0
ab,1,1,2,2,0.517264240692,0.905115303483,1.05882697182,48,0,1
ab,2,1,1,2,1.35244823307,0.44634962460100003,0.129503654283,49,0,0
ab,2,1,1,2,0.48166082291900003,0.25796201763099996,0.670642493944,0,1,0
ab,2,1,1,2,0.8465767010619999,0.952226161688,0.42361464300499996,1,1,0
ab,2,2,1,1,0.705421229148,0.446454731202,1.3058656029200002,2,1,1
ab,1,1,1,2,1.5633105576700002,1.1881839388600002,1.2002038221100002,3,1,1
ab,1,1,2,1,0.5877584303760001,0.822823378941,0.60011095869,4,1,1
ab,1,1,2,2,0.48186487603,0.30527846897,1.44706381049,5,1,1
ab,2,1,1,2,0.364240192841,0.24641992667100002,0.670637103864,6,1,0
ab,1,1,1,1,0.447066505529,0.740591515318,1.1053876566299998,7,1,1
ab,1,1,2,2,1.10538226655,0.446388895198,2.69404084065,8,1,1
ab,2,2,1,1,1.03417697103,0.411718346646,3.61157912852,9,1,1
ab,2,2,1,1,0.5759841808789999,0.575117917671,2.6940766462,10,1,1
ab,2,2,1,1,0.434870289597,0.36405539002400006,1.4000068531099998,11,1,1
ab,1,1,2,2,0.45835526262599996,0.445750940473,3.5409709770999998,12,1,1
ab,1,1,2,1,0.7524928167530001,0.8100315589329999,0.871271362532,13,1,1
ab,2,2,1,1,0.800679766364,0.340464925388,0.305948764189,14,1,1
ab,2,2,1,1,0.5531233023650001,0.8112574176189999,6.02262063485,15,1,1
ab,1,1,1,1,0.446605653504,0.858176157895,8.8229388807,16,1,1
ab,1,1,2,2,0.42311067032300004,0.52877399116,3.64686684148,17,1,1
ab,1,1,1,2,1.32899136547,0.540350732646,0.35302997694300003,18,1,1
ab,2,2,1,1,0.481906841669,0.493429682336,1.3058733030399998,19,1,1
ab,2,2,1,1,0.693752856261,0.458117714004,12.6931645673,20,1,1
ab,2,1,1,2,0.893622493275,0.540446599109,0.447147356761,21,1,0
ab,1,2,1,2,0.893620953251,0.74048409868,0.282452240985,22,1,0
ab,1,2,1,2,1.50537102438,0.540456224255,0.317749579093,23,1,0
ab,2,2,1,2,0.552824152805,0.3169761023,0.587955553383,24,1,1
ab,1,1,1,2,0.799025396142,0.411585904627,0.353015346718,25,1,1
ab,1,2,1,2,0.576044626801,0.8933999598829999,1.2470640414899998,26,1,0
ab,2,1,1,2,0.752406960444,0.35225419011500003,0.283487136761,27,1,0
ab,1,1,2,1,0.529151296911,0.528525662374,0.776547213463,28,1,1
ab,2,2,1,1,0.364912028082,0.5287181653090001,1.44644895611,29,1,1
ab,1,1,2,1,0.552481112574,1.22281675684,0.435373877275,30,1,1
ab,2,2,2,1,0.6817899538869999,0.8934858161920001,0.623667542812,31,1,1
ab,2,2,1,1,0.44657870309299996,0.246366795862,0.458901200947,32,1,1
ab,1,1,2,1,0.823157949042,1.1991619962200002,0.964718062127,33,1,1
ab,2,2,1,1,0.564268067266,0.328716086276,0.435340381764,34,1,1
ab,2,2,2,2,0.41132679567599995,1.23479120939,0.858885338706,35,1,1
ab,2,2,2,1,0.37604986288000003,0.55226435427,0.482388099006,36,1,1
ab,1,2,1,1,0.38779831698600004,0.222869502646,3.24685421329,37,1,0
ab,1,1,1,2,0.7053654032969999,0.246392591256,0.34129538304799995,38,1,1
ab,1,1,1,1,0.470116036919,1.0581566766,0.964714597074,39,1,1
ab,1,1,2,1,0.623030358098,0.7993249307089999,0.317777299515,40,1,1
ab,2,2,2,2,0.446589868263,0.634581304192,1.6233191125,41,1,1
ab,1,1,1,2,1.6573517063299998,0.8470541083409999,0.035972253395800007,42,1,1
ab,2,2,2,1,0.564203001275,0.587601347983,0.20014145115600002,43,1,1
ab,1,1,1,1,0.705353468114,0.422895837046,0.27070378688,44,1,1
ab,2,2,2,2,0.5642515120139999,1.3639918640600002,0.600057057871,45,1,1
ab,2,2,1,1,0.705404288889,0.681008391974,0.306006900075,46,1,1
ab,1,1,1,1,0.43474978276,0.517132953693,3.58802061937,47,1,1
ab,1,1,2,1,0.564255362073,1.0463316063299999,0.164812927573,48,1,1
ab,2,2,1,1,0.35259607532700005,0.458007987332,0.600073998128,49,1,1
ab,1,1,2,2,0.5522304737529999,0.399072058854,0.47073512635700004,0,2,1
ab,2,2,2,2,2.68172835295,1.19932947378,0.44712233137900004,1,2,1
ab,2,2,1,1,0.469094231343,0.5533958865199999,0.623574756397,2,2,1
ab,1,1,1,1,0.41128560005000003,1.5992670258300001,0.882389562028,3,2,1
ab,1,1,1,2,0.7641661947130001,0.528743190691,0.7295091213670001,4,2,1
ab,2,2,1,2,0.9177481160700001,0.622872120686,0.422916627365,5,2,1
ab,1,1,1,2,0.328959794992,0.434722447342,0.258914522152,6,2,1
ab,1,1,1,1,0.599749053175,1.2931453940000002,0.494200849093,7,2,1
ab,2,2,1,1,0.434897625015,0.72876875508,0.529380760408,8,2,1
ab,2,2,2,1,0.43481600376999996,1.3992922822100002,2.41166367581,9,2,1
ab,2,2,1,2,1.7171257925799999,0.8581803929590001,2.34211544555,10,2,1
ab,1,1,2,1,0.6930644657680001,1.03493081252,1.00027720422,11,2,1
ab,1,1,2,2,0.799690686283,1.0703032267700001,0.340581197161,12,2,1
ab,2,1,1,2,0.7750106550370001,0.388271874204,0.388450516928,13,2,0
ab,2,1,1,2,2.05835225958,0.59910339833,3.4694657620099996,14,2,0
ab,1,1,1,1,0.846792304348,0.810699929121,0.25902848389000005,15,2,1
ab,1,2,2,2,0.30568580518000005,0.457169059542,1.9530088786200002,16,2,0
ab,1,2,1,2,0.540698777953,0.387543828107,1.4588700154700003,17,2,0
ab,2,2,2,2,0.35252792928800003,0.293461868825,1.37650686485,18,2,1
ab,2,2,2,1,0.622283831717,0.541451079422,0.295109693947,19,2,1
ab,1,2,1,2,0.5533643160399999,0.610274343631,1.50588115716,20,2,0
ab,1,1,2,2,0.505412220009,0.434676631645,1.4235222416,21,2,1
ab,2,1,1,2,1.15324696625,0.352325031196,0.5403349474069999,22,2,0
ab,2,2,2,2,0.35266075631300003,0.45795331649800003,0.588308218757,23,2,1
ab,1,1,1,1,0.4936372005,0.5286496342629999,0.859390081401,24,2,1
ab,1,1,1,1,0.49353902400300004,0.646442565017,0.270786948147,25,2,1
ab,2,1,2,2,0.575234959457,0.482419669486,2.6704696263099996,26,2,0
ab,2,2,1,1,0.446579088097,0.728744499711,2.51757725047,27,2,1
ab,1,1,1,2,1.0819665945799999,0.39918140052,0.399931006948,28,2,1
ab,2,2,1,2,0.764236265783,0.434568444996,0.717712926533,29,2,1
ab,2,1,2,2,3.6581829339999996,0.575755102387,1.17649439066,30,2,0
ab,1,1,1,2,0.764189680071,1.0933550682,0.823652681585,31,2,1
ab,1,1,1,2,0.424005038958,0.375772658654,0.669687679389,32,2,1
ab,1,1,2,1,0.599593510804,2.81071571436,0.29269224209399997,33,2,1
ab,2,2,1,1,0.822840319201,0.375737623121,3.56476279981,34,2,1
ab,1,1,2,2,1.09365806782,0.646367873878,1.16467779051,35,2,1
ab,1,1,2,2,0.387914203751,0.35216217371299996,3.5998360645,36,2,1
ab,2,2,2,2,0.458433033811,0.611060910624,0.7176224501549999,37,2,1
ab,2,1,2,2,0.9050656377259999,0.775819552369,3.24720456863,38,2,0
ab,2,1,1,2,0.434902630092,0.658168688782,0.541220845911,39,2,0
ab,1,1,1,1,0.729050964383,0.8226574414129999,0.30597224954700003,40,2,1
ab,1,1,1,1,0.32898212533300003,0.37585543491499995,0.258902971975,41,2,1
ab,1,1,1,1,0.6935819136560001,0.8346538392980001,1.00001732526,42,2,1
ab,2,1,2,2,0.6348492682760001,0.411152773024,1.7411220534,43,2,0
ab,2,2,1,1,0.7524716414300001,0.481566111475,0.388404316223,44,2,1
ab,2,2,1,1,1.10520285382,0.622903306161,1.588258168,45,2,1
ab,1,1,1,1,0.423105665246,0.46997011969499997,0.49415118333499997,46,2,1
ab,1,1,2,1,0.42306023455200004,0.5522720543890001,2.6587473526,47,2,1
ab,2,2,2,2,0.6933990358679999,0.458072283313,2.5413540579400005,48,2,1
ab,2,1,2,2,0.681925860959,0.387596188904,0.294200695091,49,2,0
ab,1,1,1,2,0.8933552992020001,0.799078141947,0.7765710838269999,0,3,1
ab,2,2,1,1,0.599688992257,0.36380898626900005,0.658649176106,1,3,1
ab,1,1,2,1,0.481906456664,0.446423160722,0.164797912345,2,3,1
ab,1,1,2,2,0.7171627531460001,0.928033162865,0.600107108632,3,3,1
ab,1,1,1,1,0.528881792803,0.45807343832900005,1.5058815421599998,4,3,1
ab,1,1,1,1,0.423052919441,0.7280984598620001,1.8588025624400002,5,3,1
ab,2,2,1,1,0.423158796057,0.55228206454,0.317625992207,6,3,1
ab,2,2,2,1,0.387752501287,0.39936042825,0.32950149824999997,7,3,1
ab,2,2,1,1,1.2582465369700002,0.24642069668299998,1.35303459701,8,3,1
ab,2,2,1,1,1.69257011823,0.600235315587,0.564832870878,9,3,1
ab,1,1,1,2,0.881860178957,0.316350852769,0.329478782904,10,3,1
ab,2,2,2,1,0.68188389532,1.32868952087,0.270677606481,11,3,1
ab,1,1,2,1,0.34074251462,0.399353498144,0.564759719762,12,3,1
ab,2,2,1,1,0.42299709359,0.34055386174400004,3.18810193261,13,3,1
ab,1,1,1,1,0.364244427907,0.799295670262,0.553039756092,14,3,1
ab,1,1,1,1,0.352455163178,0.399377753512,4.49390092952,15,3,1
ab,2,2,2,2,0.434816773781,0.728774915173,0.7059748675859999,16,3,1
ab,2,2,1,1,0.44647475150700006,0.575886389388,3.44691250318,17,3,1
ab,1,1,1,1,0.540553630739,0.8813754565690001,0.5531113671819999,18,3,1
ab,2,2,2,1,0.540721108293,0.540437743974,0.399870176021,19,3,1
ab,1,1,2,2,0.352500978877,0.30525613863,1.35295182075,20,3,1
ab,2,2,2,2,1.41121976404,0.8346145686990001,4.08214831735,21,3,1
ab,1,1,1,1,0.35292602535800005,0.375325281833,4.7644915246699995,22,3,1
ab,2,2,1,2,0.646573467013,0.281690699374,0.894186141868,23,3,1
ab,1,1,2,1,0.529614073967,0.364029594632,0.21113221371,24,3,1
ab,1,1,2,1,0.340733274477,0.34051767119099996,0.258928382364,25,3,1
ab,2,2,1,1,2.02293710968,0.481666983012,0.411870423965,26,3,1
ab,1,1,1,1,0.529255248495,0.5865518219829999,0.42356151219599997,27,3,1
ab,2,2,2,1,0.728905432163,3.95206638425,0.823595315711,28,3,1
ab,2,2,1,1,0.587726859896,0.328689520871,0.32949803319800003,29,3,1
ab,2,2,1,1,0.622952586911,0.39935426815499997,0.764763338817,30,3,1
ab,1,2,1,2,0.48191146173999994,0.246398751349,0.682325882059,31,3,0
ab,2,2,2,1,0.38783412253,2.10399162535,0.23538719847800002,32,3,1
ab,2,2,2,1,0.37601983242200004,2.36399725414,0.5765389743370001,33,3,1
ab,1,2,1,2,0.517156054044,0.387592338844,1.16474016146,34,3,0
ab,1,1,1,2,0.6583342413050001,0.422868116624,0.376570390816,35,3,1
ab,2,2,1,1,0.729035949153,0.7874340244310001,1.23527015669,36,3,1
ab,2,2,1,1,0.8459310462190001,0.47068738563,4.4115266137199995,37,3,1
ab,1,1,2,1,0.45742508844499996,0.36506179536600003,0.36477804604099995,38,3,1
ab,1,1,1,1,0.599345182018,0.35216679378399995,0.44725862345899997,39,3,1
ab,2,1,1,2,0.505274002902,0.622872890697,0.600184494813,40,3,0
ab,2,2,1,2,0.776624984648,0.481772474621,0.646452575169,41,3,1
ab,1,1,2,2,0.44666571441799996,0.258073284327,1.00006121593,42,3,1
ab,1,1,2,1,0.552512683056,0.5875385920239999,0.858834132927,43,3,1
ab,1,1,2,1,0.5054206901389999,0.446432785868,0.43538850749799995,44,3,1
ab,2,2,1,2,0.340841076122,0.281735745062,0.682212305328,45,3,1
ab,1,1,2,1,0.434897240008,1.24628517462,0.458879640619,46,3,1
ab,2,1,1,2,0.870095939614,0.9757438602159999,0.564679638541,47,3,0
ab,2,2,1,2,0.281855866893,0.32877268214,0.600085548303,48,3,1
ab,1,1,1,2,0.423158026044,0.575700816558,1.1647313063299998,49,3,1
ab,1,2,1,2,0.316969172196,0.234496679901,0.470675835453,0,4,0
ab,2,2,2,2,0.32900099062,0.434631585958,0.364766880872,1,4,1
ab,2,2,1,1,0.6583377063579999,0.49353209389700003,0.45893777650600004,2,4,1
ab,1,1,2,1,0.282028734528,0.528595733442,0.505941988085,3,4,1
ab,2,2,1,1,0.7524774165189999,0.328746886746,0.30595376926600004,4,4,1
ab,1,1,1,1,0.5407457486689999,0.39930537240999997,5.1997067795300005,5,4,1
ab,1,1,1,2,0.6818823552969999,0.411130442684,0.494215094308,6,4,1
ab,1,1,2,2,0.657585789895,2.14095988893,2.35301226667,7,4,1
ab,2,2,1,2,0.30540244085900004,0.269954950463,0.317736873898,8,4,1
ab,2,2,2,1,0.340703629026,0.35226266024400005,0.353038062065,9,4,1
ab,1,1,1,1,0.44655714276299996,1.2463872011700001,1.69412015186,10,4,1
ab,1,1,1,2,0.7524292907860001,0.481686618314,0.83538997052,11,4,1
ab,2,1,1,1,1.1642115484,2.4580191525,2.3058159371599998,12,4,0
ab,2,2,1,1,0.611348510009,0.328061191294,0.799986370794,13,4,1
ab,1,1,1,1,0.505424155192,0.411103492272,0.447107701157,14,4,1
ab,1,1,2,1,0.505467275849,0.6934398464910001,0.6000104721589999,15,4,1
ab,1,1,2,1,0.4348113837,5.516634371089999,0.400118504807,16,4,1
ab,2,1,1,2,0.634804607595,1.49350052342,0.035413224874,17,4,0
ab,2,2,2,2,0.458365657785,0.44641007052299997,0.8000414266320001,18,4,1
ab,2,2,2,1,0.375952456396,0.54061061161,0.30595492428300003,19,4,1
ab,2,1,2,2,1.09378049968,0.47000477022299997,0.823415517969,20,4,0
ab,1,1,2,1,0.364253283042,0.387554993276,0.564767419881,21,4,1
ab,2,2,2,2,0.45835680265,0.328730331494,1.12939662265,22,4,1
ab,1,1,2,1,0.7524208206559999,0.48172704392899995,0.835391125538,23,4,1
ab,1,1,2,2,0.48189798653399996,0.364076950355,2.30577628156,24,4,1
ab,2,2,1,2,0.459342032671,0.37584003468099997,1.8342815386200002,25,4,1
ab,2,2,1,2,0.564220711543,0.352298080785,2.09409543449,26,4,1
ab,1,1,1,2,1.12894308574,1.23457060103,1.1882401497200001,27,4,1
ab,2,2,2,2,0.387742876141,0.38758540873999997,0.83534338481,28,4,1
ab,1,2,2,2,0.411320635583,0.411150462987,2.70583896052,29,4,0
ab,2,2,2,2,0.681957046436,0.740379377085,0.623888151176,30,4,1
ab,2,2,1,1,0.517193784619,0.6934752670290001,0.470650040061,31,4,1
ab,2,2,1,1,0.505399514816,0.35230000581200005,0.611832462386,32,4,1
ab,2,1,1,2,1.18767842616,0.505182756511,1.2941491043,33,4,0
ab,1,1,1,2,0.505398359797,0.387598498939,0.764736003401,34,4,1
ab,2,1,2,2,0.36377741578699996,0.305650769646,0.90590880058,35,4,0
ab,1,1,1,2,0.9408180527700001,0.49331880064499994,0.576568619788,36,4,1
ab,1,2,1,2,1.1642592891299999,0.552238558877,0.388218743396,37,4,0
ab,1,1,1,1,0.434726682408,0.34057272703100006,0.517772833446,38,4,1
ab,1,1,2,2,0.352376236977,0.293504989484,0.9648162386239999,39,4,1
ab,1,1,2,1,0.411279824961,0.42310220019100003,0.5059931938669999,40,4,1
ab,2,1,1,2,0.599552700181,0.55231093998,0.7411952045199999,41,4,0
ab,1,1,1,1,0.44655098267,1.1051997737700001,2.8116547436799997,42,4,1
ab,2,2,2,2,0.305417456089,0.433775332904,1.42354495694,43,4,1
ab,2,2,1,1,0.517170299261,0.364090040553,4.6821187489,44,4,1
ab,1,2,1,2,1.1044151318100002,0.516317896265,0.506952243486,45,4,0
ab,2,2,1,2,2.18697502043,1.4940403016400001,0.388333090137,46,4,1
ab,2,2,1,2,0.6466720285149999,0.281605228072,0.541244716276,47,4,1
ab,1,1,1,2,0.623051148414,0.340549626679,0.470656970167,48,4,1
ab,1,1,1,1,0.41106460668000006,0.37584696478699997,1.188454983,49,4,1
ab,1,1,1,2,0.493470492958,0.481375148564,0.517738567924,0,5,1
ab,1,1,1,1,0.281870882121,0.740549934684,0.305984569735,1,5,1
ab,1,1,2,1,0.28188936240400003,0.423005178713,0.364815006604,2,5,1
ab,1,1,2,1,0.5640736393029999,0.48168546329499995,0.470823677706,3,5,1
ab,2,1,2,2,0.399512890574,0.410962195119,0.882398032159,4,5,0
ab,1,1,2,1,0.599553855198,0.375865060063,0.458886570726,5,5,1
ab,2,2,1,1,0.470071761245,0.364049229929,2.14117087215,6,5,1
ab,2,2,2,1,0.376045242811,0.41109078708,0.45889773589599997,7,5,1
ab,2,2,2,1,0.5289372336479999,1.1992509325799998,0.37659118113300005,8,5,1
ab,2,2,2,1,0.43480021853100004,0.46990004862499996,0.447119251332,9,5,1
ab,2,2,2,1,0.281890902426,0.246423776731,0.258879871624,10,5,1
ab,2,2,2,1,0.258844836089,0.246427241784,0.16430702986,11,5,1
ab,1,1,2,1,0.35251560909999996,0.35222569968,0.694180597782,12,5,1
ab,2,2,2,1,0.786728308673,0.44739607055299996,0.376573470863,13,5,1
ab,2,2,1,1,1.8464604292900002,1.2815282269,0.129587200558,14,5,1
ab,1,1,2,1,0.552483422609,0.516964706127,0.294176054715,15,5,1
ab,1,1,2,1,0.387765976491,0.916990424521,2.41173836695,16,5,1
ab,1,1,2,1,0.540774624111,0.458059578119,0.458913906143,17,5,1
ab,1,1,1,1,0.505391429695,0.37578536384499994,1.32947339282,18,5,1
ab,2,1,1,2,0.930909926723,0.679583100246,0.62396977242,19,5,0
ab,1,1,1,1,0.43487067460600004,0.705156730113,2.1528357799799998,20,5,1
ab,1,1,1,1,0.458271331347,0.38755768831500004,3.70572230374,21,5,1
ab,2,1,1,2,0.646525726286,0.29364782666,0.353058082372,22,5,0
ab,2,1,1,2,0.329053351419,1.04623881991,0.341198746577,23,5,0
ab,1,1,1,1,0.305419766122,0.222823301941,1.14121052776,24,5,1
ab,2,2,1,2,0.528917598349,0.469955489472,0.705949072195,25,5,1
ab,2,2,1,2,0.470257334073,0.364079260387,0.599927310894,26,5,1
ab,2,1,1,2,0.82308094787,0.575758952447,0.5530320559740001,27,5,0
ab,1,1,2,2,0.505417995097,0.316956467002,0.8000491267479999,28,5,1
ab,1,1,1,2,0.752488581686,0.363909857806,0.776520648054,29,5,1
ab,1,1,1,2,0.658322691132,0.740502963967,1.7293793743900001,30,5,1
ab,2,2,2,2,0.44644318102700004,0.587558227326,0.42370396436700003,31,5,1
ab,1,1,2,2,0.375920885912,0.622860955515,0.835406525774,32,5,1
ab,2,1,1,2,0.575986490916,0.305206472873,0.42360386284400003,33,5,0
ab,2,1,1,2,0.234839335128,0.740483328667,0.388347720364,34,5,0
ab,1,1,2,1,0.717094222102,0.446279553533,0.552950819736,35,5,1
ab,2,2,1,1,0.50548845117,0.528784771323,0.36470181488000003,36,5,1
ab,2,1,1,2,0.411290605127,0.4463831201100001,0.49417928876199996,37,5,0
ab,1,2,1,2,0.505512706543,0.36393372817100006,0.51770545742,38,5,0
ab,1,1,1,1,0.446616818674,0.45813311424,0.564773194965,39,5,1
ab,2,2,1,1,1.1759754027399998,0.38760196399400004,0.7294752408490001,40,5,1
ab,1,1,2,1,0.434686641798,0.43474208264499997,4.4468743876,41,5,1
ab,1,1,1,1,0.47008485144400003,0.470332795223,0.41185579374,42,5,1
ab,1,1,1,2,0.28142312029399996,0.34093617257200004,0.188352186429,43,5,1
ab,1,1,2,1,0.76421701549,0.787497165395,3.1763065077900006,44,5,1
ab,1,2,1,2,0.340711714147,0.246401061384,0.48242428955899996,45,5,0
ab,2,2,1,2,0.234802374562,0.25823190674400004,0.529492412112,46,5,1
ab,2,2,1,1,0.399687683239,0.28156403244399997,0.27067298640799997,47,5,1
ab,2,1,1,1,0.823040522253,1.4227749452,1.9999872948,48,5,0
ab,2,2,1,1,0.599293206225,0.31700189769299997,0.4120367465,49,5,1
ab,1,1,2,2,0.375777663729,0.22266082946600002,0.717707536453,0,6,1
ab,2,1,1,2,0.423007103745,0.552284759582,0.670673679419,1,6,0
ab,1,1,1,1,0.39949672032899997,0.681697552482,0.129566795244,2,6,1
ab,2,1,1,1,0.21121884003199998,1.9992792690099999,0.5765874850770001,3,6,0
ab,2,2,2,2,0.31804025852400003,0.798705841269,0.5521107369280001,4,6,1
ab,2,2,1,1,4.19925516764,0.611073230812,1.0471016180700001,5,6,1
ab,2,2,1,1,0.540781169209,0.340531531401,2.58814266623,6,6,1
ab,1,1,1,1,0.375995577055,0.48170740862800004,1.32940601679,7,6,1
ab,1,1,1,1,0.36353794213600005,0.45885923531000006,1.60004011761,8,6,1
ab,1,1,1,1,0.376683967548,0.49341235707099995,0.49354210405,9,6,1
ab,1,1,1,1,0.37602868755900004,0.528790931417,1.3411821913200002,10,6,1
ab,2,1,1,2,0.799516663628,0.46987463823799996,0.388309219772,11,6,0
ab,2,2,2,2,0.540604451515,0.458157369609,1.0118616458299998,12,6,1
ab,2,2,1,1,0.6465931023120001,0.421972592972,1.8823291161099998,13,6,1
ab,2,2,1,1,0.481886051355,0.469786856902,3.51747329888,14,6,1
ab,1,1,1,1,0.434788668354,0.45817584988999993,3.6469111171599997,15,6,1
ab,1,2,1,2,0.800405257178,0.29349959940000003,0.4344440881,16,6,0
ab,2,1,1,2,0.35245862823299995,0.7993441809990001,0.43536810218599997,17,6,0
ab,1,1,2,1,0.552443767006,0.540527450343,0.329517283491,18,6,1
ab,1,1,2,1,0.5053821895530001,0.434630045937,0.435415072901,19,6,1
ab,1,1,2,1,0.47005905605,0.6816598219050001,0.42367662895,20,6,1
ab,2,2,1,1,0.399500570384,0.328801942585,0.30598803479000003,21,6,1
ab,2,2,1,1,0.611312704463,2.26975936748,0.14124286824899998,22,6,1
ab,1,1,1,1,0.317165910194,0.7404698534630001,2.27054169941,23,6,1
ab,1,1,1,1,0.517106388288,0.481738594102,1.47065504514,24,6,1
ab,2,2,1,2,0.658362731741,0.281628328426,0.270723422178,25,6,1
ab,2,2,2,1,0.387700525494,0.21112181855300002,0.16482717279,26,6,1
ab,2,2,2,1,0.35251637911300004,0.281644113667,0.458878100599,27,6,1
ab,1,1,2,1,0.458011452385,0.434765953007,0.470698550802,28,6,1
ab,1,1,1,2,0.39953560592,0.38759349386200004,0.48218558591899996,29,6,1
ab,1,1,1,2,0.4583668128,0.269950715396,0.564797065334,30,6,1
ab,1,1,2,1,0.481811360216,0.43482293387599996,0.505971633538,31,6,1
ab,2,2,1,1,0.776036695679,1.3639460483599999,0.43412029816299996,32,6,1
ab,2,2,1,2,0.646591947294,0.328738801622,0.517735872883,33,6,1
ab,1,1,1,1,0.30544787155299996,0.528789776399,0.305906798549,34,6,1
ab,1,1,2,1,0.446586788214,0.84638573815,0.435370412222,35,6,1
ab,1,1,1,1,0.446616433666,0.458154289561,0.470662745251,36,6,1
ab,2,1,1,1,0.352478263532,0.328786542352,0.423590387636,37,6,0
ab,2,1,2,2,0.517122173525,0.352402032371,1.2471237174,38,6,0
ab,2,2,1,2,0.5524818825869999,0.246410301523,0.41179457780900003,39,6,1
ab,2,2,1,1,0.340740204585,0.28168761932799996,1.03529079301,40,6,1
ab,2,2,1,1,0.352615325621,0.246376421008,3.99968044513,41,6,1
ab,1,1,1,1,0.305378185491,0.470019785454,0.529484711995,42,6,1
ab,1,1,1,1,0.34074251461800004,0.387552298234,0.29416257950999997,43,6,1
ab,1,1,1,2,0.43485989443800005,0.43465083625100004,0.68243483872,44,6,1
ab,1,1,2,1,0.49364297558700004,1.19931907862,0.670680994532,45,6,1
ab,1,1,1,1,0.634920494365,0.469841527734,0.48231417788000003,46,6,1
ab,2,1,1,2,0.329024475981,0.293486124196,0.741186734391,47,6,0
ab,2,2,1,1,0.6936485196709999,0.281702249551,0.447132726538,48,6,1
ab,2,2,1,1,0.6348873838579999,0.246394516285,0.658873249522,49,6,1
ab,1,1,1,2,0.411088477042,1.0461371783600002,0.682426368588,0,7,1
ab,2,2,1,2,0.328958639977,0.187674961107,0.423571907355,1,7,1
ab,2,2,1,1,0.587844671692,0.269839833709,1.11768243407,2,7,1
ab,2,1,1,1,0.38775057625799997,1.32856362395,0.34130231315399995,3,7,0
ab,1,1,1,1,0.6465923322980001,0.7404140276119999,0.5647516346399999,4,7,1
ab,2,2,2,1,0.622971067191,0.952290457666,1.9764645912,5,7,1
ab,2,2,2,2,0.34069554390199996,0.575850968849,0.8470541083409999,6,7,1
ab,1,1,1,1,1.24636333081,0.5169450708309999,1.8119207827300001,7,7,1
ab,1,1,1,1,0.49262309503999996,0.494398357103,0.494230494543,8,7,1
ab,1,1,2,1,0.528899503075,0.505251287555,0.35309388791599994,9,7,1
ab,2,2,1,1,0.729099860127,0.516924665513,0.599968891525,10,7,1
ab,1,1,2,1,0.364275998389,0.41105498153399994,0.5644686553239999,11,7,1
ab,2,2,2,1,0.352555264704,0.622750073828,0.435377342328,12,7,1
ab,1,1,1,1,0.35249212374399996,0.7640722532809999,1.03529464306,13,7,1
ab,2,2,1,1,0.611285754054,0.46987502324600006,0.176526731153,14,7,1
ab,2,2,1,1,0.505367944334,0.69348181213,0.400049973763,15,7,1
ab,1,1,1,1,0.399528290811,0.469919683925,0.600090938387,16,7,1
ab,1,1,1,1,0.434779813218,0.36406617019000004,0.5177297127880001,17,7,1
ab,1,1,1,1,0.41137530641599995,0.38749262232500004,0.50596316341,18,7,1
ab,2,2,1,1,0.540675292596,0.34055925182499996,1.18829713059,19,7,1
ab,2,2,2,1,0.35245747321099996,0.905227725194,0.411839238488,20,7,1
ab,2,2,2,1,0.29269609215,0.25910009498000003,0.35301419170000004,21,7,1
ab,2,2,2,1,0.281883202308,0.258154135561,0.29422302543,22,7,1
ab,2,2,2,1,0.246710606101,0.234684177762,0.399948717219,23,7,1
ab,1,2,1,1,0.23470458307199998,0.258258472153,0.729488716057,24,7,0
ab,2,2,1,1,0.364090040552,0.19970754954199998,0.411946655127,25,7,1
ab,1,1,1,1,0.458330622252,0.575852123868,0.647130570505,26,7,1
ab,1,1,2,1,0.693672005033,0.5993201566340001,0.694176362718,27,7,1
ab,1,1,2,1,0.575984565883,1.02283623814,0.494214709302,28,7,1
ab,1,1,2,1,0.552501517886,0.505204701847,0.529450446469,29,7,1
ab,2,2,2,1,0.493552114203,0.999327394748,0.5883836799109999,30,7,1
ab,1,1,1,1,0.423064084611,0.634771112083,1.08238625098,31,7,1
ab,2,2,1,1,0.752465481339,0.222894528026,1.36474609056,32,7,1
ab,1,1,1,1,0.8347989865109999,0.5052120169600001,0.576575164887,33,7,1
ab,1,1,2,2,0.42312337551600004,1.11690433721,0.717699451328,34,7,1
ab,1,1,1,1,0.43482870896700004,0.43458500024999996,0.48236730868999994,35,7,1
ab,1,1,2,1,0.387803322064,0.646444490045,0.8941268509620001,36,7,1
ab,2,2,2,1,0.24647382749000002,0.24649115275699998,0.36484465205600003,37,7,1
ab,2,2,1,1,0.398741338813,0.364113910917,0.400108494654,38,7,1
ab,2,1,1,2,0.258405929395,0.258039018805,0.517789003694,39,7,0
ab,1,1,2,1,0.6582129644560001,2.70506625374,0.435482833935,40,7,1
ab,2,2,2,1,0.269211889135,0.235547360917,0.341285372895,41,7,1
ab,1,1,1,1,0.305446331527,0.646389434209,0.57650701885,42,7,1
ab,2,2,2,1,0.599514199592,0.552258579184,0.611845552583,43,7,1
ab,1,2,1,2,1.0583141440000001,0.775784901842,0.30598033466999996,44,7,0
ab,2,2,1,1,0.763566740574,0.717615905054,0.788309912783,45,7,1
ab,1,1,1,2,0.41130100028399996,0.281678379186,2.88222978459,46,7,1
ab,1,1,1,2,0.564213781439,0.433679081438,0.494214324295,47,7,1
ab,2,2,2,1,0.270148223408,0.25817030580600003,0.400068069041,48,7,1
ab,2,2,2,1,0.47032163005500005,0.35220991443899996,0.282309788814,49,7,1
eb,2,2,2,1,0.46983844768700006,0.928546375689,0.9883316271160001,0,0,1
eb,2,2,2,1,0.328973655203,0.281703789574,0.223638744373,1,0,1
eb,1,1,2,1,0.611323484626,0.469932774125,0.376524190111,2,0,1
eb,1,2,1,2,0.670112340863,1.36397569381,1.10593320995,3,0,0
eb,1,1,2,1,0.38779061686800004,0.352311940996,0.447126181439,4,0,1
eb,2,2,2,1,0.505419920127,0.7522799085070001,0.48241273938199997,5,0,1
eb,1,1,1,1,0.458339862391,1.0464840686499999,0.7059683224869999,6,0,1
eb,1,1,2,1,0.646571156977,0.458195100184,0.41186426387100006,7,0,1
eb,2,2,1,2,0.31722597111,0.222895683045,0.741204444662,8,0,1
eb,2,2,1,1,0.317212110899,0.222855642434,0.6941940729889999,9,0,1
eb,2,2,2,2,0.458351412567,0.36415318151500004,1.14121514782,10,0,1
eb,1,2,2,1,0.35247017840800005,0.49342929733,0.447168147078,11,0,0
eb,2,2,1,2,0.293663996908,0.7758222474099999,0.7647521736470001,12,0,1
eb,1,1,2,1,0.234848960273,0.24644533705899999,0.48241004434100004,13,0,1
eb,2,2,1,2,0.22239748545000002,0.588253932931,0.6471186353239999,14,0,1
eb,2,2,2,2,0.328996755556,0.587517416703,0.752986779283,15,0,1
eb,1,2,2,1,0.246622054753,1.7286517133000001,0.0824528569938,16,0,0
eb,1,2,1,1,0.834996109516,0.775579693712,0.36477766103500003,17,0,0
eb,1,1,1,1,0.28177039559,0.540632941949,0.411886209205,18,0,1
eb,2,2,1,2,0.34065550329300004,0.599391767727,0.635415996917,19,0,1
eb,2,1,1,2,1.5288540723800002,0.9522658172930001,0.6236070968899999,20,0,0
eb,2,2,1,1,0.399646872617,0.540365747876,0.611836697451,21,0,1
eb,2,2,2,1,0.164238498816,0.17576557454599998,0.24718993840999998,22,0,1
eb,1,1,1,1,0.258857541283,0.364212857425,0.44654636259900005,23,0,1
eb,1,1,2,1,0.681892750455,0.493425062265,0.564809385519,24,0,1
eb,1,1,1,1,0.646605807505,0.62281667984,0.10598865079700001,25,0,1
eb,2,2,2,1,0.18783743358199997,0.693456401743,0.0235966247305,26,0,1
eb,1,1,2,2,0.293644361608,0.481698553494,0.788292972526,27,0,1
eb,2,2,2,1,0.564139860312,0.64645719524,0.11783066132799999,28,0,1
eb,1,1,1,1,0.388665350203,0.799334555855,0.705047388447,29,0,1
eb,1,1,2,1,0.37604331778000005,0.6465276513139999,0.894159961469,30,0,1
eb,1,1,2,2,0.399553701196,1.03458315222,0.517711232508,31,0,1
eb,1,1,1,2,0.728880791788,0.54049587986,1.70587207102,32,0,1
eb,2,2,1,1,0.623076943808,0.21121652999600002,0.11771862462000002,33,0,1
eb,1,1,2,2,0.399542536026,0.587582097689,0.458884645696,34,0,1
eb,2,2,2,2,0.29375601331,1.03446880548,0.38834964539000005,35,0,1
eb,2,2,1,1,0.976115775885,0.399177550462,0.11773671989600001,36,0,1
eb,2,2,1,2,0.270208669331,0.222971529201,0.435381962398,37,0,1
eb,1,1,1,2,0.44654636259900005,0.587603658018,0.247177618223,38,0,1
eb,2,1,2,1,0.387782146739,0.552561963807,0.458917756201,39,0,0
eb,2,2,2,2,0.551754221493,0.59994617618,0.38837390076,40,0,1
eb,2,2,1,1,0.152467329365,0.434487593763,0.48246818022699994,41,0,1
eb,1,1,2,2,0.199542767029,0.22293456863699998,0.364805381458,42,0,1
eb,1,2,1,2,0.259159770891,0.399324237698,0.422783800339,43,0,0
eb,1,1,2,1,0.258390529164,0.25823960686299996,0.470655815148,44,0,1
eb,2,1,2,2,0.21133549680999997,0.269918759911,0.482405424271,45,0,0
eb,2,1,2,2,0.234778119192,0.269948020358,0.458983592205,46,0,0
eb,1,2,1,2,0.740812893693,0.881691161382,0.44715274684399997,47,0,0
eb,2,1,1,2,1.23479582946,1.0816443446700001,0.541238941188,48,0,0
eb,1,2,2,2,0.281908227691,0.916967709173,0.48239464410599997,49,0,0
eb,2,2,2,1,0.18742894235399998,0.186928049718,0.706052253767,0,1,1
eb,1,1,2,1,0.23476810903999998,0.222861417522,0.435416227921,1,1,1
eb,2,2,2,1,0.17659256715399999,0.387625064344,0.317035393204,2,1,1
eb,1,1,2,1,0.211332801769,0.151611846323,0.435394282586,3,1,1
eb,1,1,1,1,0.329061821547,0.399281502047,0.752964063937,4,1,1
eb,2,2,2,1,0.5406953129,0.740618080722,0.8000549018369999,5,1,1
eb,2,2,2,1,0.482090874475,0.528487161787,0.47066159023599996,6,1,1
eb,1,1,1,1,0.24658817423700002,0.199326393731,0.48243198967600004,7,1,1
eb,1,1,2,1,0.276875815972,0.8866554270620001,0.37658001596199997,8,1,1
eb,2,2,1,1,0.505560062263,0.516828029043,0.153042913139,9,1,1
eb,2,2,1,2,0.506419780369,0.48171087368199994,0.45791058084700004,10,1,1
eb,1,2,2,2,0.493654910769,0.505183911529,0.541248181329,11,1,0
eb,2,2,2,2,0.293674392066,0.552320950133,0.0589151381612,12,1,1
eb,1,2,2,2,0.223068935686,0.481623862356,0.541244716276,13,1,0
eb,1,2,1,1,0.90545487866,0.634748011733,0.764667472356,14,1,0
eb,2,2,2,2,0.16389430356899998,0.152865810439,0.5999280809040001,15,1,1
eb,2,2,1,2,0.17502328323,0.17693830242400002,0.505953153256,16,1,1
eb,2,2,2,2,0.19939915984,0.42275107483999996,0.694394276041,17,1,1
eb,1,1,2,1,1.55240488141,0.387546908153,0.44709345594,18,1,1
eb,1,1,2,2,0.199447285574,0.48167699316600004,1.05894670864,19,1,1
eb,2,2,1,2,0.552474567475,0.8228399341949999,0.7412506453659999,20,1,1
eb,2,2,2,1,0.611335034803,0.61055693794,0.376578475939,21,1,1
eb,1,1,2,1,0.35244361300300003,0.599446438561,0.576552449542,22,1,1
eb,1,1,1,1,0.211285061041,0.22291531834399997,0.67063171378,23,1,1
eb,2,1,2,2,0.599511889559,0.634640595096,0.623600936797,24,1,0
eb,2,2,2,2,0.34072133929700005,0.38757693861000003,0.611877508073,25,1,1
eb,1,1,1,2,0.340726729379,0.5522870696159999,0.294195690013,26,1,1
eb,2,2,2,2,0.282558117598,0.246468052405,0.293507684525,27,1,1
eb,1,2,1,2,0.493626805341,0.646422544712,0.12950865936,28,1,0
eb,1,1,1,2,0.987079588028,0.81175138015,1.4588276648299998,29,1,1
eb,1,1,2,2,0.7525998483840001,0.587397294872,0.623582841521,30,1,1
eb,2,2,1,2,0.246605884507,0.6934660268899999,0.43535116192900003,31,1,1
eb,2,2,1,1,1.0223665309799999,1.1528631154,0.341293073013,32,1,1
eb,1,2,2,2,0.340732504467,0.317021917999,0.34120529167499997,33,1,0
eb,1,1,2,2,2.12878908339,1.4463600197600002,0.42363158326399997,34,1,1
eb,1,2,1,2,0.681997472052,0.693270443908,0.388312299821,35,1,0
eb,2,2,2,1,0.41130831539499996,0.5523163300630001,0.317718778623,36,1,1
eb,2,2,2,1,0.15244191897700002,0.1759199619,0.517762053283,37,1,1
eb,2,1,2,1,0.164357080624,0.552206988395,0.576515873985,38,1,0
eb,1,1,1,2,0.599477624036,0.6111059563100001,0.600132904026,39,1,1
eb,1,2,1,2,0.199581652622,0.246495387822,1.18825516495,40,1,0
eb,1,2,2,2,0.917187162519,1.17571359875,0.447159291944,41,1,0
eb,1,1,2,2,1.43477827319,0.6927533810250001,0.847092993933,42,1,1
eb,2,2,2,1,0.44661065858000004,0.552283989569,0.43534115177599997,43,1,1
eb,1,1,2,2,0.6935873037379999,1.0228296930399998,0.505987033772,44,1,1
eb,2,2,2,1,0.199538531965,0.61111904651,0.447160446961,45,1,1
eb,2,2,2,1,0.18784397868099997,0.434598475454,0.058894347844199994,46,1,1
eb,2,2,1,2,0.211249255495,0.234692647889,0.7892628023109999,47,1,1
eb,2,1,2,2,0.83395081858,0.8347770411759999,0.600098253498,48,1,0
eb,1,1,1,2,1.282584683,0.434467188452,0.45819702521399996,49,1,1
eb,2,1,1,2,0.516973561262,0.857820412472,1.24709137691,0,2,0
eb,1,1,2,1,0.317206335811,0.187620675277,0.658889804775,1,2,1
eb,1,1,2,1,0.29364012654399996,0.222876047746,0.317745729034,2,2,1
eb,2,2,2,1,0.798903349281,0.57638112193,0.823552580059,3,2,1
eb,1,1,1,1,0.234724218371,0.305210707937,0.37668627758199996,4,2,1
eb,2,1,2,1,0.198864386688,0.223581763504,0.705947917176,5,2,0
eb,1,1,2,1,1.01127220184,0.6346101796329999,0.447149281791,6,2,1
eb,2,2,1,2,0.223033900152,0.9055184046279999,0.40109680472099996,7,2,1
eb,2,2,1,2,0.37602945756899997,1.32868297577,1.3294210320200002,8,2,1
eb,1,1,2,1,0.8230482223700001,0.916953463955,0.105956310304,9,2,1
eb,1,1,2,1,0.799542459025,1.1169312876200002,0.294209165219,10,2,1
eb,2,2,2,2,0.187824343382,1.1873873617200001,0.423592312665,11,2,1
eb,1,1,1,1,0.199553162188,0.469934314149,1.6705477825,12,2,1
eb,1,1,1,1,0.5288802527800001,0.505290558155,0.976558917641,13,2,1
eb,2,2,1,1,0.270260645124,0.328599429498,0.7410542923729999,14,2,1
eb,2,2,1,2,0.211258495636,0.105317970572,1.03533006361,15,2,1
eb,2,1,2,2,1.09359569687,0.916990039513,0.8235968557340001,16,2,0
eb,2,2,2,2,0.17603161360199998,0.775801457093,0.600054747835,17,2,1
eb,1,1,1,2,1.01122754116,0.8110822399490001,0.5530054905690001,18,2,1
eb,1,1,1,1,0.258338553371,0.622832080075,0.811845706588,19,2,1
eb,1,1,2,2,0.823023967,0.9640666321960001,1.08238394094,20,2,1
eb,1,2,1,2,1.12891267027,0.8345922383580001,0.447131956527,21,2,0
eb,1,1,2,1,0.258362808741,0.352291535684,0.458912366119,22,2,1
eb,1,1,2,1,0.246767586972,1.50502990918,0.35287674460600005,23,2,1
eb,2,2,2,1,0.199562017323,0.611093251116,1.00004735572,24,2,1
eb,2,1,2,2,0.552460322258,1.1875174937000001,0.882409582334,25,2,0
eb,2,2,1,2,0.505465350819,1.01104504838,0.5059381380269999,26,2,1
eb,2,2,2,1,0.16433821533600002,0.175760954476,0.0470958429764,27,2,1
eb,1,2,1,1,0.21129353117,0.24560024917599999,0.400104259589,28,2,0
eb,2,2,2,1,0.5633028575519999,0.694344995289,0.47066043521799994,29,2,1
eb,2,1,1,2,0.8230736327570001,0.598642546306,0.929450369471,30,2,0
eb,1,1,2,1,0.340733659485,0.48154878621200004,0.376493004636,31,2,1
eb,1,1,2,1,0.340742899626,0.8816503507600001,0.482386943989,32,2,1
eb,1,1,1,1,0.199569717441,0.481538391053,0.34128537289599997,33,2,1
eb,1,1,1,2,0.505407214933,0.646382889107,0.0823970311426,34,2,1
eb,2,1,1,2,0.9759552284370001,1.0111085743500001,1.62348928509,35,2,0
eb,2,2,2,1,0.187873624133,0.41099569063,0.14129407402799998,36,2,1
eb,2,2,2,1,0.15251160503900002,0.611079775911,0.0118743510243,37,2,1
eb,1,1,2,1,0.411185113517,0.246570848972,0.27066297625700003,38,2,1
eb,2,2,2,2,0.246615894659,1.34045145018,0.894154186381,39,2,1
eb,1,1,2,1,0.223036980199,0.17585643593199998,0.34127228269599996,40,2,1
eb,2,2,2,1,0.446584863186,0.599336711888,0.600073998128,41,2,1
eb,2,2,1,1,0.176046628831,0.23451593019499997,0.38838275589500004,42,2,1
eb,1,1,2,1,0.47013528721299996,0.37581962936999996,0.553021660815,43,2,1
eb,1,2,2,2,0.470126817083,0.752239097885,0.294157189427,44,2,0
eb,1,1,2,2,0.44646551136699997,1.17527199702,0.494171973652,45,2,1
eb,1,1,2,1,0.411317940542,0.411120432531,0.7412159948379999,46,2,1
eb,2,2,2,1,0.187659175864,0.19938106456399998,0.458988212275,47,2,1
eb,2,2,1,2,0.293677087107,0.528761670972,0.705902486483,48,2,1
eb,2,2,1,2,0.129112103314,0.140448601139,0.682424058555,49,2,1
eb,1,1,2,2,0.858127647156,0.787273091978,0.717495398217,0,3,1
eb,1,1,2,2,0.552516918121,0.387548833182,0.882396107128,1,3,1
eb,2,2,1,1,0.270141293304,0.36406886523000004,0.541259346499,2,3,1
eb,2,2,1,2,0.22307009070300002,0.316996507612,0.42363427830399997,3,3,1
eb,1,1,1,2,0.470071376238,0.7046731627420001,0.34130731823,4,3,1
eb,2,2,2,1,0.505438400408,0.7404652333930001,0.400091939402,5,3,1
eb,2,2,2,1,0.47014991743600004,0.634601324497,0.305987649782,6,3,1
eb,2,1,2,1,0.481928401999,0.552239713894,0.447153901861,7,3,0
eb,1,1,2,1,0.258405544393,0.246445722065,0.43535193194,8,3,1
eb,1,1,2,1,0.34076946503100003,0.44634923959399997,0.529487407036,9,3,1
eb,1,1,2,2,0.5995145846,0.399325392716,0.482173650737,10,3,1
eb,1,1,2,1,0.470126432077,0.38759156883400003,0.41184385856,11,3,1
eb,2,2,1,2,0.234885920836,0.23462835191,0.635333220655,12,3,1
eb,1,1,2,1,0.293521544736,0.39939353875399997,1.0589382385100001,13,3,1
eb,1,1,2,1,0.6348319430129999,0.38758540873999997,1.07051536501,14,3,1
eb,1,1,1,1,0.223330354671,0.37506309283699996,0.317698758317,15,3,1
eb,2,2,1,1,0.19952428674800002,0.222901073127,0.541255881446,16,3,1
eb,2,1,1,2,0.305446716535,1.12803870695,0.647123255394,17,3,0
eb,2,2,1,1,0.270163238638,0.31701999297,0.36478882620499997,18,3,1
eb,2,2,1,1,0.17597963780900003,0.258201491281,0.447173922167,19,3,1
eb,1,1,1,1,0.529826597206,0.8699554124700001,0.46971024073299994,20,3,1
eb,2,1,2,2,0.411279439955,0.622851330369,0.423644673463,21,3,0
eb,2,2,2,1,0.293658221819,0.90522464515,0.11748569607,22,3,1
eb,2,1,1,2,0.19950157140099997,0.19845127539000001,0.165813172822,23,3,0
eb,1,1,2,2,0.222843707252,0.247314295306,0.61209773143,24,3,1
eb,1,1,1,2,0.222277748624,0.221986299181,0.624433319486,25,3,1
eb,2,2,1,2,0.199240922428,0.222193047333,0.48246933524499996,26,3,1
eb,1,1,2,2,1.01095072194,0.246363330809,0.894432160618,27,3,1
eb,2,2,2,1,0.199580112599,0.18756330940299998,0.411866573906,28,3,1
eb,1,2,2,2,1.34053037639,1.3993042173899999,0.282514996941,29,3,0
eb,2,2,1,1,0.199630933374,0.222817911859,0.623595161708,30,3,1
eb,1,1,2,1,0.27012281302200003,0.21119419965599998,0.694184447842,31,3,1
eb,1,1,1,1,0.30540475089499997,0.19949348627799998,0.0942244114513,32,3,1
eb,1,2,1,2,0.446674569554,0.70518791559,0.517659641721,33,3,0
eb,2,2,2,1,0.45853583037900003,0.528405155536,0.905958081331,34,3,1
eb,2,2,2,2,0.164253899051,0.14055563277,0.6000805432280001,35,3,1
eb,2,2,2,2,0.21195266121800002,0.199378369523,0.375905485679,36,3,1
eb,1,2,1,1,0.19951735664200002,0.21118880957299999,0.21184909464,37,3,0
eb,1,1,2,1,0.258357803665,0.57584057369,0.6823335821750001,38,3,1
eb,2,2,2,1,0.199672129002,0.188476928331,0.140376220036,39,3,1
eb,2,2,1,2,0.540689922818,0.528799401547,0.458923916295,40,3,1
eb,2,1,1,2,1.0583010538,0.998674039786,0.106062186918,41,3,0
eb,1,1,1,2,1.70597987266,0.658163298699,1.5169812613799998,42,3,1
eb,2,2,1,2,0.8348132317270001,1.0689672564100001,0.494083422302,43,3,1
eb,1,1,2,1,0.5164976940070001,0.97639683017,0.470709715969,44,3,1
eb,2,2,1,2,0.869958107511,0.7053222826379999,0.117871086945,45,3,1
eb,1,1,2,2,0.470757841703,0.669321153801,0.5406102266030001,46,3,1
eb,2,2,2,1,0.517166449203,0.505200081775,0.6942006180879999,47,3,1
eb,1,1,2,1,0.24665362523499998,0.234597166434,0.611859027791,48,3,1
eb,1,1,2,1,0.140741975611,0.222885287886,0.341287682931,49,3,1
eb,1,1,1,2,0.834626503881,0.504943667866,0.400084239284,0,4,1
eb,2,1,1,2,0.681903915625,0.55126795908,0.729430965175,1,4,0
eb,1,1,2,1,0.5994626088080001,0.36404460986000003,0.529556708092,2,4,1
eb,2,2,1,2,0.117163831163,0.164163037666,0.43537888235100003,3,4,1
eb,1,1,2,1,0.952465635339,0.445702814739,0.8706176225660001,4,4,1
eb,2,2,1,1,0.246131557275,0.8584645272920001,0.10575764727499999,5,4,1
eb,1,1,2,1,0.128949245831,0.34059043730099997,0.43539543760300004,6,4,1
eb,1,1,2,1,0.17605278892499998,0.199352959136,0.517703147385,7,4,1
eb,2,1,1,1,0.30545634168200003,0.375827714493,0.600056287858,8,4,0
eb,2,2,2,2,0.23550847532699998,0.7404790936040001,0.493547879138,9,4,1
eb,2,1,2,2,0.952476800509,0.44642701078,0.21183407941100002,10,4,0
eb,1,1,1,1,0.281885512345,0.46991737389,0.364789211211,11,4,1
eb,1,1,2,2,0.211652356641,0.5403033769250001,0.49402952148,12,4,1
eb,2,2,1,1,0.434926885461,0.563929647107,0.505978563643,13,4,1
eb,2,2,1,1,1.28181467126,0.8228437842540001,0.38832654503799996,14,4,1
eb,1,1,1,2,0.164224253599,0.517084057946,0.623592851673,15,4,1
eb,2,2,1,1,1.4582717163499999,0.234611796657,0.18817893378800002,16,4,1
eb,2,2,1,2,0.210552779877,0.153057543362,0.7059456071410001,17,4,1
eb,1,1,1,1,0.670092705564,1.0228662686,0.7059694775040001,18,4,1
eb,1,2,1,2,0.787758584379,0.552275904446,0.23540567876,19,4,0
eb,2,2,2,2,0.658361961728,1.0228531784000001,0.411792652779,20,4,1
eb,2,2,1,1,0.4935979299,1.17574362921,0.08253794329080001,21,4,1
eb,1,1,2,1,0.28189128743299996,0.987520804755,0.435167514129,22,4,1
eb,2,1,1,2,1.7053057273899999,0.905181139487,0.623644442459,23,4,0
eb,1,1,2,2,0.799220209112,0.552242408935,0.306592108997,24,4,1
eb,1,1,2,1,0.528934923613,0.7162730045819999,0.48248011541,25,4,1
eb,1,1,2,2,1.55283647299,0.705309192439,0.44667302953000004,26,4,1
eb,1,1,2,2,0.5642180165039999,0.481742829169,0.388344255308,27,4,1
eb,2,2,2,1,0.552364455796,0.528733950549,0.411933564927,28,4,1
eb,2,2,1,1,0.18775927739,0.31703000312199997,0.270726502225,29,4,1
eb,2,1,1,1,0.39952444075000004,1.0345950873999998,0.011897066370700001,30,4,0
eb,2,2,2,2,0.328312600126,0.36459555325900006,1.04707158761,31,4,1
eb,2,2,1,1,0.175954612428,0.293597775898,0.15305908338500002,32,4,1
eb,2,2,1,1,0.822434908021,0.35291948025700004,0.17651287093899998,33,4,1
eb,1,1,2,1,0.258367813817,0.199343718995,0.753006414583,34,4,1
eb,1,1,2,2,0.45838182803099997,0.364014964408,0.576540899366,35,4,1
eb,1,1,2,1,0.223048145369,0.199426110251,0.482433529699,36,4,1
eb,1,1,1,2,0.517219965018,0.61110133624,0.41185040366,37,4,1
eb,2,2,1,1,0.21129738122900002,0.258207266369,0.341282677854,38,4,1
eb,1,1,2,1,0.752414275556,0.928739648636,0.153072943597,39,4,1
eb,1,1,2,1,0.43488876987899994,0.48169200839500004,0.447083445787,40,4,1
eb,1,1,2,1,0.61128498404,0.5288178818289999,0.364786901176,41,4,1
eb,1,1,2,2,0.45837489792499997,0.9633894068719999,0.482431219664,42,4,1
eb,2,2,1,1,0.481923781928,1.21105598255,0.058933618443,43,4,1
eb,2,2,1,1,0.199513506584,0.246473442488,0.106003666026,44,4,1
eb,2,2,2,2,0.25839822928100004,0.611119431516,0.38832539002099997,45,4,1
eb,1,1,2,1,0.481907611681,0.234660307396,0.729494106138,46,4,1
eb,2,1,1,2,0.400327948,0.387576553605,0.893568207448,47,4,0
eb,2,2,1,2,0.176034693649,0.175188835754,0.729447520428,48,4,1
eb,1,2,1,2,0.246553523708,0.19942303020399998,0.870678453493,49,4,0
eb,2,2,1,2,0.152387248144,0.128414857685,0.717714081551,0,5,1
eb,1,1,2,2,0.7041083591320001,1.0238180031100002,0.38830883476800004,1,5,1
eb,2,2,2,1,0.175960772522,0.152334117333,0.223652604584,2,5,1
eb,2,2,2,1,0.152451159118,0.387624294332,0.11775905023700001,3,5,1
eb,2,1,1,1,0.140687304778,0.375808079194,0.44717854223700004,4,5,0
eb,1,1,1,1,0.211305466352,0.22288990795699998,0.223624499155,5,5,1
eb,1,1,2,1,0.328926299481,0.281742290161,0.341284217878,6,5,1
eb,1,1,2,2,0.19952236171799997,0.293593155827,0.670632868798,7,5,1
eb,2,2,1,2,0.22304622034000002,0.728784155314,2.5411130442700003,8,5,1
eb,1,1,2,1,0.517113703399,0.387619289256,0.36487044744999997,9,5,1
eb,1,1,2,1,0.164258904127,0.18756831447900002,0.635367101171,10,5,1
eb,1,1,2,1,0.187852448811,0.211107188329,0.41185348370700003,11,5,1
eb,2,1,2,1,0.17589994159400002,0.270014626373,0.76485535522,12,5,0
eb,2,2,1,1,0.36359453799900004,0.505855746771,0.5764950836680001,13,5,1
eb,2,2,2,2,0.223911713534,0.622225695831,0.410952184966,14,5,1
eb,2,2,1,2,0.387766746504,0.38755306824600005,0.717731021809,15,5,1
eb,1,1,1,2,0.17594691230999998,0.152433448848,0.23543763424699998,16,5,1
eb,2,2,1,2,0.187733096991,0.21116108915100001,0.529506272323,17,5,1
eb,1,2,1,1,0.693624649308,0.387613514168,0.929433429213,18,5,0
eb,1,1,2,1,0.458358342673,0.29346225383200003,0.341255727444,19,5,1
eb,1,1,1,1,0.458340632403,0.752291073677,0.45892892137100005,20,5,1
eb,1,1,2,1,0.22305738550999998,0.199365664329,0.658900199933,21,5,1
eb,2,2,2,1,0.25834817851799996,0.246435711912,0.388313069833,22,5,1
eb,1,1,2,2,0.24660511449499997,0.9993046794,0.388316534886,23,5,1
eb,1,1,1,2,0.458343327444,0.611073230812,0.5058030009669999,24,5,1
eb,1,1,1,2,0.164167657736,0.175858360961,0.247175693194,25,5,1
eb,2,2,1,1,0.775036450431,0.36416973676799996,0.682424443561,26,5,1
eb,2,2,1,2,0.211310086422,0.8346153387109999,0.788275647262,27,5,1
eb,2,2,2,2,0.259217906777,1.43471359221,0.328993675509,28,5,1
eb,2,2,1,1,0.21184293454599998,0.422843476249,0.7995062684729999,29,5,1
eb,1,1,2,2,0.787761664427,0.246602034448,0.44712810646799994,30,5,1
eb,1,1,1,1,0.458382213037,0.599320541642,0.364770345924,31,5,1
eb,1,2,1,2,0.5759791758030001,0.693437151449,0.976497316702,32,5,0
eb,2,1,1,2,1.1877261668899999,0.928696527979,1.5058511266999999,33,5,0
eb,2,1,1,1,0.623073478755,0.52871431525,1.14120090261,34,5,0
eb,2,2,2,1,0.43486297448600003,0.9287296384829999,0.400093094419,35,5,1
eb,1,1,1,1,0.399370053397,0.893479656097,0.36493743847099996,36,5,1
eb,2,1,2,2,0.387625064344,0.340633942965,0.858903048977,37,5,0
eb,2,2,1,1,0.24658778923099997,0.305241123401,0.141305624204,38,5,1
eb,1,1,2,1,0.528946858795,0.7757695016060001,0.517718547619,39,5,1
eb,1,1,1,1,0.17583641562600003,0.43463274097599996,0.42372783473000003,40,5,1
eb,2,2,1,2,0.470122967025,0.43468933683899996,0.047192094443300005,41,5,1
eb,1,2,1,2,0.717207798833,1.01102464307,0.8706149275239999,42,5,0
eb,1,2,1,2,0.246640150029,2.46975605643,0.447105776128,43,5,0
eb,2,2,2,2,0.223080100856,0.199316383578,0.5059754835970001,44,5,1
eb,1,2,1,2,0.246707526056,0.19933447885400002,0.0706924677065,45,5,0
eb,2,2,1,1,0.411284060026,0.399373903455,0.588307448747,46,5,1
eb,1,2,1,1,0.17601929341400002,0.199370669406,0.153048303222,47,5,0
eb,2,2,2,2,0.21132471664500002,0.140566412935,0.823561435194,48,5,1
eb,2,2,2,1,0.17604431879500002,0.164045995881,0.282459556096,49,5,1
eb,1,1,2,2,0.340433739912,0.528723170385,0.917764286316,0,6,1
eb,2,1,2,2,0.23482008483199998,0.30524651348299997,0.835329524598,1,6,0
eb,1,1,2,2,0.18783050347600003,0.258191481129,0.388313069833,2,6,1
eb,1,2,2,2,0.30541360603,0.693573058521,0.14129753908099998,3,6,0
eb,1,1,2,2,0.517198019684,0.387642004602,0.5177120025199999,4,6,1
eb,1,1,2,2,0.22306547063299997,0.8110907100779999,0.905945376137,5,6,1
eb,2,2,2,2,0.223155947012,0.175697813513,0.12937313729299998,6,6,1
eb,2,1,2,2,0.223129381608,0.622741988702,1.05892283828,7,6,0
eb,2,2,1,1,0.19950080139,0.49352785883199995,0.42364582848000004,8,6,1
eb,2,1,1,2,0.987749498241,0.752266818308,0.964770422925,9,6,0
eb,2,2,1,1,0.164298944737,0.211092558106,0.3765365103,10,6,1
eb,2,2,1,1,0.152484654629,0.222948428849,0.435317281412,11,6,1
eb,2,2,1,1,0.199552392176,0.469876178262,0.6119379539940001,12,6,1
eb,1,1,2,2,0.7995158936200001,1.17575864444,0.423486821056,13,6,1
eb,1,2,1,1,0.188621305532,0.28169223939800003,0.7756686300679999,14,6,0
eb,2,2,1,2,0.22311898644900002,0.187547909168,0.905897635409,15,6,1
eb,1,1,1,1,0.340733274479,0.599360582252,1.10590856958,16,6,1
eb,1,1,2,1,0.8583594206890001,0.234572526058,0.517747808065,17,6,1
eb,1,1,1,2,0.23499564750799998,1.01108123893,0.552997405445,18,6,1
eb,2,1,2,1,0.48190838169399997,0.574856498687,0.341266122602,19,6,0
eb,2,2,1,1,0.211298921252,0.36348057626100005,0.411871578982,20,6,1
eb,1,2,1,2,0.21124040036,0.211177644403,0.43539543760300004,21,6,0
eb,1,1,2,1,0.223117831431,0.19884359637000001,0.12947131379000001,22,6,1
eb,2,1,2,2,0.529066980626,0.434518394233,1.0235469589700001,23,6,0
eb,2,2,2,1,0.599537684952,0.646342078485,0.647112090224,24,6,1
eb,1,2,2,2,0.423065239629,0.29357313552299996,0.49421778935099997,25,6,0
eb,1,1,1,1,0.293704037518,0.9169499989030001,0.44710924118,26,6,1
eb,2,1,2,2,0.199559707288,0.387584638728,0.25893608248000005,27,6,0
eb,2,2,1,1,0.564293862661,0.45812579912900003,0.376557300616,28,6,1
eb,1,2,2,2,0.51656083497,1.08232041497,0.153025587875,29,6,0
eb,1,2,1,1,0.235912731489,1.3875576883200003,0.269565709529,30,6,0
eb,2,2,2,1,0.17699528329300002,0.15225057105999998,0.37561288121799996,31,6,1
eb,2,2,1,2,0.364373789878,0.411097332179,0.0235354087972,32,6,1
eb,2,1,1,1,0.6583284662169999,0.517007441779,1.30590217848,33,6,0
eb,1,1,1,2,0.553440162195,1.06989396553,1.23432958736,34,6,1
eb,1,2,2,2,0.22306778066799998,0.645745704393,0.6000539778230001,35,6,0
eb,1,2,1,1,0.481888746394,0.469932774125,0.635383656423,36,6,0
eb,1,2,1,2,0.281526301869,0.540552860729,0.918002989955,37,6,0
eb,2,2,2,2,0.329113027328,0.8346480642090001,1.07047955946,38,6,1
eb,2,2,2,2,0.234855505372,0.6698928875169999,0.364738005431,39,6,1
eb,1,2,1,2,0.364231337707,0.5523263402149999,0.988220745425,40,6,0
eb,2,2,1,2,0.18787015908,0.681527379885,0.306003435022,41,6,1
eb,1,2,1,1,0.611407800911,0.681538930061,0.42419677188,42,6,0
eb,2,2,1,1,0.45824669097099996,0.505379494511,0.552965834964,43,6,1
eb,1,2,1,1,0.199599747898,0.540502809966,0.57640345227,44,6,0
eb,2,1,2,1,0.18773964209000002,0.211232700242,0.847108009162,45,6,0
eb,2,2,1,2,0.22295458894200001,0.422910082264,0.447247843294,46,6,1
eb,1,1,1,2,1.10532528568,0.340560406844,0.44715390186000004,47,6,1
eb,1,2,1,2,0.846590946278,0.575897169552,0.705934056965,48,6,0
eb,2,1,1,2,0.51716298415,0.39932616272699994,0.376551525528,49,6,0
eb,2,2,1,2,0.42222592683399995,0.7997549822650001,0.635354010972,0,7,1
eb,1,1,2,1,0.187817798283,0.29353424993,0.317689903183,1,7,1
eb,2,2,1,1,0.18794100016100002,0.234488594779,0.224576233665,2,7,1
eb,1,1,2,1,0.258323923148,0.19937143941799998,0.8706522730940001,3,7,1
eb,1,1,1,2,0.223059695545,1.0346077926000001,0.611842472539,4,7,1
eb,2,2,1,1,0.176075504271,0.281721114839,0.058917833202,5,7,1
eb,1,1,2,2,0.54069069283,0.7994331173579999,0.882378781865,6,7,1
eb,2,1,1,2,0.17605702398899997,0.539841754888,0.5177120025190001,7,7,0
eb,2,2,1,2,0.246588559243,0.375299101435,0.494188143898,8,7,1
eb,1,1,2,2,0.18855238948199998,0.328822732902,0.528616138753,9,7,1
eb,2,2,2,1,0.893487356214,0.764056083034,0.223696110247,10,7,1
eb,2,2,1,1,0.176626832676,0.246487687705,0.505331753783,11,7,1
eb,1,1,2,2,0.17609090450599998,0.222755925914,0.600065142993,12,7,1
eb,1,1,2,2,0.199565867381,0.35229038066699997,0.482406194283,13,7,1
eb,2,1,1,2,0.18862053552000002,0.599400237857,0.48154455114699996,14,7,0
eb,2,1,1,2,0.199637863479,0.7640780283699999,0.564663853301,15,7,0
eb,1,1,1,2,0.19953968698199998,0.669932158116,0.341254572426,16,7,1
eb,2,1,2,2,0.611339654874,0.375779973766,0.164751326634,17,7,0
eb,1,1,2,2,0.211367067291,0.37528447121200004,0.7176871311399999,18,7,1
eb,1,1,1,2,0.187764282467,0.693449471637,0.635350545919,19,7,1
eb,2,2,1,1,0.234897471011,0.634611719655,0.670609768446,20,7,1
eb,2,2,2,1,0.693649674689,0.6816979374850001,0.141250568365,21,7,1
eb,1,1,1,2,0.19955855227000002,1.03464667819,0.435318821435,22,7,1
eb,1,1,2,1,0.0935298608629,0.117152665993,0.36480230141099995,23,7,1
eb,2,1,1,2,0.576004971196,0.422878511783,0.717714081551,24,7,0
eb,1,2,1,2,0.281898602544,0.281727659938,0.552985470264,25,7,0
eb,1,2,2,2,0.18779469792999998,0.586635753261,0.22357329337499998,26,7,0
eb,2,2,1,1,0.517855994715,0.469783776854,0.140537152489,27,7,1
eb,2,2,1,1,0.211306236364,0.599218515086,0.317751119116,28,7,1
eb,1,1,2,2,0.17599542305,1.3522538051100002,0.09422479645670001,29,7,1
eb,1,1,2,1,0.587778065677,0.740479863615,1.10588700925,30,7,1
eb,2,1,2,1,0.234870905607,0.540532840423,0.564797835343,31,7,0
eb,1,1,2,1,0.387818722297,0.611058215582,0.458873480527,32,7,1
eb,2,2,1,2,0.187813563218,0.16402174051100002,0.471297234926,33,7,1
eb,1,1,2,2,0.505441480455,0.716986805463,0.058902047962,34,7,1
eb,1,1,1,2,0.328952479881,0.964051616967,0.0354347852035,35,7,1
eb,2,2,2,2,0.245914413966,0.517719317631,0.341241097221,36,7,1
eb,1,2,1,1,0.199540842001,0.23467108755999996,0.42358499755400003,37,7,0
eb,2,2,1,1,0.164266989251,0.46996049454800004,0.364799221364,38,7,1
eb,2,2,1,2,0.329375986336,0.46997666479500005,0.481986152879,39,7,1
eb,2,1,1,2,0.27013975328,0.5176211411339999,0.328849683314,40,7,0
eb,1,2,1,2,0.234874755666,0.140492876814,0.705900561454,41,7,0
eb,1,1,1,2,0.19959551283399998,0.752269898355,0.023625115164600002,42,7,1
eb,1,1,2,2,0.999501417398,0.34053692148500003,0.8941907619380001,43,7,1
eb,2,2,2,2,0.22372267565200002,0.187611050131,0.588640478824,44,7,1
eb,1,1,2,1,0.246687505752,0.211015171926,0.188343716301,45,7,1
eb,2,2,1,2,0.175992728009,0.293509224549,0.988298131605,46,7,1
eb,1,2,1,1,0.21131971157,0.681757613394,0.0236370503462,47,7,0
eb,2,2,1,2,0.505467275849,0.764011037349,0.035365869152000004,48,7,1
eb,2,2,1,1,0.24676373691300002,0.7521278311890001,0.329368671226,49,7,1
er,1,2,1,2,2.78737622494,0.657910957816,0.9294678081640001,0,0,0
er,2,1,2,2,1.08186757826,1.41108197457,1.4353077922100002,1,0,0
er,1,1,1,1,0.576048384595,0.552256470372,0.400059214095,2,0,1
er,1,1,1,1,0.517158430128,0.587587054935,0.505983206735,3,0,1
er,2,2,2,2,0.599537683185,0.481701563112,0.729471504223,4,0,1
er,2,2,1,1,0.846602290869,0.5640400053819999,1.94108348002,5,0,1
er,1,1,1,2,0.5760333694049999,0.999306216778,0.5176989804600001,6,0,1
er,2,2,1,1,0.540713949944,0.44645105994999995,0.44713675807,7,0,1
er,2,1,1,2,0.693549933378,0.5053594948260001,0.458862156956,8,0,0
er,1,2,2,1,0.45834355207599997,0.38763618195699995,0.40005613409400004,9,0,0
er,2,2,1,2,1.38771818852,0.5404894906100001,0.776513242512,10,0,1
er,1,1,1,1,0.39953021402500005,0.399386221252,0.882394114276,11,0,1
er,2,2,2,1,0.39963301102399995,0.469813306117,0.36479947087399994,12,0,1
er,1,1,1,1,0.43487003882200004,0.575814685202,0.376546430169,13,0,1
er,2,1,1,2,0.5055489184449999,0.399301904661,0.553015319863,14,0,0
er,1,1,2,1,0.387775169569,0.399506728572,0.376561060431,15,0,1
er,2,2,1,1,0.35251042118799997,0.293456838524,0.494193896651,16,0,1
er,2,1,1,1,0.38791184721,0.43465366470600003,0.999906443176,17,0,0
er,1,1,2,2,1.787641495,0.646419258381,0.364200784417,18,0,1
er,1,2,1,2,0.728974459751,1.9643656445599997,0.941219387576,19,0,0
er,1,1,1,1,0.387795574963,0.363022276899,0.329505076865,20,0,1
er,2,2,2,1,0.5053656550010001,0.41113433556199996,0.494234707381,21,0,1
er,2,1,2,2,1.11711192125,1.3640783520500002,2.52938857366,22,0,0
er,1,1,2,2,0.7751930523080001,0.694281832315,0.68241513567,23,0,1
er,1,1,1,1,0.41127871337800004,0.45824306516400004,1.11765093153,24,0,1
er,1,2,1,2,0.47007280105,0.751652932784,0.541260660393,25,0,0
er,2,1,1,2,0.728963679518,0.6816254856530001,0.964732556546,26,0,0
er,2,2,1,1,0.58775684319,0.493462382699,0.5059243006399999,27,0,1
er,2,2,1,2,1.11714888195,0.481729283638,0.353051741491,28,0,1
er,1,2,1,2,0.7172532959379999,0.29331284581,0.611827117798,29,0,0
er,2,2,1,2,0.611486386333,0.493233303248,0.400101949926,30,0,1
er,1,1,1,1,0.328903695394,0.458181463997,0.58827082807,31,0,1
er,1,2,1,2,0.552493634867,0.305143351725,0.376542965125,32,0,0
er,1,2,2,2,0.623029291746,0.458104847523,0.8236396824359999,33,0,0
er,2,1,1,2,0.540773241082,0.458123327873,0.576516553585,34,0,0
er,1,1,1,2,0.599549618375,0.728725360008,0.7059614153110001,35,0,1
er,2,2,2,2,0.423176980577,0.693327784073,0.388324960019,36,0,1
er,1,1,1,2,0.493654116348,0.50528441841,0.294195282622,37,0,1
er,2,2,1,2,0.7171809145370001,0.62286412355,0.682445936312,38,0,1
er,2,1,2,2,1.2818365466700001,2.03448972857,0.858878250292,39,0,0
er,2,1,1,2,0.940698087623,0.705052028003,0.576519633643,40,0,0
er,1,2,1,2,0.470079731196,0.575825080334,0.611870238674,41,0,0
er,1,2,1,2,0.575972538209,0.59937020496,0.43543753965099996,42,0,0
er,1,2,1,2,0.881830848579,0.9042459765909999,0.47068919782799995,43,0,0
er,1,2,1,2,0.623075107636,0.7640224489730001,0.6000354976860001,44,0,0
er,2,2,1,2,0.422535558289,0.32869232638,0.423630134261,45,0,1
er,2,2,1,2,0.45832584175499996,0.222904241353,0.423657084757,46,0,1
er,2,1,2,2,1.76519094635,0.9520973853069999,0.657875537116,47,0,0
er,2,1,1,2,0.6817217374339999,0.975904314895,32.5859796493,48,0,0
er,1,1,2,2,2.01047913008,0.44699392031199997,0.553057285666,49,0,1
er,2,2,1,1,0.5761307762,0.468954739685,0.35302055592200005,0,1,1
er,1,1,1,1,0.329134314787,0.564033075178,0.32935222896,1,1,1
er,2,2,2,1,0.469110282662,0.470970253169,0.435403274023,2,1,1
er,1,1,2,1,0.387747064,0.43466174986699996,0.494200056768,3,1,1
er,2,2,1,1,0.49352898891099994,0.540620778163,0.435403274023,4,1,1
er,2,1,2,1,0.528679005161,0.328850179387,0.694294152549,5,1,0
er,2,2,2,1,0.42306802346100003,0.42289939028000006,0.400085779605,6,1,1
er,1,1,1,1,0.35234679305,0.364067571878,0.600056288065,7,1,1
er,1,1,1,1,0.305382826249,0.316975012654,0.34133173275,8,1,1
er,1,1,1,1,0.375730214582,0.31803455285300003,0.505074589397,9,1,1
er,2,2,2,1,0.434855793603,0.7641102306659999,0.635391492804,10,1,1
er,2,1,2,2,1.30549409345,0.7746190063189999,0.48243962216700004,11,1,0
er,1,1,2,1,0.45833662193,0.516991336946,0.470676107565,12,1,1
er,1,2,1,1,0.611429405224,0.528735216183,0.646925928013,13,1,0
er,2,2,2,2,0.7870743791570001,0.752950792608,1.7646815815799999,14,1,1
er,1,2,1,2,0.846497953869,0.9170132053550001,1.23533997883,15,1,0
er,1,1,2,1,0.551524571376,1.30584060005,0.565672051511,16,1,1
er,2,1,1,1,0.506426735199,4.0932145149,0.6933350992039999,17,1,0
er,2,2,1,2,0.998671724636,0.38762193662100003,0.353148378374,18,1,1
er,1,2,1,1,0.717170904391,0.611106769124,0.552937548375,19,1,0
er,2,2,2,1,0.588651600352,0.458144503238,0.387424042856,20,1,1
er,1,1,1,1,0.328985701955,0.39933347527400004,0.48242499190399996,21,1,1
er,2,1,1,2,0.693638099998,0.45817337883599996,0.37658185081100004,22,1,0
er,2,1,1,2,0.49373111780699996,0.516917415487,0.858874015161,23,1,0
er,1,1,2,1,1.2111353366600002,0.681717117375,0.553090396221,24,1,1
er,1,1,1,2,0.693760147376,0.446396773914,0.34112690883900004,25,1,1
er,1,1,1,1,0.352509266115,0.35225670132799997,0.34125126624700003,26,1,1
er,2,1,2,2,0.42409329809,0.6345798972760001,0.810806617374,27,1,0
er,1,2,2,2,0.446640483569,0.587537774059,0.517693205329,28,1,0
er,2,2,2,2,0.48179473489299995,0.740526990383,0.45897034404299997,29,1,1
er,1,2,1,1,1.1524294156700001,0.39936966600400003,0.54123948497,30,1,0
er,2,1,1,2,0.49364603112899996,0.705211805995,0.447158703464,31,1,0
er,2,2,2,1,0.481708878244,0.45820340939099996,0.564872391231,32,1,1
er,1,1,2,1,0.482378406043,0.693466001714,0.56419785833,33,1,1
er,1,1,2,1,0.38775976927699995,0.434611698904,0.376561060431,34,1,1
er,2,2,2,1,0.481844015769,1.09345514455,0.506022477464,35,1,1
er,1,1,1,2,0.716985330859,0.7875437031029999,0.317873234802,36,1,1
er,2,2,1,2,0.340696470637,0.293501114415,0.541276830714,37,1,1
er,2,2,1,1,0.564304505417,0.352193945146,0.647104956442,38,1,1
er,1,1,2,1,1.21124429372,0.54050489096,0.588320878975,39,1,1
er,1,1,2,1,0.493657581392,0.399350030581,0.517730551015,40,1,1
er,2,2,2,1,0.42303298780500004,0.411102765007,0.670690506871,41,1,1
er,2,2,2,1,0.34076692693599997,0.340473551361,0.329544347653,42,1,1
er,2,2,2,1,0.352422639495,0.30521919817,0.600129824481,43,1,1
er,1,1,2,1,0.43481267278499997,0.575798129896,0.7177280100300001,44,1,1
er,2,2,2,1,0.399560629565,0.316974242625,0.47062374657300005,45,1,1
er,1,1,2,1,0.423069563461,0.422831243952,0.517735941161,46,1,1
er,1,1,2,1,0.37597392423799997,0.693679295829,0.36481756618,47,1,1
er,1,1,2,1,0.41129834874300003,0.493391156313,0.49418388638899996,48,1,1
er,2,2,2,1,0.40025133278700004,0.398647777154,0.340696470579,49,1,1
er,1,1,2,2,0.870106989692,1.24532937957,0.41167950601099995,0,2,1
er,1,1,1,2,0.5995045725720001,0.330268931459,0.740617852076,1,2,1
er,2,2,2,1,0.422118595394,0.317007738282,0.353002075572,2,2,1
er,2,2,2,1,0.5052932736,0.5992643279609999,0.376618811511,3,2,1
er,2,1,1,2,0.43421976140199997,0.529296941939,0.37646827369499997,4,2,0
er,2,2,2,1,0.31611798628000004,0.30509984586399996,0.365907136991,5,2,1
er,1,1,2,1,0.35316454869499997,0.386667118408,0.587650196161,6,2,1
er,1,1,1,2,0.5748883575429999,0.8707226164409999,0.353064061783,7,2,1
er,1,1,1,1,0.435384023644,0.42338603956200005,0.763483438757,8,2,1
er,2,1,1,2,0.68289369985,0.375774105429,0.43417741061399995,9,2,0
er,2,2,2,2,0.400215527101,0.351618744142,0.469899932737,10,2,1
er,1,2,1,2,0.9747215723039999,0.365004294727,0.45975344895900006,11,2,0
er,2,2,1,2,0.447523690469,0.305105620995,0.434563187941,12,2,1
er,2,2,2,1,0.305181852484,0.270884242491,0.328833624022,13,2,1
er,1,1,1,2,0.635788050364,0.693271572993,0.7527294133910001,14,2,1
er,1,2,1,2,0.457163889543,0.21207398455600002,0.388485508098,15,2,0
er,1,1,1,2,0.705393914483,1.1630213529,0.388308789756,16,2,1
er,2,2,2,1,0.306080844603,0.257075953879,0.35252890153800004,17,2,1
er,2,2,2,1,0.23546703124899998,0.234688931378,0.48182476544799996,18,2,1
er,1,1,2,1,0.25840153417100004,0.316970777523,0.45880094077399997,19,2,1
er,2,2,2,1,0.24663147440900002,0.22286997572500003,0.341237405955,20,2,1
er,1,1,2,2,0.423028367746,0.575922872289,0.6000612931679999,21,2,1
er,1,1,2,1,0.587761463306,0.340508587018,0.400083854562,22,2,1
er,2,2,1,2,1.1289293369,0.764051709557,0.9647494968960001,23,2,1
er,1,1,1,2,0.728954439401,0.717012666399,0.576510393468,24,2,1
er,2,1,1,2,0.398923827452,0.763906946813,0.471371045802,25,2,0
er,1,1,1,2,0.387771319482,0.505225512316,0.494216612075,26,2,1
er,2,2,2,1,0.293715563486,0.199352571683,0.470630291675,27,2,1
er,1,2,1,2,1.7524225625099998,0.36402984114799997,0.776490912132,28,2,0
er,2,2,2,1,0.292820421455,0.36475789005599996,0.43534706294299996,29,2,1
er,1,1,2,1,0.30554144934300004,0.433787783142,0.400101949926,30,2,1
er,2,2,2,1,0.23423308268000004,0.270608192252,0.400063834211,31,2,1
er,1,1,2,1,0.293660507479,0.7052468417100001,0.517725931015,32,2,1
er,1,1,1,2,0.7642376680740001,0.775782498589,0.31773809721900004,33,2,1
er,2,2,2,2,0.29353615007100003,0.281776100514,0.353024790995,34,2,1
er,2,2,1,1,0.599553468463,0.881665295397,0.400069224299,35,2,1
er,1,1,2,2,0.623046617024,0.528742916358,0.305929151713,36,2,1
er,2,2,2,1,0.24662916438000002,0.234654280706,0.317728472,37,2,1
er,2,1,1,2,1.2348021235700002,0.8228042164120001,1.2235487437,38,2,0
er,1,1,1,2,1.46994305355,0.670059479831,0.647063760727,39,2,1
er,2,2,1,2,0.823015970469,0.24637390452,0.5412764456710001,40,2,1
er,2,2,1,2,0.493640256056,0.234622325108,0.364819106238,41,2,1
er,1,2,1,2,0.411341084575,0.222869975667,0.37656221544600005,42,2,0
er,2,1,1,2,0.799525901966,0.44639985403000004,0.5293847236320001,43,2,0
er,1,1,1,2,0.599491097266,0.881647970062,0.658924682182,44,2,1
er,2,2,1,2,0.681895375834,0.269907093898,0.31774464232099997,45,2,1
er,1,1,1,1,0.35248116060400003,0.575822385319,0.43535476311800003,46,2,1
er,1,1,2,1,0.387785949744,0.434650199662,0.611792852171,47,2,1
er,1,1,1,1,0.35252543649400003,0.529244580946,0.553008004674,48,2,1
er,2,2,2,1,0.38762540172300003,0.611217651167,0.306022323552,49,2,1
er,2,2,1,1,0.364022526017,0.363794986682,0.447122897836,0,3,1
er,2,2,2,1,0.164214875665,0.14059775474000002,0.294234168367,1,3,1
er,2,2,2,1,0.152605363983,0.140662050922,0.32930910820099996,2,3,1
er,2,2,2,1,0.305477923132,0.305179542396,0.6000624481819999,3,3,1
er,1,2,2,1,0.364258150512,0.575822770363,0.470659552258,4,3,0
er,1,1,2,1,0.37605670077,0.375781805546,0.8941426136299999,5,3,1
er,2,2,2,1,0.353091397265,0.328773947957,0.31713094061700003,6,3,1
er,1,1,2,2,0.386833056575,0.38851130363799996,0.329474276281,7,3,1
er,1,1,1,1,0.39952828903899995,0.8463720565199999,1.18828630535,8,3,1
er,1,1,1,2,0.364308971504,0.34055016783500003,0.29411019606100003,9,3,1
er,2,1,1,2,0.552502105013,0.445691440487,0.447171793785,10,3,0
er,1,2,2,2,0.387536850001,0.44628319679799994,0.94144538691,11,3,0
er,1,2,1,2,0.741270439583,0.328790118219,0.5994903272950001,12,3,0
er,1,1,2,2,0.528881518985,0.399413171806,0.376605336263,13,3,1
er,1,2,1,2,0.62301042641,0.246429730614,0.43539942393500003,14,3,0
er,2,2,2,1,0.305485623248,0.269914023986,0.317768127774,15,3,1
er,2,2,2,1,0.259084152232,0.269905938825,0.5876432660149999,16,3,1
er,2,2,2,1,0.258348788193,0.269947904686,0.341262431408,17,3,1
er,2,2,2,1,0.246530602511,0.246441665804,0.317782758037,18,3,1
er,1,1,1,2,0.6465963617670001,0.7640286091480001,0.458932613314,19,3,1
er,1,1,2,1,0.29364087205600004,0.505289808498,0.43537786352700003,20,3,1
er,2,2,2,1,0.246668050124,0.245780608209,0.305977662676,21,3,1
er,1,1,2,1,0.29371902853,0.505304053833,0.435318957374,22,3,1
er,2,2,2,1,0.281860417104,0.258162829676,0.364785995567,23,3,1
er,2,2,2,1,0.25835802836800004,0.269973700168,0.329490831646,24,3,1
er,2,2,2,1,0.27074063482,0.269989100401,0.68177140347,25,3,1
er,1,1,2,1,0.293632016866,0.31705008907,0.329490446602,26,3,1
er,2,2,2,1,0.25837150361600003,0.269942899526,0.18836369179200002,27,3,1
er,1,1,2,1,0.34068838547700003,1.48166922247,0.282445243269,28,3,1
er,1,1,1,1,0.27007572708,0.882309797686,0.317746182322,29,3,1
er,2,2,2,1,0.258258311427,0.38767622265699997,0.353093322308,30,3,1
er,1,1,2,1,0.328361990047,0.353023250995,0.6000893986779999,31,3,1
er,2,2,2,1,0.293640102085,0.35228711692599995,0.0587190111983,32,3,1
er,1,1,2,1,0.352576257428,0.39924607862499994,0.6000277975689999,33,3,1
er,1,1,2,2,0.5175784731399999,0.551855292695,0.341228550766,34,3,1
er,1,2,2,2,0.317129015573,0.317049704085,0.329532027419,35,3,0
er,2,2,2,1,0.305873325618,0.340642954572,0.517131479632,36,3,1
er,2,2,1,2,0.987808357226,0.387589981023,0.36479254072800005,37,3,1
er,1,1,1,2,0.317202166945,0.552317686495,0.30589065095400003,38,3,1
er,2,2,2,1,0.481914472126,0.24639430985599997,0.40006421925499996,39,3,1
er,1,1,2,1,0.36426623561399996,0.352367968473,0.305809799407,40,3,1
er,2,2,2,1,0.493644106144,0.43481151777099997,0.517743256292,41,3,1
er,1,1,1,1,0.329036907991,0.375717509363,0.32949275663100003,42,3,1
er,2,2,2,1,0.340746521542,0.305200717819,0.38832226500399997,43,3,1
er,2,1,1,2,0.38763964694200004,0.575811990129,0.306065444311,44,3,0
er,1,2,1,2,1.42305531824,0.352240531007,1.03521046235,45,3,0
er,2,2,2,1,0.387800965051,0.45816837373400005,0.31775811757,46,3,1
er,1,1,1,2,0.411329534312,0.622812532587,0.35300515563,47,3,1
er,1,2,1,2,0.364128018031,0.540546086733,0.329618654097,48,3,0
er,2,1,1,2,0.505382980278,0.575836630596,1.71765639866,49,3,0
er,1,1,1,2,0.775790583692,0.6461732386379999,0.470571000536,0,4,1
er,1,2,1,2,0.5760479996100001,0.281694093952,0.49415539589199997,1,4,0
er,2,2,2,1,0.31713363569,0.28176532028,0.353022866009,2,4,1
er,2,2,1,2,0.681937726622,0.18765219819,0.31771230173799997,3,4,1
er,1,1,2,2,0.540775166068,0.598759583314,0.294217998104,4,4,1
er,2,2,2,1,0.223067099461,0.234656975779,0.329520092171,5,4,1
er,2,2,2,1,0.234850634472,0.23470125166900002,0.117721002898,6,4,1
er,2,1,1,1,0.317183301609,0.352404929174,0.32950969704,7,4,0
er,1,2,1,2,0.681888060644,0.258118938771,0.788332583208,8,4,0
er,1,1,1,2,0.7524649132969999,2.32864381548,0.56470452802,9,4,1
er,2,1,1,2,0.599479547061,0.705188320542,0.6589343073430001,10,4,0
er,1,2,1,2,0.411251762882,0.281739524798,0.553021864966,11,4,0
er,2,2,1,2,0.399594895251,0.292402303428,0.376489064016,12,4,1
er,1,2,1,2,0.34073343128,0.234651970677,0.294221078104,13,4,0
er,2,2,1,2,0.528910779569,0.211130716547,0.41189742018500003,14,4,1
er,2,2,2,2,0.375991634559,0.24640663014699998,0.341020646738,15,4,1
er,1,1,2,1,0.352504261071,0.45812948799,0.4353790186,16,4,1
er,1,2,1,2,0.481916782213,0.5404656201720001,1.55296449887,17,4,0
er,1,1,2,1,0.30546213779599996,0.28164789307599997,0.341324032575,18,4,1
er,2,2,2,1,0.305392836512,0.24641086522,0.5059739665590001,19,4,1
er,2,2,1,2,0.387756304233,0.269895928679,0.329540497623,20,4,1
er,2,1,1,2,0.43422515148999996,0.670525338675,0.270627442689,21,4,0
er,1,1,1,2,0.6706081152660001,0.49352167377899997,0.8347556146330001,22,4,1
er,1,2,1,2,0.386796095874,0.259169623838,0.917660017731,23,4,0
er,2,2,1,2,0.293688997976,0.305186857586,0.376556055329,24,4,1
er,1,2,1,2,0.38801002403499996,0.281537010975,0.082328432065,25,4,0
er,2,1,2,1,0.293668592582,0.50460911548,0.341301317152,26,4,0
er,2,2,1,2,0.353499890072,0.25814858434,0.551968484826,27,4,1
er,1,1,2,1,0.328978001839,0.30519879277600004,0.38833728031,28,4,1
er,1,2,1,2,0.352508111158,0.281720274419,0.353022095922,29,4,0
er,1,2,1,2,0.623260681168,0.210823865724,1.6235498217299997,30,4,0
er,1,2,1,2,0.48193487751999997,0.25812856399,0.329476971354,31,4,0
er,2,2,2,1,0.234854099515,0.222908861411,0.282419447787,32,4,1
er,2,2,1,2,1.55250287504,0.352245536109,1.69412705937,33,4,1
er,1,1,2,2,1.08188105351,0.764008973725,0.611823652755,34,4,1
er,2,2,1,2,0.952447741991,0.281700254069,1.02358362533,35,4,1
er,2,2,1,2,0.716507921694,0.341187354934,1.0000458158299999,36,4,1
er,1,1,2,1,0.28186426719200003,0.281732594653,0.32948736654399996,37,4,1
er,2,2,1,2,0.43487619899700003,0.35229481704300003,0.317737712176,38,4,1
er,1,1,1,2,0.446601597883,0.316979632713,0.423612038896,39,4,1
er,2,1,1,2,1.63475353562,0.669925497205,1.0235574448,40,4,0
er,1,2,1,2,0.387793264934,0.317047393997,0.388299549581,41,4,0
er,1,1,2,2,0.752482623619,0.5759363475370001,0.364734019618,42,4,1
er,1,2,1,2,0.6935780388889999,3.46978289046,0.435395188862,43,4,0
er,2,2,1,2,0.34074228646899996,0.352266326488,0.329510852054,44,4,1
er,2,2,2,1,0.234881435055,0.211135336605,0.270627827616,45,4,1
er,2,1,2,2,0.43476839689499996,0.50519933179,0.294293459505,46,4,0
er,1,1,2,1,0.376040915493,0.387557640381,0.36475789005599996,47,4,1
er,1,1,1,1,0.375343282125,0.40005343902199997,0.552927153185,48,4,1
er,2,2,1,2,0.317044698982,0.293497264327,0.400193966692,49,4,1
er,2,2,1,2,0.999255780771,0.22269364231,64.395237767,0,5,1
er,2,2,1,2,0.281913933111,0.281754540105,0.35301709087800004,1,5,1
er,1,1,2,1,0.223108295235,0.258192475187,0.247128903924,2,5,1
er,1,2,1,2,0.328300773865,0.247043817304,0.45890681783200005,3,5,0
er,2,1,1,2,0.281877357455,0.293496494356,0.305999223026,4,5,0
er,2,2,2,2,0.45833469688699996,0.281719889492,0.36482873139899996,5,5,1
er,2,1,1,2,0.317224882427,0.246378909564,0.435918028874,6,5,0
er,1,2,1,2,0.352527746523,0.258160519588,0.329477356339,7,5,0
er,1,1,1,1,0.258330307843,0.25825215130999996,0.35304211638899996,8,5,1
er,1,2,1,2,0.293690923019,0.234658130794,0.35297628009000004,9,5,0
er,2,2,1,2,0.340750756674,0.234611544933,0.305940316932,10,5,1
er,2,2,1,2,0.317220647295,0.269252966391,0.42357392312299996,11,5,1
er,2,2,1,2,0.517224651412,2.25742823555,0.776505542395,12,5,1
er,2,2,1,2,0.634857872617,0.23458305431999996,0.7529989185279999,13,5,1
er,1,1,2,1,0.270108837693,0.611277712334,0.541222929663,14,5,1
er,1,1,2,2,0.834752534633,0.56313331303,0.41189780516999996,15,5,1
er,1,2,2,2,0.317162126186,0.31700042315099997,1.27068172867,16,5,0
er,2,2,1,2,0.375886912574,0.36440868838699997,0.423593943531,17,5,1
er,1,1,1,2,0.305366271001,0.575805445027,0.411893955141,18,5,1
er,1,2,1,2,0.5760002587340001,0.199326391157,0.0824354641372,19,5,0
er,2,2,1,2,0.281899302849,0.24645398603799998,0.341223545664,20,5,1
er,2,2,1,2,0.28188544261500004,0.211147656897,0.317772362847,21,5,1
er,1,1,2,1,0.5288907591600001,0.39935234060999997,1.1177340931,22,5,1
er,2,2,1,1,0.410297329654,0.329779587162,0.5883108687699999,23,5,1
er,2,2,1,2,0.305403231643,0.317055864201,0.541235634882,24,5,1
er,1,2,1,2,0.293635866954,0.281747995003,0.7882998575810001,25,5,0
er,1,1,1,1,0.552545610873,0.481632646755,0.564792309713,26,5,1
er,2,1,1,1,0.305417091935,0.8934392051890001,0.458842906577,27,5,0
er,1,2,1,2,0.423046463053,0.25830759241900003,0.8118030163459999,28,5,0
er,1,1,2,1,0.37599933467600005,0.24643627571600002,0.35302363598000003,29,5,1
er,1,1,2,1,0.328918325715,0.30523883353500003,1.90589688806,30,5,1
er,2,2,1,2,0.258354563266,0.211071810394,0.317751187482,31,5,1
er,2,1,2,1,0.293663587479,0.258261776471,0.353010930761,32,5,0
er,1,2,1,2,0.34073843644,0.352286731941,1.25879655173,33,5,0
er,2,2,1,1,0.340697240608,0.42291671555699994,0.376546430169,34,5,1
er,1,1,1,1,0.22301473846900002,0.540645033587,0.764754347969,35,5,1
er,1,1,1,1,0.470082811255,1.23400785337,0.65889388154,36,5,1
er,2,1,1,1,0.37604322558,0.35233909293300003,1.4706044961899998,37,5,0
er,2,2,1,2,0.364108382666,0.42291671555699994,1.08245586953,38,5,1
er,1,1,1,1,0.364263925585,5.71657298796,0.376551435271,39,5,1
er,2,1,1,2,0.611276557378,0.434681000246,1.1529861363200002,40,5,0
er,2,2,1,2,0.398881476664,0.24702225689500001,1.3529774351,41,5,1
er,2,1,1,1,0.352465375327,0.352338707889,0.470671102463,42,5,0
er,2,2,2,1,0.19958203600299998,0.19931792101100002,0.329521247186,43,5,1
er,2,2,2,1,0.223054009199,0.22294582216999997,0.317716536811,44,5,1
er,1,1,2,1,0.234791343391,0.234667370969,0.34127898671400003,45,5,1
er,1,1,2,1,0.246536762628,0.234640420415,0.36487377726,46,5,1
er,1,1,2,1,0.281886982673,0.234633105341,0.40008385461999996,47,5,1
er,1,1,2,2,0.399509808631,0.5641158517679999,0.541261045379,48,5,1
er,1,2,1,2,0.281950508826,0.269958684861,0.32946118607700003,49,5,0
er,2,1,2,1,0.399288814457,0.799216356012,0.647161552566,0,6,0
er,1,2,1,2,0.270131553174,0.199332936259,0.388101655815,1,6,0
er,1,1,2,1,0.19953237008299998,0.23468816140700002,0.365210273711,2,6,1
er,1,1,1,1,0.234633105341,0.234702406626,0.49417849635899996,3,6,1
er,1,1,2,1,0.270161583729,0.269957914832,0.35303133615500004,4,6,1
er,2,2,2,1,0.329358389077,0.281662523339,0.282895701879,5,6,1
er,2,1,1,1,0.270103447605,0.411133565591,0.494235477468,6,6,0
er,2,2,1,2,0.246631859452,0.305245378695,0.35300361563,7,6,1
er,1,1,1,2,0.423309038102,0.481445918209,0.282446398283,8,6,1
er,2,2,1,1,0.505292503571,0.646423493454,0.153180179943,9,6,1
er,2,1,1,1,0.32894681626899996,0.246465151256,0.294202212768,10,6,0
er,2,2,1,2,0.387795574963,0.234668525984,0.494203521812,11,6,1
er,1,2,1,2,0.29363240191,0.187623707636,0.31759872456300003,12,6,0
er,2,2,2,1,0.24657102825599997,0.269967539993,0.317754652526,13,6,1
er,2,2,2,1,0.23476670286600002,0.47002082504299997,0.341312867415,14,6,1
er,2,2,2,1,0.234857949603,0.222875365755,0.317761197686,15,6,1
er,1,1,1,2,0.552620302304,0.387462158571,0.43537362845399996,16,6,1
er,1,1,2,2,0.43480189255199997,0.340518982208,0.564832350472,17,6,1
er,1,1,1,2,0.411332614371,0.387475248892,0.32953125739,18,6,1
er,1,2,1,2,0.411323759239,0.17578203656,0.55300299963,19,6,0
er,1,1,1,2,0.423036452848,0.34056595311300003,0.30597188754500004,20,6,1
er,1,2,1,2,0.328958366474,0.30524268356400003,0.44708170206299996,21,6,0
er,2,2,2,1,0.25840807927299997,0.258115088684,0.28242021781599996,22,6,1
er,1,1,2,1,0.28190661798,0.269941744569,0.18832750112100002,23,6,1
er,2,2,1,2,0.270002575708,0.222984707914,0.176578231738,24,6,1
er,1,2,1,2,0.305524508993,0.25822789582899996,0.5411501632769999,25,6,0
er,2,2,2,1,0.211362105969,0.211139956722,0.294177187316,26,6,1
er,2,2,2,1,0.223083269782,0.222906166397,0.294203367841,27,6,1
er,2,2,2,1,0.223089429899,0.258148969384,0.317710761679,28,6,1
er,1,2,2,1,0.23484177928199998,0.23460499977200003,0.270737169718,29,6,0
er,2,2,2,1,0.340844313439,0.411098529934,0.305819809611,30,6,1
er,1,1,2,2,1.6464970298700001,0.5052436076219999,0.305974582559,31,6,1
er,2,2,1,2,0.6465578610080001,0.399408551748,1.7411695676299999,32,6,1
er,1,1,2,1,0.37596044899000003,0.3405343825,0.43545024486999995,33,6,1
er,1,1,2,1,0.352452670049,0.258199020289,0.5177559615690001,34,6,1
er,2,2,2,1,0.258331847843,0.258212495537,0.28245756356,35,6,1
er,1,1,2,2,0.281882362557,0.740506584989,1.28239480732,36,6,1
er,2,1,1,1,0.387803660065,0.45815374347099996,0.494164636126,37,6,0
er,1,2,1,2,0.505517732876,0.328766247781,0.411737257091,38,6,0
er,2,1,2,2,0.587777633627,0.304570460808,1.59999545693,39,6,0
er,1,2,1,2,0.528677080059,0.317157891172,1.27067595354,40,6,0
er,1,1,1,1,0.38785794615999997,0.42205237410999996,0.658928147226,41,6,1
er,1,2,1,1,0.575848565844,0.810987185803,1.9887812708000001,42,6,0
er,1,1,1,2,0.670108375722,1.06988114439,0.635374167468,43,6,1
er,2,1,2,2,1.2347447574700001,0.5875955251389999,0.9529890622939999,44,6,0
er,2,2,1,2,0.5171884606830001,0.246418180352,0.41183581901699995,45,6,1
er,2,2,1,2,0.37603129033200006,0.245510333043,0.364794465771,46,6,1
er,1,1,2,1,0.846568025183,0.364057946717,0.447112117603,47,6,1
er,2,2,1,2,0.305418631935,0.23470895172800002,0.317788148182,48,6,1
er,2,1,1,2,0.423023747629,0.410512548755,0.917714688752,49,6,0
er,2,2,2,1,0.24632808863000002,0.24620912136700002,0.32953587750700003,0,7,1
er,1,2,2,1,0.246660734934,0.26990555384,0.023613270896000002,1,7,0
er,2,2,2,1,0.22307749465100002,0.23469432152300002,0.29420721787,2,7,1
er,2,1,2,1,0.282524554757,0.269954449788,0.317143645894,3,7,0
er,1,1,2,1,0.26975309092099997,0.269984095357,0.40042381605599997,4,7,1
er,1,1,2,1,0.294267664023,0.293486099108,0.281815371243,5,7,1
er,1,1,2,1,0.29371902853,0.258113163698,0.45890181273,6,7,1
er,2,1,2,1,0.340811202826,0.34037960955200003,0.317713071709,7,7,0
er,2,2,2,1,0.270818021265,0.458186084055,0.3052923496,8,7,1
er,1,2,1,2,0.293677062786,0.26990131876699996,0.29421222303100003,9,7,0
er,1,1,2,2,0.28193587856400004,0.258182464982,0.282396732364,10,7,1
er,1,2,1,2,0.281862727192,0.29345799359700003,0.294238018454,11,7,0
er,2,2,2,1,0.223146411008,0.258044247341,0.305960722326,12,7,1
er,2,2,2,1,0.223413221072,0.24648825172299998,0.5408821981399999,13,7,1
er,2,2,2,1,0.305287344439,0.246456296067,0.459024245094,14,7,1
er,1,1,2,2,0.36424044019100005,0.36407719703900004,0.36478445550899996,15,7,1
er,1,2,1,2,0.30539745657,0.328593764512,0.45896610891199996,16,7,0
er,2,2,1,2,0.305404386716,0.258158209559,0.329517782142,17,7,1
er,1,2,1,2,0.29368437791700003,4.9640611037,0.505899660173,18,7,0
er,2,2,1,2,0.26913592417300003,0.282712823362,0.600035112642,19,7,1
er,2,1,2,1,0.25844619504599997,0.258214805624,0.49419620668,20,7,0
er,1,1,2,1,0.27015349856800003,0.305241143622,0.764762433129,21,7,1
er,2,2,1,2,0.306126660493,0.269775036315,0.34068992547700006,22,7,1
er,2,2,1,2,0.317732322088,0.305266939045,0.328906390467,23,7,1
er,2,2,1,2,0.364154968527,0.211130716547,0.45898343424800003,24,7,1
er,1,1,2,1,0.27010652766300003,0.28172604954999997,0.305995757983,25,7,1
er,2,2,2,2,0.458321221638,0.505286728439,0.905889187939,26,7,1
er,1,1,1,1,0.293663972465,0.258029232093,0.529485980514,27,7,1
er,1,1,1,1,0.270133093174,0.222896541178,0.282417522743,28,7,1
er,1,1,1,1,0.281833851652,0.2346746861,0.36466664331999993,29,7,1
er,1,1,1,1,0.246658809949,0.233920456725,0.588336279325,30,7,1
er,1,1,2,2,0.587731047708,0.340516672179,0.388403116551,31,7,1
er,2,2,1,2,0.258413469419,0.175738530757,0.294238018454,32,7,1
er,1,2,1,2,0.37599047954400006,0.269982170314,0.341292847006,33,7,0
er,1,1,1,1,0.246579113416,0.21114688681,0.317766972759,34,7,1
er,2,1,1,1,0.258356103324,0.246412790264,0.294223773235,35,7,0
er,2,2,2,1,0.24659528373700002,0.246538687614,0.317724236986,36,7,1
er,2,1,2,2,0.552476309531,0.528760626679,0.294233398396,37,7,0
er,2,1,1,1,0.43484462832599996,1.59926432796,0.36477252031900004,38,7,0
er,1,1,1,1,2.1288673507499998,0.846322005556,1.57650076831,39,7,1
er,1,2,2,2,0.282546885195,0.246371209447,0.3053308503,40,7,0
er,1,2,1,2,0.22307595465100002,0.270055321686,0.34124780114500003,41,7,0
er,2,2,2,1,0.23483446420899998,0.246412020235,0.294183732476,42,7,1
er,1,2,2,2,0.35250580107100005,1.63459568261,0.294160632009,43,7,0
er,1,1,2,2,0.412077988614,0.540565722098,0.410995347949,44,7,1
er,2,2,2,1,0.599468381901,1.01110977214,0.5177632767010001,45,7,1
er,2,2,2,1,0.281875817454,0.258178614953,0.247113888676,46,7,1
er,2,2,1,1,0.681742142828,0.340606763843,0.517808322562,47,7,1
er,1,2,1,2,0.58776492835,0.34052283223700003,0.541267590481,48,7,0
er,2,2,1,2,0.528914244613,0.717101988092,2.67051956354,49,7,1
hgh,1,2,1,2,2.6941370921099996,0.940234383874,1.17559501695,0,0,0
hgh,1,1,1,1,0.7524566262000001,0.869923841994,0.976528117171,1,0,1
hgh,2,2,2,1,1.05829874377,0.35776169906599997,0.929467694732,2,0,1
hgh,2,1,1,2,0.5046106377849999,0.35300456655400003,0.8706830735609999,3,0,0
hgh,1,1,1,1,3.37580538416,0.258151440517,0.658913290128,4,0,1
hgh,1,1,2,1,0.49312244766,0.352801283458,1.0353470038700001,5,0,1
hgh,2,2,1,1,0.62302034795,1.1640279006,1.05889165281,6,0,1
hgh,2,1,1,1,0.905440633433,0.19933486386399998,0.894072950134,7,0,0
hgh,1,1,1,1,0.35247441346299996,1.4463492396000002,0.8118218362209999,8,0,1
hgh,2,2,1,2,0.5289395436850001,0.18757986465100002,1.8940910454099997,9,0,1
hgh,2,1,1,1,0.305481367061,2.25806404419,0.964715752081,10,0,0
hgh,1,1,1,2,1.64634207849,0.27008084738899996,0.6941936879880001,11,0,1
hgh,1,1,2,1,1.2112735108700001,0.646341308471,0.635346695854,12,0,1
hgh,1,1,2,1,0.43478597331,0.49345470771399996,0.458953561756,13,0,1
hgh,2,2,1,2,0.6230807938699999,0.870033183659,0.8353229795029999,14,0,1
hgh,1,1,1,1,0.552492662755,0.269894504541,0.7412344751209999,15,0,1
hgh,1,1,1,2,0.764090733574,0.540514745153,2.49414309821,16,0,1
hgh,2,2,1,2,1.1876691860100002,0.305234963307,1.305936829,17,0,1
hgh,2,2,1,2,1.05831529901,0.564042838843,0.435369257204,18,0,1
hgh,2,1,1,1,0.622555260852,0.411587444643,0.633929104253,19,0,0
hgh,1,1,1,1,0.340697083928,0.39939469377,0.35302728190399996,20,0,1
hgh,2,2,2,1,0.59958812072,0.364032674683,0.6000304924669999,21,0,1
hgh,1,1,2,1,0.681846549749,0.317228281143,0.447162757002,22,0,1
hgh,2,2,1,1,1.03457930217,0.364024204551,0.435616430972,23,0,1
hgh,1,1,2,1,0.528864852546,0.46993546916900003,0.47074552151,24,0,1
hgh,1,1,1,2,0.728897347042,0.728762979998,1.15297630712,25,0,1
hgh,2,1,1,2,0.6935822986560001,0.328753816852,0.470699320809,26,0,0
hgh,1,1,2,1,0.9289182913490001,0.740509509065,0.447148126768,27,0,1
hgh,2,1,1,2,0.39954484606299995,0.928766984056,2.57639459714,28,0,0
hgh,2,2,1,2,0.999429421296,0.364196302166,0.4589570268,29,0,1
hgh,1,1,1,1,0.387782531747,0.6111094213699999,1.01177694455,30,0,1
hgh,1,1,2,1,0.340757529848,0.411111192385,0.388303829692,31,0,1
hgh,2,1,1,1,1.32891166925,1.28161831827,0.576534739273,32,0,0
hgh,2,1,1,1,0.364200922253,0.32879462748000005,0.882396492147,33,0,0
hgh,2,1,1,1,0.305314659519,0.23465876736699998,0.38841586640000003,34,0,0
hgh,2,2,2,1,0.634818082792,0.26986023903,0.482508990841,35,0,1
hgh,1,1,2,1,1.23493250654,0.293436843436,0.411689856221,36,0,1
hgh,1,1,1,1,0.32896364505,0.681689852354,0.400103874577,37,0,1
hgh,1,1,1,1,0.364061165106,0.493510148561,0.8001492282780001,38,0,1
hgh,2,1,1,2,1.9405581738099997,2.52863115398,0.941264659574,39,0,0
hgh,1,2,1,2,2.32875304684,0.54053284043,1.2941706646200002,40,0,0
hgh,1,1,1,1,0.6818842803190001,0.493437382451,0.38830344467699995,41,0,1
hgh,2,2,1,1,0.587754580309,0.457638381704,0.42365083354500005,42,0,1
hgh,1,1,1,2,0.458359112687,0.352231089768,0.306000739976,43,0,1
hgh,2,2,1,2,1.0230375962,0.364104285763,0.811772940477,44,0,1
hgh,2,1,1,1,0.352509064003,0.36336930956200003,0.376533430259,45,0,0
hgh,2,1,1,1,0.31717746036899996,0.258188786087,0.811833386397,46,0,0
hgh,2,1,2,1,0.834804761587,0.305213787986,0.423599242771,47,0,0
hgh,1,1,1,1,0.281926322976,0.33956978675300004,0.388307294736,48,0,1
hgh,1,1,2,2,0.399538685975,1.12872517241,0.400088859344,49,0,1
hgh,1,1,1,2,3.1283975324199997,0.6930151850249999,9.52889295798,0,1,1
hgh,2,2,1,1,0.5764007572290001,0.293640126547,0.7406792966500001,1,1,1
hgh,1,2,2,2,0.598803093759,0.352907545079,2.56470466392,2,1,0
hgh,1,1,2,1,0.434805993616,1.17580407513,0.623581301494,3,1,1
hgh,1,2,1,1,0.553177973197,0.281690699383,1.35227498044,4,1,0
hgh,2,2,1,1,6.28096188327,25.586159886,7.364254823060001,5,1,1
hgh,2,2,1,1,6.30496006912,0.705214095986,1.30593913904,6,1,1
hgh,2,2,1,1,1.31714550487,0.434625040856,0.600067068037,7,1,1
hgh,2,2,2,1,0.434852964332,0.70521679103,0.576531274215,8,1,1
hgh,1,2,1,1,0.352480188565,0.811111500399,0.682423288541,9,1,0
hgh,2,2,1,1,0.49362873037199995,0.19937798452199998,0.447130416505,10,1,1
hgh,2,1,1,1,0.340030638763,0.294136014112,0.529512817418,11,1,0
hgh,2,1,1,1,0.21128275099899999,0.164074486311,0.44717430716300005,12,1,0
hgh,1,1,1,1,0.23489323594500003,0.152193590198,0.40005728886200004,13,1,1
hgh,1,1,2,2,0.881845933749,0.269968040666,1.0353446938200002,14,1,1
hgh,2,1,2,2,0.352330036272,0.281685309281,0.423733994816,15,1,0
hgh,2,2,1,1,0.482401189205,0.24653773846500002,0.599420643179,16,1,1
hgh,1,2,1,2,0.705369638352,0.293727907891,0.96479198325,17,1,0
hgh,1,1,2,2,0.41131563049599995,0.399370053405,1.29417104964,18,1,1
hgh,1,2,1,2,0.36420554231200003,0.246419926669,0.400101179548,19,1,0
hgh,2,2,1,1,1.28184932179,1.6463193631400002,0.482399649176,20,1,1
hgh,2,2,1,2,2.4111751033599997,1.9404072515000002,0.4000853943,21,1,1
hgh,1,1,1,1,0.681878120231,0.242221052657,0.67065019405,22,1,1
hgh,1,1,2,2,0.928763518998,1.5639562125,0.459017087705,23,1,1
hgh,2,2,1,1,1.27006583214,0.28170763963100004,0.670649039035,24,1,1
hgh,1,1,1,1,0.248206353906,0.197720534241,0.623627117195,25,1,1
hgh,1,2,1,2,0.364249432983,0.269906824731,0.776474832368,26,1,0
hgh,1,2,1,2,0.870141755324,0.352207989403,1.0941812908,27,1,0
hgh,2,1,1,2,0.528900273086,0.6935191577069999,0.411883514171,28,1,0
hgh,2,1,2,2,0.611160627144,0.246414921596,0.459024787822,29,1,0
hgh,2,2,1,1,0.481927246976,1.0698527699,0.58834440932,30,1,1
hgh,2,2,2,2,1.1759538424200002,1.4698265125,0.753011034642,31,1,1
hgh,1,2,2,2,0.293504219473,0.528921833407,0.986825869157,32,1,0
hgh,1,2,1,2,1.18774233713,0.56413639526,0.717691366197,33,1,0
hgh,2,1,1,2,0.293629346372,0.575862134021,0.400101564548,34,1,0
hgh,1,1,1,2,1.02299332054,1.26986100903,3.62337532335,35,1,1
hgh,1,2,1,2,0.7054023638629999,0.29344492856800003,1.60001509222,36,1,0
hgh,2,2,1,2,0.470154537499,0.575772042648,3.3998443806200003,37,1,1
hgh,2,2,2,2,0.7289219874070001,0.458433033811,0.858884953705,38,1,1
hgh,1,1,1,2,0.317192860603,0.999275033944,0.30595723431899996,39,1,1
hgh,1,1,1,1,0.316541815686,1.34112213041,0.341253802413,40,1,1
hgh,1,1,1,1,0.340702859015,0.305250363541,0.9294207240160001,41,1,1
hgh,1,1,1,1,0.317220196026,0.293473419006,0.36477150094300004,42,1,1
hgh,2,1,1,1,1.44657831808,0.6580947676560001,0.38832346499799997,43,1,0
hgh,2,2,1,2,0.375992497007,0.564084804471,0.49419006893,44,1,1
hgh,1,2,2,2,2.22230007897,0.470556483633,0.388285349414,45,1,0
hgh,2,2,2,2,0.552533473383,0.9521703358329999,0.682422903541,46,1,1
hgh,1,2,1,1,0.623194370593,0.7052148659999999,0.423477580902,47,1,0
hgh,2,2,1,1,1.6465634568599998,1.7756740201400003,0.658858234296,48,1,1
hgh,2,1,1,1,0.270112417871,0.22299886461399998,0.5647674198839999,49,1,0
hgh,1,1,1,1,0.49346240783100004,0.316742788738,1.5646819485699999,0,2,1
hgh,2,1,1,1,0.328971345167,0.399368513376,1.18824438479,1,2,0
hgh,2,1,2,2,0.340700933986,0.340557326796,0.858886878734,2,2,0
hgh,1,1,2,2,0.693672390029,0.258174155868,1.34119143145,3,2,1
hgh,1,1,1,1,0.493646440635,0.258147205459,0.45892083624499996,4,2,1
hgh,2,2,2,1,1.15247541449,0.26987140419100003,0.435402752715,5,2,1
hgh,2,2,1,1,0.587773830601,0.234671472572,0.435364252131,6,2,1
hgh,2,2,1,1,0.7289189073639999,0.22289722306600002,0.44715043681199995,7,2,1
hgh,1,1,1,1,0.38765162974600004,0.599329396777,0.35305192227,8,2,1
hgh,1,1,2,1,0.611404720868,0.222746685773,0.494210859237,9,2,1
hgh,1,1,1,1,0.44659025326800006,0.22299924962900003,0.423608097917,10,2,1
hgh,2,1,1,1,0.35243514286399996,0.17588223132800002,0.5059885738009999,11,2,0
hgh,1,1,1,1,0.29380298403,0.164074486311,0.423296243156,12,2,1
hgh,2,1,1,2,0.657774442778,0.517697757299,0.48231032781800004,13,2,0
hgh,2,1,2,2,0.5525646588359999,0.387449501664,0.988248080845,14,2,0
hgh,2,1,1,2,0.634815002762,0.36345709090499995,0.95299001332,15,2,0
hgh,1,1,1,1,0.31723328623,0.27005120193599996,0.31768027803599996,16,2,1
hgh,1,1,2,1,1.31712894964,0.222834467102,0.54126127153,17,2,1
hgh,2,2,2,1,0.470048660893,0.260023724069,0.353067322518,18,2,1
hgh,1,1,1,1,0.26956801956099996,0.21810197495499997,0.353020351788,19,2,1
hgh,1,1,2,1,0.72914413581,0.210823439003,0.364799221366,20,2,1
hgh,2,2,2,1,0.693655064766,0.28169762947099997,0.376558455624,21,2,1
hgh,2,2,2,1,0.611278438941,0.305146796964,0.353028436919,22,2,1
hgh,1,1,2,1,0.270725732218,1.03463204796,0.399446284559,23,2,1
hgh,1,1,2,1,0.32895055485999997,0.422141995557,0.36479575630800004,24,2,1
hgh,2,2,1,1,1.3649820991600001,0.26992145496500003,0.357527230502,25,2,1
hgh,2,1,1,1,0.36432720416599995,0.28164449866700003,0.541250876369,26,2,0
hgh,1,2,2,2,0.446591408283,0.246457657238,0.36479152125,27,2,0
hgh,2,2,2,2,0.493654525766,0.222887212905,0.364786516162,28,2,1
hgh,1,1,2,1,0.470109106813,0.24641415158100002,0.388314609852,29,2,1
hgh,1,1,1,1,0.246595489356,0.19942765028099999,0.41186079880599996,30,2,1
hgh,2,2,2,1,1.08183453756,0.281708794661,0.505921197779,31,2,1
hgh,1,2,1,2,0.599880725189,0.23421909066399998,0.811830691368,32,2,0
hgh,2,2,1,2,0.352437452908,0.48172704392300003,0.7883110678090001,33,2,1
hgh,1,1,1,2,0.48180674015,0.23466608248399998,0.494278620274,34,2,1
hgh,2,1,1,1,0.317179385398,0.26998960098700003,1.23532251749,35,2,0
hgh,2,2,1,1,0.35249481878399996,0.31703808823699997,0.411829998353,36,2,1
hgh,1,2,1,2,1.0230118008,0.246421081683,0.917709230474,37,2,0
hgh,1,1,2,1,0.5995061144789999,0.305255368614,0.364804226439,38,2,1
hgh,2,2,2,2,0.505408754951,0.39931692258699997,1.72940439977,39,2,1
hgh,1,1,2,1,0.32896326005,0.281725349909,0.38833155011500003,40,2,1
hgh,2,2,1,2,0.364264448217,0.35226882033699997,0.8118422415279999,41,2,1
hgh,1,1,2,1,0.775935824146,0.622872120686,0.352793968341,42,2,1
hgh,2,2,1,1,1.6700919355500001,0.422846941306,0.8941272359810001,43,2,1
hgh,1,1,1,1,0.270792338226,0.199379524536,0.293555810247,44,2,1
hgh,1,1,2,1,0.42305137941699994,0.187609510103,0.37656962079899997,45,2,1
hgh,2,2,2,2,0.61129268416,0.575798608057,0.482453550008,46,2,1
hgh,2,2,1,2,0.28193941316599996,0.222813676795,0.37657231584299994,47,2,1
hgh,1,1,1,2,0.316487529853,0.223564823245,0.82361379599,48,2,1
hgh,2,2,1,1,0.599541535019,0.34052960637199997,0.483012193523,49,2,1
hgh,2,2,1,2,0.5993501870979999,0.328616369763,4.14098144927,0,3,1
hgh,1,1,1,1,0.32892475945099997,0.528812876742,1.95291455218,1,3,1
hgh,2,2,2,1,0.41129060513000004,0.575827483495,2.2940605529400004,2,3,1
hgh,1,1,2,1,0.399736193984,0.234557895834,0.352912165137,3,3,1
hgh,2,1,2,2,0.340711714147,0.39942549423699997,0.458903510982,4,3,0
hgh,1,1,2,2,0.34071209916100004,0.28179465096,0.34128267785099997,5,3,1
hgh,2,2,1,1,0.43471166718500004,0.26991067479,0.36492011320699996,6,3,1
hgh,2,2,1,1,1.1759407522,0.352266895308,0.882444232862,7,3,1
hgh,1,1,1,2,0.505440710433,0.599210044966,0.388352725437,8,3,1
hgh,1,1,1,2,0.587758430367,0.305228033205,0.8471195593449999,9,3,1
hgh,1,1,1,2,1.3759108757499998,1.03457314207,1.4000411186300001,10,3,1
hgh,1,1,1,2,0.928930996553,0.258106779846,0.6588936548359999,11,3,1
hgh,2,1,1,2,0.49364451560500006,0.222894528022,1.7528762826,12,3,0
hgh,1,1,1,1,0.305406675936,0.293458018772,0.317744189015,13,3,1
hgh,2,2,1,1,0.552570048938,1.11683272611,0.36479652632299997,14,3,1
hgh,1,1,1,1,0.305429776272,0.42291508734300004,0.31771800860599997,15,3,1
hgh,2,1,2,1,0.29362241628400004,0.51701745193,0.36481770164399996,16,3,0
hgh,1,1,1,1,0.317192090588,0.26996034054900003,0.23538219339400002,17,3,1
hgh,2,1,1,1,0.281852016837,0.305321204622,0.294192224959,18,3,0
hgh,2,2,1,1,0.446589483254,0.669938318199,0.600080158212,19,3,1
hgh,2,1,1,2,0.752472411448,0.387583868724,0.564748939592,20,3,0
hgh,1,1,1,2,0.340532686416,0.387680890184,1.2472380641399998,21,3,1
hgh,2,2,1,2,0.411337190832,0.31698033737500003,0.6118332323969999,22,3,1
hgh,2,1,2,2,0.32895093985999996,1.1751264648,0.647139425637,23,3,0
hgh,1,2,1,2,0.387749421236,0.7052044708399999,0.388306909736,24,3,0
hgh,1,1,1,1,0.351797958167,0.25884291106199997,0.482457785067,25,3,1
hgh,2,2,2,2,0.399546386092,0.693429451319,0.894188836901,26,3,1
hgh,1,1,1,1,0.317180155413,0.9052646857600001,0.270693391722,27,3,1
hgh,2,1,1,1,0.34071556420500004,0.634655995338,4.89385234177,28,3,0
hgh,1,2,1,1,0.5289491688310001,0.893465025874,2.9645590547000005,29,3,0
hgh,2,1,1,2,0.35252908431,0.458138889328,1.6470077536200003,30,3,0
hgh,2,2,2,1,1.5994425884999999,0.293504604473,0.329519593535,31,3,1
hgh,1,1,1,1,0.270107412784,0.246432246859,0.294226490485,32,3,1
hgh,1,1,2,1,0.30543516636,0.293477654064,1.4352549104700003,33,3,1
hgh,1,1,2,1,0.270122428017,0.234652607265,0.495157203681,34,3,1
hgh,1,2,1,1,0.5876510137309999,0.293483044152,0.330080547079,35,3,0
hgh,2,2,1,1,0.375947451321,0.363395489956,0.41192316977,36,3,1
hgh,2,2,1,1,0.36423595777900003,0.281758460405,0.4588361349600001,37,3,1
hgh,1,1,2,1,0.529045035291,0.35210480784000003,0.353051152255,38,3,1
hgh,2,2,2,1,0.387794466922,0.281680689222,0.34124533228200005,39,3,1
hgh,2,1,2,1,0.553065551489,1.6698840323800002,0.858275874416,40,3,0
hgh,1,1,2,1,0.293798363957,0.281689544368,0.329380221403,41,3,1
hgh,1,1,2,1,0.258364733774,0.21115492905699998,0.30595222923099996,42,3,1
hgh,2,2,1,1,1.3053620152399998,0.269935700169,0.30596570443599996,43,3,1
hgh,1,1,2,1,0.281881662275,0.281706484617,0.411842703543,44,3,1
hgh,1,1,2,1,0.6936277293430001,0.35229115068800004,0.823599550786,45,3,1
hgh,1,1,2,1,0.258392069183,0.305258448658,0.282444925877,46,3,1
hgh,2,2,2,1,1.02300140566,0.411108112341,0.317733793854,47,3,1
hgh,2,2,2,1,0.575966085598,0.328772682129,0.294242660733,48,3,1
hgh,2,2,2,1,0.270146683382,0.8816642109739999,0.341257267457,49,3,1
hgh,1,1,2,1,0.422848481321,1.06961406626,0.753028359919,0,4,1
hgh,1,1,2,1,0.29365860682399997,0.29348689421,0.317772294438,1,4,1
hgh,2,2,2,1,0.446636453969,0.23461526171,0.27066143624,2,4,1
hgh,1,1,2,1,0.258368968833,0.19941956515,0.317710308489,3,4,1
hgh,2,2,2,1,0.49364143556199996,0.281012704043,0.4000850093,4,4,1
hgh,2,2,1,1,0.34011071999,0.282311713832,0.317716468591,5,4,1
hgh,1,1,1,1,0.24755530899,0.199360659259,0.36381976644,6,4,1
hgh,1,1,2,1,0.270183643952,0.234611796666,0.8106587334909999,7,4,1
hgh,2,2,2,1,0.35246324830200004,0.22285602743799998,0.364786901177,8,4,1
hgh,2,2,2,1,0.434807148631,0.458176619912,0.376578090945,9,4,1
hgh,2,2,1,1,0.47012643209,0.35229846579,0.729463305659,10,4,1
hgh,1,1,2,2,0.45842802873800004,0.328562083931,0.329497648185,11,4,1
hgh,1,2,2,2,0.352483653609,0.258164915722,0.364796141323,12,4,0
hgh,2,2,2,1,0.870135210222,0.72872101434,0.37653150523,13,4,1
hgh,1,1,2,1,0.7171538980040001,0.716976795316,2.75276963598,14,4,1
hgh,1,1,2,1,0.364322969093,0.269859084001,0.37658386601800004,15,4,1
hgh,2,2,1,1,0.45840723841700004,0.281672604091,0.400060753935,16,4,1
hgh,2,2,1,1,0.787590721811,0.387753656294,0.482448929921,17,4,1
hgh,2,2,1,1,0.387774061615,0.305238813366,0.44710000103799996,18,4,1
hgh,1,1,2,1,0.517194169632,0.23462604188499997,0.36480499645400005,19,4,1
hgh,2,2,1,1,0.56424650694,2.77571175073,0.37655345055100004,20,4,1
hgh,1,1,2,1,0.340721339293,0.28168530929499996,0.364804611439,21,4,1
hgh,1,2,2,2,0.564261907173,0.540494339832,1.74114053369,22,4,0
hgh,2,2,2,2,0.363539482161,0.6353482358829999,0.70595523229,23,4,1
hgh,2,1,2,2,0.375980946832,0.775835337598,0.470687385634,24,4,0
hgh,2,1,1,2,0.423066009636,0.22220767756499998,0.48240965933700003,25,4,0
hgh,1,1,1,1,0.317189395559,0.21109871819499998,0.376548830478,26,4,1
hgh,2,2,1,1,0.41143498233599995,0.293320186669,0.45890235596699996,27,4,1
hgh,1,1,1,1,0.234992182464,0.19938606963799999,0.36460864346,28,4,1
hgh,1,1,2,1,0.305432471316,0.258199566248,0.41180304794399997,29,4,1
hgh,2,2,1,1,0.423079099841,1.7287745301599997,0.36475841073799997,30,4,1
hgh,1,1,1,2,1.0465414345200001,0.23454288059999998,0.6824198234829999,31,4,1
hgh,1,1,1,2,0.317193630617,0.6111348317499999,0.38830305967699996,32,4,1
hgh,1,1,2,1,0.199526596785,0.234704198068,0.317769214395,33,4,1
hgh,2,2,2,1,0.305387425629,0.587651398746,0.38834233029,34,4,1
hgh,2,2,1,1,0.387764821469,0.246489997735,0.329513433433,35,4,1
hgh,2,2,1,1,0.293703267511,0.24638219609900003,0.847138039608,36,4,1
hgh,1,1,2,1,0.281885512348,0.422860416496,0.305999199962,37,4,1
hgh,2,2,2,2,0.517197249676,0.34051998122599997,0.753016424744,38,4,1
hgh,1,1,1,1,0.222891832993,0.469961649564,0.447289808944,39,4,1
hgh,1,1,1,1,0.32895401990400003,0.211132598721,0.576534354259,40,4,1
hgh,1,1,2,1,0.19973064989599998,0.211050977465,0.31760058181,41,4,1
hgh,2,2,1,2,0.634800372529,0.905198079738,0.423619648078,42,4,1
hgh,1,1,1,1,0.223051610432,0.199506576479,0.317766904351,43,4,1
hgh,2,1,1,1,0.293646671635,0.387598498928,0.623605941873,44,4,0
hgh,2,2,1,1,0.552474182463,0.493438537465,0.35303074694799996,45,4,1
hgh,1,1,1,2,0.317184005471,0.552282834557,1.41175684723,46,4,1
hgh,2,2,2,2,0.42303674918399997,0.24640606645,0.564769344914,47,4,1
hgh,1,1,2,1,0.258372048876,0.23465260728,0.25884907115,48,4,1
hgh,2,2,2,2,0.905405597907,0.41107076678599996,3.38811248177,49,4,1
hgh,1,1,1,2,0.846333762354,0.9755301819679999,3.50570597948,0,5,1
hgh,1,1,1,1,0.258460985249,0.210985526486,0.341251492384,1,5,1
hgh,2,2,1,1,0.411308315393,0.317043093324,0.929456144557,2,5,1
hgh,1,1,1,1,0.257966637699,0.234681097718,0.28277680093,3,5,1
hgh,1,1,2,2,0.470094861594,0.5522993898049999,0.91770769046,4,5,1
hgh,2,2,1,1,0.5289306885530001,0.328751506822,0.329518438506,5,5,1
hgh,2,2,2,1,0.258385139081,0.18756754447500001,0.6941848328419999,6,5,1
hgh,1,1,2,1,0.258352798599,0.21139786775199998,0.600075923168,7,5,1
hgh,2,2,1,1,0.38778137673199997,0.422889676949,0.388334245159,8,5,1
hgh,2,1,1,1,0.352532549354,1.79917208338,0.364785361162,9,5,0
hgh,1,1,1,1,0.25859342725,0.564053233989,0.388212583304,10,5,1
hgh,1,1,2,1,0.305382805571,0.764109983851,0.5059774086259999,11,5,1
hgh,2,1,2,2,0.328846988268,0.269990371002,0.670726040218,12,5,0
hgh,1,1,2,1,0.31717053026700004,0.23466184742600002,0.270639490889,13,5,1
hgh,2,1,2,2,1.11716999125,0.9169134233380001,2.45875566873,14,5,0
hgh,1,1,1,1,0.764308261874,0.51690926528,0.694165582565,15,5,1
hgh,2,2,2,1,0.470199198186,0.35225265008900003,0.294206085178,16,5,1
hgh,2,2,1,1,0.47018649299599996,0.363984548938,0.282453781008,17,5,1
hgh,2,2,1,1,0.48174552420100003,0.364191682107,0.6588747895579999,18,5,1
hgh,1,1,2,1,0.293734452978,0.7287691400849999,0.799984445766,19,5,1
hgh,1,2,1,1,0.39953329588799996,0.493456632743,0.588318998925,20,5,0
hgh,2,1,1,2,1.08181066721,0.364062705135,0.48243737976000006,21,5,0
hgh,1,1,1,1,0.293611251094,0.411016865954,0.329528063667,22,5,1
hgh,2,2,1,2,0.36426906829000005,0.281736900084,0.329489948082,23,5,1
hgh,1,1,1,1,0.281897832538,0.246437636932,0.435370027204,24,5,1
hgh,2,2,2,1,0.32893476961199997,0.199376444492,0.341267277632,25,5,1
hgh,1,1,2,1,0.223104741221,0.199339868937,0.364767650884,26,5,1
hgh,2,2,2,1,0.411301770291,0.199351034113,0.776534893288,27,5,1
hgh,2,1,2,1,0.305393970732,0.234611796652,0.388378520831,28,5,0
hgh,1,1,2,1,0.234831249996,0.22291069826999999,0.364782666104,29,5,1
hgh,1,1,2,1,0.164248123954,0.164079491398,0.329495338156,30,5,1
hgh,2,1,2,2,0.29362626632800004,0.24643763694600002,1.0353342986799998,31,5,0
hgh,2,2,1,2,0.9289229114219999,0.293441848509,0.48241196938,32,5,1
hgh,2,2,2,1,0.434975396201,0.234651067265,0.42348258598899996,33,5,1
hgh,1,1,2,1,0.305448641564,0.187690361345,0.341249182355,34,5,1
hgh,2,2,2,2,0.34078756030100005,0.434546884659,1.1764909256,35,5,1
hgh,2,2,2,1,0.32811162705200003,0.423688564129,0.28246571619800004,36,5,1
hgh,1,1,2,1,0.23488207077,0.164028670624,0.305983029699,37,5,1
hgh,1,2,1,2,1.2818073561499999,0.7287175492970001,1.23531250733,38,5,0
hgh,1,1,1,1,0.281909382698,0.19933678889400003,0.43610846847900003,39,5,1
hgh,2,1,2,2,0.376089518482,0.29338794770599996,0.435352316941,40,5,0
hgh,2,2,1,1,0.387782916761,0.669927538038,0.41184655360100003,41,5,1
hgh,2,1,1,1,0.22308164088500002,0.22282214692699998,1.8352582985099999,42,5,0
hgh,1,1,2,1,0.293707502569,0.18745204270799998,0.388313839838,43,5,1
hgh,1,1,2,2,0.493669541,0.24640029137699998,0.31772301367899997,44,5,1
hgh,2,2,1,1,0.340687843782,0.199347569054,0.34128806793899996,45,5,1
hgh,1,1,1,1,0.563314022715,0.364964003864,0.8353399197660001,46,5,1
hgh,2,2,1,1,0.399570256457,0.175869526138,0.43530919629799997,47,5,1
hgh,1,1,2,1,0.348364090809,0.7758080021889999,0.451177213195,48,5,1
hgh,1,2,1,2,0.222732055554,0.17587106615200002,0.6942202533830001,49,5,0
hgh,1,1,1,2,0.434607330593,0.210889660026,1.23526207157,0,6,1
hgh,1,1,1,2,0.23484395520100002,0.187601809987,0.42358846259599997,1,6,1
