Subj_idx,Block,Trial,Stimulus,Response,RT_dec,Confidence,RT_conf,ErrorDirectionJudgment,RT_directionJudgment
1,1,1,7,7,4.40390610300528,1,1.56704405399796,-1,4.74790400899656
1,1,2,5,6,2.95359509499394,3,1.20188236299146,-1,2.9803870649921
1,1,3,27,18,5.44084643099632,1,1.57354796100117,-1,1.97837590900599
1,1,4,14,11,5.12258730200119,1,0.520813412003918,-1,2.23105531898909
1,1,5,11,12,5.65629194700159,2,0.599301484005991,1,0.681299438001588
1,1,6,22,16,4.42174130800413,2,0.449200044997269,1,0.577909190003993
1,1,7,28,11,3.7376096299995,1,1.32203416900302,1,0.54327973400359
1,1,8,9,8,2.48642008200113,3,1.00674909500231,1,1.22477043200342
1,1,9,26,20,4.55516629898921,2,0.887593472012668,1,1.22060559201054
1,1,10,24,21,4.98889335700369,1,0.716875957004959,1,0.555089777000831
1,1,11,29,18,7.32478111900855,2,1.63303050700051,-1,0.882534392003436
1,1,12,15,14,3.23703735000163,2,0.592320351002854,1,0.331449943987536
1,1,13,6,6,2.43612412500079,3,0.802825808001217,-1,1.17293095801142
1,1,14,7,7,1.93563245800033,3,1.08615241700318,1,0.461294213004294
1,1,15,22,16,5.20582275200286,2,0.358371937007178,1,0.53142286799266
1,1,16,11,9,4.20464021299267,3,1.22395092000079,-1,2.15266297200287
1,1,17,8,7,2.08576711699425,3,0.792534808002529,-1,0.482913337007631
1,1,18,29,18,5.75637285599078,1,0.451351965995855,-1,0.419581170004676
1,1,19,16,16,5.77310974399734,1,1.38835190699319,-1,0.565843802003656
1,1,20,11,10,4.37160137300089,2,1.19893376999244,1,1.13743845999124
1,1,21,29,19,5.18924785499985,2,0.972391199000413,1,1.07207001101051
1,1,22,7,9,3.8542765010061,3,0.799256347003393,1,0.554079131994513
1,1,23,8,7,2.73643575199821,3,0.802754806994926,-1,1.04558798999642
1,1,24,11,11,3.07006876201194,2,1.83535913399828,1,1.5953064320056
1,1,25,26,20,2.60301119800715,1,1.96135941999091,1,0.995061524008634
1,1,26,9,12,5.60629680499551,3,1.17731729199295,1,0.364513970998814
1,1,27,22,18,6.90756924499874,2,1.62250362799386,-1,2.23003393900581
1,1,28,17,16,4.55501362899668,1,0.846291699999711,-1,0.0316806629998609
1,1,29,7,7,2.1357260740042,2,11.8722066300106,-1,6.65912934399967
1,1,30,20,15,3.83754534499894,2,0.924832008997328,-1,1.61850299200159
1,1,31,25,21,2.80323628699989,1,3.75808847500593,1,0.542865769995842
1,1,32,5,5,3.02010496500588,3,0.525897984000039,1,0.34701350099931
1,1,33,26,18,3.28705524699762,2,1.96541914400586,1,0.512054731007083
1,1,34,7,7,2.35258359400905,3,1.58379786700243,-1,1.74663526000222
1,1,35,29,16,2.18575905999751,2,1.29997552999703,1,0.961707969996496
1,1,36,4,4,1.55190164700616,3,0.68709699100873,-1,1.22209944699716
1,1,37,22,14,6.04009682001197,2,3.44366471799731,-1,2.45792755299772
1,1,38,12,12,3.60402148599678,2,0.850129318991094,-1,0.282607171990094
1,1,39,9,9,2.50279999199847,3,1.18776443699608,-1,0.358686302002752
1,1,40,8,9,4.58861124800751,3,1.65643293500762,1,2.50378246798937
1,1,41,10,10,3.17017698899144,2,0.886646377010038,-1,1.43006456000148
1,1,42,7,6,1.86878667300334,3,0.373540768996463,-1,0.648460230004275
1,1,43,27,15,2.05226614700223,2,0.776370195002528,-1,0.916952617990319
1,1,44,11,8,2.76977032200375,2,1.47582837600203,-1,0.905663322002511
1,1,45,24,15,2.95336175500415,2,1.96666427000309,-1,0.929104384995298
1,1,46,11,8,4.00448623200646,3,0.713744729000609,-1,0.465019769995706
1,1,47,11,10,3.75416982399474,3,0.685328476989525,-1,0.373111922002863
1,1,48,4,4,0.984628926991718,3,1.3289607649931,-1,0.390346995001892
1,1,49,22,12,6.15686440400896,2,2.54806492499483,-1,2.9358970149915
1,1,50,16,17,5.73986129999685,2,0.738591811998049,-1,1.63874927100551
1,1,51,22,19,19.9553531119891,1,0.661007593997056,-1,0.412384803988971
1,1,52,23,16,5.47270345799916,1,0.851096174999839,-1,0.378369967002072
1,1,53,7,5,1.56855282699689,3,0.95180086500477,-1,0.268405069000437
1,1,54,17,15,3.83758334199956,3,1.24454299399804,-1,0.0596750050026458
1,1,55,7,7,1.53506622799614,3,0.629437451992999,-1,0.374178095007665
1,1,56,11,11,4.70529235499271,3,0.982828348001931,1,0.193463311996311
1,1,57,7,7,1.55182298699219,3,0.581412061001174,1,1.12844799400773
1,1,58,12,9,9.92768070999591,3,0.74116165599844,1,0.71489974000724
1,1,59,9,8,2.61962445799145,3,0.904631085009896,-1,0.303214806001051
1,1,60,14,11,8.30920086799597,1,0.613340844996856,1,1.33602177600551
1,1,61,4,4,4.47183306000079,3,1.11377122100384,1,2.28070612499141
1,1,62,17,14,4.95568325700879,2,0.837506077994476,-1,0.525681921004434
1,1,63,4,4,1.00124239199795,3,0.6264855240006,-1,0.25866620700981
1,1,64,7,7,1.78530090999266,3,0.290161513999919,1,0.82532368900138
1,1,65,29,25,1.88554399200075,2,1.43470026999421,1,0.874568083003396
1,1,66,7,8,2.41936316200008,3,0.811983455001609,1,0.244660511991242
1,1,67,16,15,5.97326362799504,2,0.8903156209999,1,0.441279268008657
1,1,68,21,16,31.1344254169962,1,0.581607979009277,1,0.296892226004275
1,1,69,6,5,0.917753244997584,3,0.341683420992922,1,0.291635039990069
1,1,70,11,9,5.22347015299601,3,1.92155340898898,-1,0.918323094010702
1,1,71,28,22,3.30385622500035,2,0.821388055002899,-1,1.24693470200873
1,1,72,18,16,3.78759068000363,2,0.613440262997756,1,0.264489640001557
1,1,73,7,7,1.53500359700411,3,0.292627934002667,1,1.02841862899368
1,1,74,10,11,4.77186719499878,3,1.1882699370035,1,0.263113442008034
1,1,75,24,18,1.63522191499942,2,0.771739116986282,-1,0.352194530001725
1,1,76,7,6,2.8365890210116,3,0.706332005996956,-1,0.111979876004625
1,1,77,10,10,6.37379470799351,3,0.745682501990814,1,0.654680187988561
1,1,78,14,14,5.80641624701093,2,2.24513606399705,-1,0.403462197005865
1,1,79,29,22,1.58513721800409,3,3.32781569199869,-1,2.56878407699696
1,1,80,4,4,0.83426886399684,3,0.331964333992801,-1,0.448328651997144
1,1,81,7,7,7.94217701499292,3,0.39689957399969,-1,0.192546118996688
1,1,82,4,4,0.80092563299695,3,0.753426595998462,-1,0.268026906996965
1,1,83,22,19,1.70197852300771,2,0.984480971994344,-1,0.979540686996188
1,1,84,28,18,2.15243977500359,2,1.04851608199533,-1,1.03886546001013
1,1,85,29,21,2.18580851299339,2,2.03722058099811,-1,2.22056693999912
1,1,86,4,4,0.967753308010288,3,0.744075134003651,-1,0.203923812994617
1,1,87,16,12,3.73748646999593,2,1.5437449059973,-1,0.842396362000727
1,1,88,29,23,4.00450621699565,1,1.03275137500896,-1,0.449438983996515
1,1,89,11,13,1.75196618100745,2,0.616549694997957,1,1.04222220899828
1,1,90,4,5,1.2847819840099,3,0.718429095009924,1,0.636972555003013
1,1,91,4,4,0.750860824002302,3,1.50138986000093,-1,0.36902097199345
1,1,92,29,16,2.30263418800314,2,12.2583636740019,1,3.92720456299139
1,1,93,19,16,4.53842122899368,2,4.20907594599703,1,2.79212707800616
1,1,94,16,14,2.86989367200295,2,0.819988168004784,-1,1.65332099499938
1,1,95,13,11,1.56851451499097,2,0.400204958001268,-1,4.20948228999623
1,1,96,4,4,1.05118202000449,3,0.693650186993182,-1,0.116621969995322
1,1,97,15,12,2.71976791699126,2,0.469565674997284,1,0.629945310007315
1,1,98,6,6,1.36820030098897,3,0.692099810010404,-1,0.305733422006597
1,1,99,7,6,2.10233217698988,3,0.834301583992783,-1,0.4756348469964
1,1,100,5,5,1.01778052600275,3,0.931908768005087,1,1.14486589499575
1,1,101,15,13,1.63514800700068,2,0.868674126002588,1,4.60390693899535
1,1,102,11,10,1.73526725400006,2,0.516619497997453,-1,1.14732197498961
1,1,103,19,16,1.30147283799306,2,0.699906306996127,1,0.209278313006507
1,1,104,4,4,0.617343232996063,3,0.970948248999775,-1,0.016932116006501
1,1,105,16,17,1.80208830500487,1,4.9037803169922,-1,1.38549481000518
1,1,106,29,22,1.46836017900205,1,0.405598134995671,1,1.02318417100469
1,1,107,29,19,1.96887593698921,1,0.505189987001359,-1,1.03190053498838
1,1,108,27,18,2.25274342500779,1,0.784973754998646,-1,1.06045691200416
1,1,109,11,9,1.8521481850039,2,0.920109402999515,-1,0.982152056996711
1,1,110,28,17,2.16928807701333,1,0.695951689005597,-1,0.574126740000793
1,1,111,6,5,0.834295421998831,3,0.448705918999622,1,3.29765848400712
1,1,112,4,4,0.700790603994392,3,0.446004028999596,-1,0.248013452001032
1,1,113,15,15,6.34036181500414,1,1.20843611400051,-1,0.0169160200020997
1,1,114,25,20,2.36939006000466,1,0.338443913002266,1,0.766483955012518
1,1,115,8,9,6.00681371999963,2,0.919104015003541,-1,0.107363771996461
1,1,116,9,7,1.8687514399935,2,0.646878436993575,-1,0.640419212009874
1,1,117,7,7,1.6852281659958,3,0.453864780007279,-1,3.59862817899557
1,1,118,14,15,5.28922747299657,1,0.899435458995868,-1,0.672509975003777
1,1,119,24,12,5.15581097999529,1,1.22363387400401,-1,0.0475950569962151
1,1,120,8,6,1.83537307400547,3,1.07417572200939,-1,0.121763410003041
1,1,121,14,11,5.35605962500267,1,0.88987339400046,-1,1.73676796199288
1,1,122,7,7,3.60418979200767,3,0.487954506999813,1,0.55190954200225
1,1,123,20,12,2.05238524799643,2,0.413168593004229,-1,1.06416480201005
1,1,124,11,10,4.97215484500339,2,0.903779596992536,1,0.277321080997353
1,1,125,6,5,1.06794936000369,3,0.817265484001837,-1,0.121952963992953
1,1,126,21,19,1.83542764000595,1,0.592880187003175,1,0.307015710000996
1,1,127,12,11,3.47055353899486,2,0.526187442999799,1,0.243114234996028
1,1,128,28,20,1.53509090100124,1,0.58565208100481,1,0.220245072006946
1,1,129,11,11,3.33707563599455,2,0.534071686008247,-1,0.403549467009725
1,1,130,11,9,3.73748670901114,3,0.91765383699385,1,0.0909752949955873
1,1,131,22,19,3.47059149699635,1,0.775582646005205,1,0.130082460993435
1,1,132,22,16,4.28808836400276,1,1.27005195899983,-1,0.461578459988232
1,1,133,17,14,3.27039036300266,2,0.718830609010183,-1,0.395835111994529
1,1,134,29,21,3.68749243499769,2,0.41642762698757,1,0.20260707399575
1,1,135,8,6,1.33492381501128,3,0.667322762004915,1,0.139222714002244
1,1,136,4,4,0.750851293996675,3,1.62235563001013,-1,0.455087806010852
1,1,137,13,10,2.95334121999622,2,0.336523674995988,1,0.133082478991128
1,1,138,4,4,0.634072660002857,3,0.656221590004861,-1,0.0249371349927969
1,1,139,22,11,2.41942064699833,2,0.591371941001853,1,0.283133849996375
1,1,140,22,16,1.7185889310058,1,0.691614753988688,-1,0.178655980998883
1,1,141,16,13,2.10235738300253,1,0.812752066995017,-1,0.135492203000467
1,1,142,21,16,1.91885807299695,1,1.0642435530026,-1,0.728425210007117
1,1,143,5,5,0.834235033005825,3,0.784523673995864,1,0.226522595010465
1,1,144,21,17,5.57291742799862,1,0.72831423599564,-1,0.28585588200076
1,1,145,25,14,5.65634903700266,2,0.460880911996355,-1,0.174300511993351
1,1,146,7,6,1.08456489200762,3,0.644220568996388,-1,0.229469201993197
1,1,147,16,12,2.10236182299559,1,0.644801761998679,1,1.19735363200016
1,1,148,29,16,1.63516179200087,1,0.707364223999321,-1,0.185464912996395
1,1,149,16,10,9.02662929499638,1,0.652488669002196,-1,0.115757363993907
1,1,150,16,9,1.91894564199902,2,0.882111052997061,-1,0.319884746000753
1,1,151,26,18,3.17031622999639,1,1.00522202700085,-1,0.239457433999632
1,1,152,6,5,0.884286653003073,3,0.942272728003445,-1,0.186749008993502
1,1,153,29,14,2.38598143000854,1,11.9531408189941,-1,0.905527206006809
1,1,154,7,6,1.11792829500337,3,0.553025317989523,-1,0.301890587012167
1,1,155,28,15,3.02008569899772,1,0.156283100004657,1,1.16911918400729
1,1,156,29,18,4.72185025399085,2,0.589520523993997,-1,0.209848523998517
1,1,157,7,6,1.28478066899697,3,0.764600726004574,1,1.35174686099344
1,1,158,4,4,0.817595004991745,3,0.424158677997184,-1,0.0170140500122216
1,1,159,16,13,3.55401778299711,1,0.799352153000655,-1,0.313681127998279
1,1,160,22,16,3.77085952200287,2,0.616662524989806,1,1.49074879700493
1,1,161,10,9,2.56965550599853,3,0.850893016991904,1,0.731834172009258
1,1,162,10,11,3.78749067700119,3,0.447329973991145,1,0.584047944008489
1,1,163,21,16,1.6519181199983,1,0.620388467010343,-1,0.190267194004264
1,1,164,16,13,3.13694820500677,1,0.360261184992851,-1,0.140775246996782
1,1,165,7,7,1.91881003200251,3,0.411386808002135,-1,0.149445774004562
1,1,166,6,6,2.18576079400373,3,0.639252899010899,1,0.775578083994333
1,1,167,25,14,1.8854670629953,1,0.437407197008724,-1,0.141793060000055
1,1,168,19,16,5.80649102800817,2,0.666421824003919,1,0.265206754003884
1,1,169,4,4,1.01782048300083,3,0.319361444009701,-1,0.140657372001442
1,1,170,20,12,7.97551833900798,2,0.811107216999517,1,2.0217453600053
1,1,171,17,14,2.00232804300322,1,0.71063492000394,1,0.587821786000859
1,1,172,22,15,6.69075843600149,1,0.425766704996931,1,0.556861180011765
1,1,173,9,8,2.75308493599005,3,0.578282130998559,1,0.278028802000335
1,1,174,11,9,2.18583195800602,3,0.398352688003797,1,0.224700509003014
1,1,175,15,10,2.48610540499794,2,0.620615580002777,-1,0.423146632005228
1,1,176,11,11,3.0200192600023,3,1.2698831170128,1,0.605376660008915
1,1,177,22,18,6.70750849999604,2,1.52169870400394,-1,0.0169271680060774
1,1,178,7,7,3.30376391700702,3,1.21371969400207,-1,1.69449128799897
1,1,179,11,8,3.32045447299606,3,1.41043811499549,1,0.619113252992975
1,1,180,27,20,5.23918913700618,2,1.57309080100094,1,0.55853338399902
1,1,181,7,8,2.25254378000682,3,0.401145611001994,1,0.0660210009955335
1,1,182,22,16,1.16803698999865,2,0.674650443994324,1,0.195056800002931
1,1,183,12,16,2.15248304700071,1,0.774181089000194,1,0.266147164002177
1,1,184,26,20,1.43494099199597,1,0.643795419004164,1,0.149072668995359
1,1,185,16,11,1.70201801900112,2,0.804072169004939,-1,0.774498907994712
1,1,186,11,9,2.2192168449983,2,1.19714411199675,-1,0.206558364006924
1,1,187,20,13,1.43496158499329,2,0.838853582012234,1,1.69409292199998
1,1,188,16,12,2.98665629098832,2,0.374388329000794,-1,0.242829829992843
1,1,189,14,10,1.73527554499742,2,0.802983651999966,1,0.267530245997477
1,1,190,11,9,4.38819697299914,2,1.14364596000814,1,0.292241999006364
1,1,191,13,12,4.75545682899246,2,0.677799949000473,-1,0.17413103900617
1,1,192,14,12,2.81982353600324,2,0.569903693001834,-1,0.293416094995337
1,1,193,14,14,5.22246465699573,2,0.470317496990901,-1,0.10222510699532
1,1,194,22,13,2.66969924500154,2,1.13994150000508,1,0.279181589998188
1,1,195,8,6,1.05117554499884,3,0.349055875005433,-1,0.986485301997163
1,1,196,7,7,4.98892723800964,3,0.902147024011356,1,0.155306232001749
1,1,197,27,15,2.21915445099876,1,1.41203568399942,1,1.05412299200543
1,1,198,11,11,4.90544982699794,2,1.33883129300375,-1,0.207841369992821
1,1,199,16,14,2.5194951829908,1,0.530637979012681,1,0.864336445010849
1,1,200,7,7,1.91895024200494,3,0.814859107995289,-1,0.233141299991985
1,1,201,29,17,2.95330436900258,1,0.788261623005383,1,0.679066958997282
1,1,202,15,15,5.13911025799462,1,0.861220564998803,1,0.149820587001159
1,1,203,10,9,2.90324548199715,3,0.501869716012152,1,0.0673871049948502
1,1,204,15,13,4.73854827298783,2,0.509326724000857,-1,0.252594952005893
1,1,205,20,12,2.46942535000562,2,0.822284838999622,-1,1.26493767499051
1,1,206,23,13,3.08677588000137,1,0.863060386007419,-1,0.910648734003189
1,1,207,7,8,3.37048043000686,3,0.754365196000435,-1,0.382833966999897
1,1,208,16,12,4.60510656599945,1,0.58159754499502,-1,0.559706386993639
1,1,209,22,18,5.80654437700287,1,0.650604713999201,1,0.171272888008389
1,1,210,6,6,2.35268783700303,3,0.745680124993669,-1,0.182076846991549
1,1,211,16,14,13.948795852004,2,0.867474818995106,-1,1.55550356699678
1,1,212,10,10,3.53728049900383,3,0.9940932180034,1,0.235280410008272
1,1,213,7,7,1.16798522500903,3,0.435697017004713,-1,0.276246150009683
1,1,214,13,12,3.22028824900917,2,0.334521652999683,-1,0.146108610002557
1,1,215,29,19,2.40269389099558,1,0.929024586992455,-1,0.359031529995264
1,1,216,16,15,1.65190615098982,2,0.412569409993012,1,0.991433524002787
1,1,217,22,16,8.75973698499729,2,0.92374025999743,1,0.14367231700453
1,1,218,29,21,6.87428242000169,2,1.12561743300466,1,0.418256024990114
1,1,219,11,9,3.50397669999802,3,1.1172781179921,1,0.595056752004893
1,1,220,12,13,6.12344803799351,3,1.03792373598844,1,1.23902017201181
1,1,221,19,13,6.87434834500891,2,1.68103705500835,-1,0.477931232002447
1,1,222,22,14,4.8887638610031,1,1.18723328498891,-1,1.5179928150028
1,1,223,11,10,3.58733557199594,3,1.26570841000648,-1,0.129114384995773
1,1,224,20,12,6.10679484200955,1,0.353447854999104,-1,0.190250302010099
1,1,225,12,11,5.07239060499705,2,0.551407926002867,-1,0.107996220001951
1,1,226,12,14,5.10565113999473,2,0.582963730994379,-1,0.121258629995282
1,1,227,25,20,3.37049907000619,1,0.96290616299666,1,0.0312994900014019
1,1,228,29,18,1.86876997699437,1,1.09868550600368,1,0.0411034039861988
1,1,229,4,4,3.1035091800004,3,0.822326929002884,-1,0.0802929749916075
1,1,230,12,10,3.45381272899976,2,1.38436060599633,-1,0.69940079501248
1,1,231,16,13,4.18796696400386,2,0.514546910999343,-1,0.768784774001688
1,1,232,19,14,4.28816589999769,2,0.621566435991554,-1,0.655846359004499
1,1,233,18,12,2.50279907099321,1,0.716696259987657,-1,0.266270146006718
1,1,234,9,9,3.38715192000382,3,1.01036664399726,-1,0.565764022001531
1,1,235,28,20,3.30367481200665,2,1.46464474900858,1,0.976261699994211
1,1,236,9,8,1.98562050399778,3,1.94897781900363,-1,1.56052941500093
1,1,237,13,10,1.93551780399866,3,0.839239588996861,1,0.544956410987652
1,1,238,18,20,4.38827429700177,1,0.616451421999955,1,0.0990517550089862
1,1,239,25,18,4.93872181199549,2,0.767047870001988,1,0.305448701998102
1,1,240,9,9,2.85323870999855,3,0.35803586000111,1,0.810961319992202
1,2,241,29,20,5.84007727704011,2,1.06938777101459,1,1.02019214100437
1,2,242,29,18,3.65452600998105,1,1.16574566601776,-1,0.82375000603497
1,2,243,22,16,4.52197602996603,2,1.4344506659545,-1,0.915261662972625
1,2,244,18,15,8.39293292199727,1,0.536798940971494,-1,0.420936093025375
1,2,245,18,13,3.67104179499438,2,0.584657675004564,-1,0.252152380009647
1,2,246,28,24,4.28753120498732,2,0.359688222000841,1,0.140675415983424
1,2,247,26,999,21.8912057359703,1,4.63754760002485,1,1.06696441897657
1,2,248,11,11,7.0074095549644,2,0.916229298047256,-1,0.690245751000475
1,2,249,10,12,4.57174013904296,3,1.0196055349661,1,0.325327483995352
1,2,250,29,20,2.20268361002672,2,0.979339786048513,-1,0.85377097298624
1,2,251,16,14,4.52170515002217,3,1.08199975499883,1,0.272296877985355
1,2,252,18,14,16.1339628699934,1,0.34609124599956,1,0.262353257043287
1,2,253,20,15,5.90724130498711,1,0.570169171027374,-1,0.293673591979314
1,2,254,26,16,15.2334080450237,1,0.629020605992991,-1,0.0160656780353747
1,2,255,12,11,6.27304654603358,3,0.860904875968117,1,1.75517352001043
1,2,256,4,4,1.16821818897733,3,0.636797789018601,-1,2.76504778797971
1,2,257,26,16,3.77048068598378,2,0.329602496989537,1,0.751297048991546
1,2,258,11,9,4.90604268701281,3,0.926288586982992,-1,2.39520131400786
1,2,259,5,5,1.36826071800897,3,0.855474082985893,-1,0.0229857029626146
1,2,260,25,19,15.7665889060008,2,0.813816478010267,-1,1.10341155802598
1,2,261,18,15,5.35624950198689,2,0.812924165977165,1,0.85250784503296
1,2,262,11,10,2.60313235002104,3,0.31262111797696,-1,0.22171272803098
1,2,263,7,6,3.7042031440069,3,0.77138313499745,-1,0.622942857036833
1,2,264,16,13,4.00504214101238,3,1.92407055594958,-1,0.318546770955436
1,2,265,19,16,5.4557614219957,2,0.95707271998981,-1,0.616888330026995
1,2,266,20,17,6.12352382997051,1,0.821544243954122,-1,1.13631260499824
1,2,267,18,16,8.15819039498456,3,1.13015813298989,1,0.23869890102651
1,2,268,4,4,1.20052643702365,3,0.727227048017085,-1,1.07063835900044
1,2,269,4,4,1.30175672500627,3,0.35726480698213,-1,0.0165717010386288
1,2,270,13,13,8.20931101200404,3,1.14926788501907,-1,0.327200900996104
1,2,271,29,20,5.53895503497915,1,0.137572488049045,1,0.261814884026535
1,2,272,6,7,3.20411512994906,3,0.882725730014499,-1,0.975434191990644
1,2,273,21,30,4.72186074004276,1,2.54973169101868,1,0.207961620006245
1,2,274,16,16,15.1826474129921,1,0.967667629010975,-1,1.35467504995177
1,2,275,15,10,3.83739756298019,2,0.442571070976555,-1,0.147075209009927
1,2,276,11,10,2.62012129003415,3,0.558104588009883,-1,0.346285353007261
1,2,277,16,999,5.53916160698282,2,7.66970412502997,-1,6.73420247901231
1,2,278,7,6,1.68475142703392,3,0.327790155017283,-1,0.0860946389730088
1,2,279,18,15,4.98880664003082,3,0.513978148985188,-1,0.0466041580075398
1,2,280,22,19,4.42094326100778,3,1.40504470298765,-1,0.0604542660294101
1,2,281,4,4,0.934240222966764,3,0.573331904015504,-1,0.0176661629811861
1,2,282,16,25,9.49433791497722,2,0.859626553021371,1,0.107510916015599
1,2,283,21,18,7.50838317000307,2,1.29323107399978,1,0.156579470960423
1,2,284,24,15,11.496239419037,1,0.803556255996227,1,1.45419694500742
1,2,285,21,16,8.12550950597506,1,1.0727347380016,-1,0.0561275699874386
1,2,286,14,16,3.95447430002969,2,0.256420743011404,1,0.153450577985495
1,2,287,27,18,2.57006128696958,1,0.364785988000222,-1,0.392512476013508
1,2,288,16,15,6.55767045298126,3,0.22504964703694,-1,0.203620226995554
1,2,289,7,7,2.85401845799061,3,0.727149752958212,1,1.36496309097856
1,2,290,11,10,2.97007807798218,3,0.991624928021338,-1,0.969817853998393
1,2,291,25,15,17.5524926630314,1,0.867340825032443,-1,0.707019502995536
1,2,292,22,12,2.40223363001132,1,0.794488344981801,-1,1.0357765959925
1,2,293,28,16,5.37231663003331,2,0.234583611949347,-1,0.290150985005312
1,2,294,13,12,3.02040123002371,3,0.424793313024566,-1,0.522231868992094
1,2,295,8,8,4.28769719600677,3,0.46120623301249,-1,0.0276537220343016
1,2,296,7,7,3.08719423098955,3,0.843104633968323,-1,1.69967063498916
1,2,297,16,15,6.35606491600629,2,6.52894786198158,-1,0.623933840019163
1,2,298,22,14,2.25236320099793,2,0.805454369983636,-1,0.0172709429753013
1,2,299,4,4,1.33512390003307,3,0.978665177011862,-1,0.869099900999572
1,2,300,6,5,2.75345018494409,3,0.406643548049033,-1,0.159044104977511
1,2,301,29,18,8.55924087302992,2,0.543736328952946,1,1.80445429397514
1,2,302,7,7,2.31958635000046,3,0.335690062027425,-1,0.156575107015669
1,2,303,22,14,3.15295903704828,2,1.19118334399536,-1,0.0254159810137935
1,2,304,22,15,7.02351078402717,2,0.692015396023635,-1,0.93727008998394
1,2,305,4,4,1.10123678704258,3,0.183296387956943,-1,0.35436055297032
1,2,306,20,16,6.22370731295086,2,0.684859164990485,1,0.972666264977306
1,2,307,29,21,1.86862654000288,2,1.4710956979543,-1,1.88427803601371
1,2,308,11,11,4.03698865300976,3,0.800699245010037,1,0.889966615999583
1,2,309,24,16,3.8717262520222,1,1.17906842997763,1,0.917110937996767
1,2,310,21,18,6.69020228995942,2,1.3702885399689,1,0.016488355002366
1,2,311,7,7,2.73640294797951,3,1.47255856002448,-1,0.367613246024121
1,2,312,22,17,5.63954433199251,2,8.67187388899038,-1,0.893169477989431
1,2,313,4,999,1.78613549500005,3,16.0425046000164,-1,0.202104518015403
1,2,314,19,999,2.48521284299204,1,2.56795795302605,-1,0.1135827099788
1,2,315,19,18,5.95700653496897,2,0.360858034051489,1,0.414337353024166
1,2,316,10,9,2.01974572200561,3,0.607181486033369,-1,0.016480624966789
1,2,317,16,14,3.75462473998778,2,0.5097185310442,-1,1.0922808010364
1,2,318,23,18,4.03846120001981,1,0.524018895055633,1,0.183718664979097
1,2,319,29,16,5.10579803702421,2,0.483628553978633,-1,0.131057418999262
1,2,320,12,10,6.24004343501292,3,0.320168092031963,-1,1.31682319298852
1,2,321,24,20,3.53696216800017,2,0.355544082995038,1,0.12034710100852
1,2,322,4,4,0.885193950962275,3,0.228728583955672,-1,0.0164083350100555
1,2,323,27,19,6.340601495991,3,0.771110904985107,-1,0.054810756992083
1,2,324,5,5,1.00050126499264,3,0.519914791046176,-1,0.0162288990104571
1,2,325,25,16,2.51996531296754,1,0.870563107018825,1,0.0175193780451082
1,2,326,23,20,7.82554978498956,2,1.69536046800204,1,0.0527696150238626
1,2,327,29,17,5.57247078500222,2,0.336679069965612,-1,0.189811429008842
1,2,328,17,13,4.47140467300778,2,0.427573120046873,-1,0.0543992270249873
1,2,329,25,15,24.5608661269653,1,0.339326574990992,-1,0.0412848359555937
1,2,330,29,16,11.6799758729758,1,0.13214188098209,-1,0.0413431779597886
1,2,331,14,15,7.00787809002213,1,0.550542091019452,-1,0.0996185049880296
1,2,332,14,12,4.8549416809692,2,0.316333204042166,-1,0.369590674003121
1,2,333,11,11,3.33641061402159,3,0.655496362014674,1,0.120141353050712
1,2,334,11,14,12.981320462015,2,0.765208716038615,1,0.0183112510130741
1,2,335,16,13,3.85343245195691,3,0.494236382015515,1,0.0221556059550494
1,2,336,8,9,3.45351297099842,3,0.507009272987489,1,0.0165517349960282
1,2,337,25,14,14.3665309029748,1,0.203859628003556,1,0.017091938003432
1,2,338,19,14,43.4981696429895,1,1.40733033203287,1,0.288649155001622
1,2,339,26,16,1.71908746799454,2,0.510086547001265,-1,0.029211510962341
1,2,340,17,15,4.20408272504574,2,0.34898431802867,1,0.0411083629587665
1,2,341,6,6,1.50125796004431,3,0.297485397022683,-1,0.551305825996678
1,2,342,27,20,1.46833288302878,2,0.331104554992635,-1,0.183259927027393
1,2,343,23,18,1.9520638549584,2,0.479743393952958,1,0.125476290006191
1,2,344,22,17,3.97054775303695,2,0.327585880993865,1,0.078197487979196
1,2,345,27,22,8.70932626299327,2,0.562211404962,1,0.0162433200166561
1,2,346,29,18,6.75736493896693,2,0.124003493052442,-1,0.257967156998347
1,2,347,16,11,3.92035686498275,3,0.287633803032804,-1,0.168078829010483
1,2,348,25,18,4.52082288498059,1,0.501002916018479,1,0.0992508849594742
1,2,349,8,8,3.73739197698887,3,0.299643850012217,1,0.0525844100047834
1,2,350,21,16,7.87478854000801,2,0.720572418009397,-1,0.0167364879744127
1,2,351,20,18,6.64130674500484,2,0.387304303003475,-1,0.016776517033577
1,2,352,17,13,5.005612413981,2,0.538423264981247,-1,0.016356505046133
1,2,353,17,15,8.09247614699416,1,0.770447383052669,-1,0.0162553479894996
1,2,354,29,18,5.15553664398612,1,0.92463854001835,-1,0.0165057950071059
1,2,355,17,13,4.08776499301894,3,0.568696292990353,-1,0.356979577976745
1,2,356,22,17,4.40510461002123,2,0.793267933011521,1,0.196048638026696
1,2,357,6,6,1.48498558299616,3,0.199894233024679,-1,0.0332039800123312
1,2,358,19,17,8.25830779300304,3,0.970133426017128,1,0.100055030023213
1,2,359,15,14,4.65515535097802,3,0.233574178011622,-1,0.337840472988319
1,2,360,11,12,4.0706979399547,3,0.325237187033053,-1,0.0838400879874825
1,2,361,23,18,2.28562945796875,2,0.434307807008736,-1,0.0166596519993618
1,2,362,5,5,1.06782473204657,3,0.425250215979759,-1,0.306554304959718
1,2,363,20,13,3.87062279303791,2,0.66236892802408,-1,0.0164439649670385
1,2,364,26,18,5.22270243999083,2,0.525941941014025,1,0.0436700739664957
1,2,365,11,10,3.43667371798074,3,0.513816949969623,-1,0.0640759730013087
1,2,366,9,10,2.61941148497863,3,0.415909411036409,-1,0.170658679970074
1,2,367,8,8,2.30252427200321,3,1.12799101794371,-1,0.813231704989448
1,2,368,29,19,2.4697685620049,2,0.812898071017116,1,0.109737820981536
1,2,369,18,16,6.2228490000125,3,0.673060911009088,-1,0.334985362016596
1,2,370,22,18,1.76790370303206,1,0.345556245010812,1,0.0452632179949433
1,2,371,8,8,2.26940908603137,3,0.269722791039385,-1,0.0171147129731253
1,2,372,11,11,1.91866180597572,2,0.688246685022023,-1,0.311124479980208
1,2,373,12,10,3.38711013202555,3,0.300977348000742,1,0.699089691974223
1,2,374,14,13,6.32356919703307,3,1.41254800604656,1,1.22195264097536
1,2,375,22,19,8.4592006119783,2,0.864266845048405,-1,0.335702011012472
1,2,376,23,18,2.437221175991,2,0.607792142953258,-1,0.250175943016075
1,2,377,22,16,1.51788384997053,2,0.544370876043104,-1,0.0174085820326582
1,2,378,19,13,1.75205696298508,2,0.658877248002682,1,0.162605452002026
1,2,379,23,15,2.13612643704982,2,0.350878335011657,-1,0.121595415985212
1,2,380,29,14,2.93675529200118,1,0.581802216009237,-1,0.0738943149917759
1,2,381,4,4,1.08500954502961,3,0.510132623021491,-1,0.0172910389956087
1,2,382,29,18,5.64008573599858,2,0.644397619995289,-1,0.0176287149661221
1,2,383,4,4,0.818709362007212,3,0.61705856496701,-1,0.0166581549565308
1,2,384,10,10,4.83854442898883,3,5.35830931999953,1,3.93407379800919
1,2,385,4,4,0.901026502018794,3,0.466955388023052,-1,0.0175666499999352
1,2,386,22,11,5.18894403695595,2,0.79659039597027,-1,0.205201633041725
1,2,387,5,5,1.53559846198186,3,0.580255396023858,-1,0.167576993000694
1,2,388,16,16,6.45666965999408,2,0.206660178024322,-1,0.321584280987736
1,2,389,11,10,2.25199894502293,2,0.729470524995122,-1,0.0440061800181866
1,2,390,7,7,1.417394004995,3,0.180823014001362,-1,0.1272375700064
1,2,391,16,16,4.08792303095106,2,0.389006717945449,1,0.078965426015202
1,2,392,16,18,4.02109866996761,2,0.400862673006486,-1,0.0164848919957876
1,2,393,26,20,3.03701427602209,2,0.573845462000463,1,0.321584638033528
1,2,394,17,18,13.5652284200187,2,0.579743676004,1,0.470880020991899
1,2,395,18,15,2.95335611398332,1,0.651016727031674,1,0.4179569259868
1,2,396,11,12,5.95670922100544,2,0.556868773011956,-1,0.351795149035752
1,2,397,4,4,0.866971794981509,3,0.353099904954433,-1,0.0165335750207305
1,2,398,22,15,1.48452181101311,1,0.894231621001381,-1,0.0173651929944754
1,2,399,11,12,1.56843296799343,3,0.852062807010952,-1,0.0164505499997176
1,2,400,9,7,6.82512150501134,3,0.831019969948102,-1,0.263058478012681
1,2,401,16,999,30.0169662620174,2,1.50357737403829,-1,1.0301630210015
1,2,402,29,20,4.83862859499641,2,1.10163516097236,1,0.058289774984587
1,2,403,23,16,1.28404628799763,1,0.584678476967383,-1,0.226099663996138
1,2,404,5,5,1.05133354302961,3,1.02937118301634,-1,0.0164883849793114
1,2,405,24,18,1.80114953499287,2,1.10064475802938,-1,0.0582560990005732
1,2,406,4,4,1.0349232640001,3,0.835959192016162,-1,0.0174505680333823
1,2,407,16,13,5.57282899104757,3,0.717379794979934,-1,0.209759655990638
1,2,408,26,15,3.73784820502624,2,0.499645991018042,-1,0.0176402899669483
1,2,409,24,15,4.15492956299568,1,1.38015880499734,-1,0.57423602801282
1,2,410,4,4,1.10144283500267,3,0.608791682985611,-1,0.01764691300923
1,2,411,18,16,7.02418984298129,2,0.680198008019943,-1,0.302410394011531
1,2,412,22,15,4.63823199202307,2,0.705131709983107,-1,0.0174190500401892
1,2,413,29,17,4.70486160099972,2,0.467535270028748,1,0.0166136770276353
1,2,414,17,15,4.08752434002236,2,0.420443382987287,-1,0.277575145999435
1,2,415,21,11,1.73541128303623,1,0.532743426971138,-1,0.0174281150102615
1,2,416,23,16,1.76835570699768,2,0.684015570033807,-1,0.243539702962153
1,2,417,7,7,1.48499184002867,3,0.572232846054249,-1,0.0482664000010118
1,2,418,16,11,3.07071116997395,2,0.632613948022481,-1,0.952310678025242
1,2,419,5,5,1.76860698999371,3,0.86363929399522,-1,0.142355181043968
1,2,420,16,14,3.45394383004168,2,1.73520458297571,-1,0.105257432966027
1,2,421,4,4,1.0505762489629,3,0.171635131002404,-1,0.328181363991462
1,2,422,19,13,1.71827106102137,2,0.531001578026917,-1,0.391391219978686
1,2,423,4,5,2.53531193500385,3,0.531987055961508,-1,0.0171324020484462
1,2,424,22,14,5.10599215800175,2,0.34115334704984,1,0.106514037994202
1,2,425,13,13,7.32543264800915,2,6.07167158200173,-1,0.912779206002597
1,2,426,15,11,1.95259989704937,2,0.602729276986793,-1,0.016737709986046
1,2,427,13,12,5.80689702398377,2,0.27892916998826,-1,0.0924371290020645
1,2,428,4,4,0.950619154958986,3,0.140632733993698,-1,0.327773894998245
1,2,429,24,15,3.65459629701218,2,0.325290593027603,-1,0.0349814830115065
1,2,430,7,8,2.70238724799128,3,0.344890952983405,-1,0.070057770004496
1,2,431,27,16,3.72123826300958,2,0.437981174967717,-1,0.0172013050178066
1,2,432,7,8,1.33419781300472,3,0.344053642009385,-1,0.0173630879726261
1,2,433,9,9,5.73951740300981,3,0.814429240010213,1,0.0400376309989952
1,2,434,4,4,0.90185027802363,3,0.0964841729728505,-1,0.391178602993023
1,2,435,27,16,1.48490986705292,2,0.435174662037753,-1,0.017522837035358
1,2,436,28,21,1.90260385500733,2,0.906285015982576,1,0.175749526009895
1,2,437,4,4,0.935088735015597,3,0.115823999978602,-1,0.275575753010344
1,2,438,24,18,2.43606692302274,2,0.696999184030574,1,0.0175075189908966
1,2,439,20,20,1.66901701601455,2,0.617311409034301,-1,0.0890704409684986
1,2,440,29,19,1.50235956796678,2,0.264980826992542,-1,0.696363859984558
1,2,441,7,7,1.28457198501565,3,0.149716564978007,1,0.46668570995098
1,2,442,13,15,1.60183933598455,2,0.580228597042151,-1,0.198514201038051
1,2,443,7,7,1.16896526596975,3,0.213452782016248,-1,0.262030962971039
1,2,444,21,15,1.51825546100736,2,0.339613647956867,-1,0.176993033965118
1,2,445,13,11,1.70188020798378,3,0.274257946992293,-1,1.62506089004455
1,2,446,23,18,8.02523086301517,2,0.584393370954785,-1,0.155266751011368
1,2,447,12,11,1.43626750999829,2,0.382070234976709,-1,0.224535794986878
1,2,448,29,17,1.66816486499738,2,0.393064512987621,1,0.0210452579776756
1,2,449,11,10,1.46716508100508,2,0.484050414001103,-1,0.0164373249863274
1,2,450,28,999,1.7851185129839,2,0.668633189983666,-1,0.0285999969928525
1,2,451,16,12,1.46859247999964,2,0.69130949297687,1,0.0341994609916583
1,2,452,11,10,1.50109145301394,2,0.604006630019285,-1,0.117284712963738
1,2,453,16,11,1.33500856300816,2,0.861193382996134,1,0.27031289198203
1,2,454,10,7,2.83670296997298,3,0.750277950952295,-1,0.0166273320210166
1,2,455,24,15,2.0358710080036,2,0.579791108029895,-1,0.669876460975502
1,2,456,23,18,1.51834612002131,2,0.364616324019153,1,0.0863955800305121
1,2,457,29,20,2.56980654003564,2,0.270725928014144,1,0.0166398679721169
1,2,458,22,14,1.73490799195133,2,0.925329510006122,1,0.106090809975285
1,2,459,27,19,2.11978212499525,3,4.49507330002962,-1,0.0167061900137924
1,2,460,22,16,2.61957185599022,3,0.375671048008371,1,0.0355650150449947
1,2,461,22,13,1.5354079179815,2,0.127418485004455,-1,0.0175860450253822
1,2,462,4,4,1.25224372802768,3,0.0864168160478584,-1,0.339903240965214
1,2,463,16,12,6.20672434900189,2,0.517781749018468,-1,0.0165036249672994
1,2,464,10,9,2.85331918799784,3,0.597564040974248,1,0.0561040079919621
1,2,465,15,11,1.46745594299864,3,0.634091779007576,-1,0.0345755949965678
1,2,466,4,4,1.08471708797151,3,0.0981447519734502,-1,0.328582144982647
1,2,467,29,16,1.18490740598645,2,0.529985273024067,-1,0.183213711017743
1,2,468,22,20,3.23738255497301,2,0.353497094998602,1,0.0169043589849025
1,2,469,28,18,2.936624414986,1,1.00086116802413,1,0.995869947015308
1,2,470,13,11,1.31837370997528,3,0.331094219989609,1,0.384355592017528
1,2,471,4,4,1.30204489699099,3,0.0619904189952649,-1,0.589324746979401
1,2,472,29,14,1.45253136998508,2,0.516196348995436,-1,0.145544190017972
1,2,473,5,5,1.00131523696473,3,0.380969000980258,1,0.0166963610099629
1,2,474,7,8,1.45143260702025,3,0.478997911035549,1,0.0384006430394948
1,2,475,15,15,1.40144570200937,2,0.59840963804163,-1,0.0173471099697053
1,2,476,11,11,1.3183468170464,2,0.608606406021863,1,0.0171246899990365
1,2,477,22,15,1.3014333100291,2,0.494421201001387,1,0.0175554930465296
1,2,478,5,5,1.01729804603383,3,0.388456062006298,-1,0.0323551769834012
1,2,479,4,4,0.918065261968877,3,0.0612686430104077,-1,0.50968976796139
1,2,480,16,13,1.26836757495767,2,0.333098078030162,-1,0.323088600009214
2,1,1,25,16,6.1902543840115,2,3.11141894798493,-1,3.22220991097856
2,1,2,20,12,5.18935895501636,2,2.89631821698276,-1,2.08387495897477
2,1,3,9,8,3.12115383194759,3,3.27246724697761,-1,4.13416878302814
2,1,4,11,9,1.75222147698514,2,3.02973949804436,1,1.83766266796738
2,1,5,15,13,3.12066009803675,2,3.76877470698673,-1,1.99277587502729
2,1,6,15,15,3.1369437459507,2,1.6722302439739,-1,2.3195521190064
2,1,7,21,21,2.75320097000804,1,1.40977324801497,-1,3.0196847099578
2,1,8,14,10,2.21916553803021,2,1.18611988000339,-1,1.44356226897798
2,1,9,9,8,4.05464297800791,3,1.60677787498571,1,3.37556928495178
2,1,10,6,6,2.66975555504905,3,1.80925299198134,1,3.9048210750334
2,1,11,22,23,6.1901922999532,2,3.16341378900688,-1,1.50956842099549
2,1,12,24,26,4.22161632502684,1,1.84122766403016,-1,1.88963186903857
2,1,13,9,9,2.66986508003902,1,2.00956379197305,-1,2.49104357301258
2,1,14,8,12,6.42399799404666,2,2.59895989898359,-1,6.83276119502261
2,1,15,23,19,4.35484325297875,1,2.09803405101411,1,6.87197562900838
2,1,16,7,9,2.78660254995339,3,0.934353607008234,1,2.66833071800647
2,1,17,11,10,4.20471012202324,3,0.896123158978298,-1,2.06332190398825
2,1,18,14,17,3.13683525496162,2,3.00404699298088,1,3.40414468001109
2,1,19,5,5,2.21932063897839,3,2.73363134800456,-1,3.46533560799435
2,1,20,7,7,3.07017209200421,3,0.952083693002351,1,1.24232900701463
2,1,21,14,19,2.75314957497176,2,1.58378975297092,1,2.10591303301044
2,1,22,5,5,2.18582987302216,3,0.987197794951499,-1,1.2461528040003
2,1,23,4,4,1.33492181502515,3,0.908195141993929,-1,3.62664924497949
2,1,24,28,25,3.77095827501034,2,1.54179280600511,1,3.65073586005019
2,1,25,24,28,2.38598866295069,1,1.62146660295548,1,2.71879465098027
2,1,26,21,20,4.02113044203725,2,1.69126124796458,-1,6.50429231498856
2,1,27,4,4,2.11911783198593,3,1.54990001796978,-1,1.84832618001383
2,1,28,10,13,2.71987018204527,2,1.58372355997562,-1,1.49002441001358
2,1,29,28,30,1.63522232999094,1,1.39561010198668,1,1.75636646099156
2,1,30,29,32,2.13580865500262,1,1.47933396400185,1,2.10287020099349
2,1,31,25,25,1.63525864796247,2,4.84429281996563,1,2.08862922701519
2,1,32,16,16,1.66853233001893,2,2.68971274298383,-1,1.614437436976
2,1,33,17,14,2.43607271299697,3,1.26320536300773,-1,2.04632900498109
2,1,34,7,8,2.95339013496414,3,1.34701262199087,1,2.69651139702182
2,1,35,15,17,2.80307029403048,2,3.70416426594602,-1,3.50771233596606
2,1,36,4,4,1.23471494100522,3,0.866865843010601,-1,5.43444667500444
2,1,37,15,16,2.7030794119928,3,0.994402865995653,-1,1.58885879599256
2,1,38,29,30,1.68528777000029,1,2.09806620498421,1,2.12795659300173
2,1,39,22,29,2.00219788000686,2,1.18921461404534,1,4.21585358498851
2,1,40,24,23,2.25262618996203,2,1.07804438099265,-1,1.57170265098102
2,1,41,9,11,3.55398240999784,3,0.927641924994532,-1,1.11592240596656
2,1,42,29,18,2.2359099650057,2,1.12236191600095,-1,3.62294025201118
2,1,43,7,7,3.02003965800395,3,1.74773640395142,-1,1.46436349995201
2,1,44,7,8,2.25256789801642,3,1.37511014501797,1,2.20878497802187
2,1,45,9,9,3.6375012419885,3,1.04072088003159,-1,1.89631359599298
2,1,46,28,18,1.91888816398568,2,3.77416618296411,-1,6.82894465600839
2,1,47,11,10,6.65745488199173,2,1.55682041897671,-1,1.00838602002477
2,1,48,12,15,1.53511992003769,2,1.0423902659677,-1,0.979726938006934
2,1,49,11,9,2.01890505698975,2,1.76948595797876,-1,5.6444147490547
2,1,50,12,12,2.00225686799968,1,1.11417065997375,-1,2.89660293597262
2,1,51,20,18,3.05348896502983,1,0.89637551800115,-1,2.63088447594782
2,1,52,12,13,2.35280452499865,2,0.82396847801283,-1,2.96829960105242
2,1,53,16,17,2.20252119697398,2,0.98650948604336,1,0.757755342987366
2,1,54,11,12,3.52064324199455,2,0.938221493037418,-1,0.925550660002045
2,1,55,10,12,5.18897538300371,2,0.947076552023645,1,2.11204852798255
2,1,56,19,19,2.31925160501851,2,1.30059558298672,1,0.754139787983149
2,1,57,7,7,2.53614221996395,3,0.828757352021057,-1,1.32485546503449
2,1,58,4,4,1.16813316504704,3,1.32626654999331,-1,1.05937423103023
2,1,59,16,14,7.10789273696719,2,1.8106661530328,1,1.36428888497176
2,1,60,8,9,3.07014203502331,2,1.12894793896703,-1,2.2544847149984
2,1,61,29,21,3.03704640798969,2,11.9839896559715,1,2.79068076499971
2,1,62,5,5,1.48535616800655,3,1.13548298995011,-1,1.27481252897996
2,1,63,20,21,1.83545320801204,1,0.759403779986314,1,1.09142529801466
2,1,64,11,16,2.31923767499393,2,1.17170470597921,1,1.02356578496983
2,1,65,12,13,2.75308399501955,3,1.20763024495682,1,2.36080457101343
2,1,66,7,7,2.40265223698225,3,0.891945710987784,-1,2.08292532502674
2,1,67,22,17,2.70307056000456,1,0.710481505957432,-1,1.18896224495256
2,1,68,4,4,1.10129493504064,3,1.06070712400833,-1,0.765058108023368
2,1,69,13,15,1.80218476295704,1,0.958010756003205,1,1.68238696904154
2,1,70,16,16,1.41824889200507,2,0.85230261500692,1,2.99698015901959
2,1,71,16,16,1.48497211502399,2,4.36298795201583,1,1.39426271500997
2,1,72,12,10,3.07002564298455,2,1.06432133499766,-1,1.44787841802463
2,1,73,17,13,3.01996257604333,1,0.777133845025674,-1,1.92596120503731
2,1,74,7,8,2.7363887699903,3,1.09800158004509,1,1.87995526602026
2,1,75,4,4,1.10135110997362,3,0.763423694006633,1,0.912219306977931
2,1,76,16,10,3.18698400998255,2,1.24650560104055,1,1.71117298101308
2,1,77,7,9,2.65314335696166,3,0.760407396999653,1,0.796846390003338
2,1,78,10,9,4.05453605396906,3,1.01137291901978,-1,2.08555692300433
2,1,79,15,11,2.70303060201695,2,1.06039694801439,-1,2.14703601005021
2,1,80,27,15,1.50180951197399,2,0.811973033007234,-1,0.366793472960126
2,1,81,14,14,2.51955738500692,2,2.45415465004044,1,1.27696901303716
2,1,82,17,16,2.26921255601337,2,3.13939545501489,1,2.02006272599101
2,1,83,7,8,2.81985787703888,3,1.75538663798943,-1,2.03759147098754
2,1,84,29,18,3.00334894104162,2,1.118273220025,1,1.00325887801591
2,1,85,11,9,2.91996965301223,1,1.69870117498795,-1,0.447751652973238
2,1,86,19,17,2.73648200498428,2,1.1227375069866,1,2.12816801201552
2,1,87,28,15,1.56843433901668,2,1.99026012397371,-1,3.92014982801629
2,1,88,4,4,1.15137263498036,3,0.710788362950552,-1,1.23704884800827
2,1,89,4,4,1.11792688805144,3,0.893594391003717,-1,0.0531459999619983
2,1,90,6,5,1.3181868030224,3,0.551614828989841,-1,1.29160113399848
2,1,91,7,7,2.05233924201457,3,0.686569868004881,-1,0.397819542034995
2,1,92,9,9,2.75313542998629,3,0.801721569034271,-1,0.772174044977874
2,1,93,14,11,2.78647701698355,3,1.0168737199856,-1,1.53888503601775
2,1,94,16,12,1.30145776097197,2,1.10100106697064,-1,1.25132527301321
2,1,95,22,16,1.43496864900226,2,1.94411814300111,1,2.20289974298794
2,1,96,4,4,1.10132290696492,3,1.30474311998114,-1,0.559204192948528
2,1,97,11,10,2.60291169199627,2,1.08533285098383,-1,1.12458459101617
2,1,98,6,6,2.45278240402695,3,1.13384701800533,-1,1.0968433819944
2,1,99,22,12,1.70190435496625,3,0.825606568017974,-1,0.963777530007064
2,1,100,9,9,2.95329998701345,3,0.812449677963741,1,1.19775263400516
2,1,101,16,12,2.86991075595142,2,0.532414880988654,1,1.8095975460019
2,1,102,7,7,2.35272300697397,3,1.71869910805253,-1,1.08397654996952
2,1,103,7,9,2.33602159301518,3,0.55875757499598,1,1.41904025798431
2,1,104,11,13,4.70513466000557,2,0.957683168991935,1,5.99438185500912
2,1,105,18,14,3.80417658004444,1,0.600643816986121,1,2.61910981300753
2,1,106,22,19,1.73532554000849,2,0.880597916024271,1,3.08799895294942
2,1,107,7,8,4.40496553003322,3,1.02238643099554,1,2.95243050297722
2,1,108,26,16,3.43711424601497,2,0.875765446980949,1,0.730730816023424
2,1,109,6,6,3.57063190301415,3,1.05337453098036,-1,0.948297725000884
2,1,110,22,15,2.80313310603378,2,1.11512786603998,-1,1.76065643096808
2,1,111,7,9,2.88661719695665,3,0.87777277798159,1,1.11632136401022
2,1,112,13,10,3.18694051000057,2,1.27842923701974,1,1.35786612099037
2,1,113,22,20,1.86882532201707,2,2.99309098999947,1,1.6159369800007
2,1,114,11,9,1.7687318950193,2,1.13597599096829,-1,0.316557911981363
2,1,115,8,8,2.46941565099405,3,1.18646903702756,-1,0.325775011966471
2,1,116,22,13,1.91891495301388,2,0.805233201012015,-1,2.24740552500589
2,1,117,16,15,2.31932371697621,2,0.688662654021755,1,0.878660882008262
2,1,118,11,11,3.77094823902007,3,1.72793168097269,1,0.660466358996928
2,1,119,22,17,2.70298498001648,1,1.21899069100618,1,0.996080212993547
2,1,120,29,16,2.78645831200993,2,1.020062769996,-1,2.16410420002649
2,1,121,13,8,1.43495869997423,2,3.37311730301008,-1,4.95842684002127
2,1,122,21,14,2.76977271103533,2,3.57447374000913,1,1.75004187598825
2,1,123,16,16,1.2847966850386,2,0.836422255029902,1,0.733125865983311
2,1,124,29,20,1.55175374995451,2,0.852675759990234,1,0.365338417992461
2,1,125,26,10,1.28482759196777,1,1.19972524099285,-1,0.545682781026699
2,1,126,14,9,3.03684462502133,1,1.52947293699253,-1,0.374629762023687
2,1,127,29,14,1.96890198299661,2,0.587656467978377,1,1.02333826303948
2,1,128,4,4,1.06789216701873,3,0.543268181965686,-1,1.91664894099813
2,1,129,22,9,2.06898911099415,1,1.24365241301712,-1,0.016915375017561
2,1,130,8,9,2.18584156298311,3,0.730853613000363,-1,0.912772821029648
2,1,131,20,12,1.91891534696333,2,0.689781391003635,-1,0.905001282982994
2,1,132,16,10,1.65192937199026,2,0.751057380985003,-1,1.48195212800056
2,1,133,4,4,0.984467634989414,3,0.550339860958047,-1,0.746937292045914
2,1,134,29,12,5.03900172299473,2,0.878830150992144,-1,1.63063804496778
2,1,135,22,9,5.25596020999365,2,1.0688994260272,-1,0.180283738009166
2,1,136,29,15,2.78644248197088,2,4.47820614703232,-1,2.23265931499191
2,1,137,11,14,5.33932147000451,2,1.58612089103553,1,0.683567009982653
2,1,138,11,8,2.40273595997132,3,0.595251057995483,-1,0.398850853962358
2,1,139,26,13,1.66849384095985,2,1.41376646299614,-1,1.11207926803036
2,1,140,11,12,4.6218098080135,2,0.624608015990816,-1,0.811084749002475
2,1,141,20,13,3.20362212101463,2,0.552921262977179,1,1.67746170697501
2,1,142,22,15,4.47160108201206,2,0.693323965009768,-1,2.2847990290029
2,1,143,21,9,2.28587888902985,2,0.724238537950441,-1,0.66611113602994
2,1,144,7,7,3.22030698700109,3,1.07489292701939,-1,1.07460472895764
2,1,145,4,4,0.984502414998133,3,0.790649623028003,-1,0.689760653011035
2,1,146,29,16,3.63742874696618,2,0.672592949995305,-1,1.53514009597711
2,1,147,25,20,2.73638926597778,1,2.0635695750243,1,0.918526210007258
2,1,148,6,6,2.3526224399684,3,0.712299595004879,1,0.446964838018175
2,1,149,16,12,3.57070302701322,1,0.970879482978489,-1,1.47856197005603
2,1,150,29,16,4.9054388969671,1,2.21503658796428,1,1.26477087801322
2,1,151,19,10,2.11905824602582,2,0.898126497049816,-1,1.36095116101205
2,1,152,13,9,2.23587505199248,2,0.974581626011059,-1,0.745948004012462
2,1,153,22,13,2.58622671000194,2,1.05422641598852,1,1.94054152001627
2,1,154,24,17,2.28596246498637,2,1.44100383995101,1,0.745615734020248
2,1,155,28,14,1.88550218299497,2,1.92981694999617,1,4.47012722596992
2,1,156,18,18,4.88882469700184,2,1.01967009401415,1,4.9090979010216
2,1,157,29,21,3.65413147496292,2,3.20674379600678,1,2.47681900998577
2,1,158,12,9,3.72085577104008,2,1.01247762900311,-1,0.775123760977294
2,1,159,4,4,1.06793843500782,3,0.555499023001175,-1,1.20665837801062
2,1,160,16,10,1.83545254101045,2,0.598640934971627,-1,0.929545745020732
2,1,161,22,18,1.78541845700238,2,1.02552273403853,1,0.410945735988207
2,1,162,29,25,1.60179892805172,2,0.86308674904285,1,0.423846074030735
2,1,163,7,8,2.40276613802416,3,0.971937622991391,1,0.559777024027426
2,1,164,19,16,7.39157263503876,2,2.18605052499333,1,1.57929846999468
2,1,165,5,7,2.48615921003511,3,0.9666117230081,-1,0.417251522012521
2,1,166,25,18,2.23589611198986,2,0.961523245030548,1,4.68581376998918
2,1,167,10,9,2.28594277199591,3,2.08616977796191,-1,0.364272227976471
2,1,168,4,4,1.13468354998622,3,1.64527486695442,-1,0.349344460002612
2,1,169,7,7,2.71976576000452,3,0.803811749967281,-1,0.406851468025707
2,1,170,6,6,3.25362814002438,3,0.772128985961899,-1,3.4237918430008
2,1,171,20,12,2.05237640300766,2,0.799903495004401,1,1.402571061044
2,1,172,11,10,3.5373221320333,3,1.10493301803945,1,1.189946812985
2,1,173,8,8,2.63633310998557,3,0.778500671032816,-1,1.07062836101977
2,1,174,17,16,3.47045679501025,2,0.965854295005556,-1,1.50632603501435
2,1,175,11,10,3.52059297997039,2,0.946854359004647,1,2.87249551102286
2,1,176,11,11,3.93770206900081,2,0.858610771014355,1,0.307007785013411
2,1,177,7,8,2.81984323897632,3,0.732576932001393,-1,1.64229427505052
2,1,178,15,13,2.60291569499532,3,0.470207540027332,-1,1.52655044803396
2,1,179,22,17,3.48728687502444,1,2.44310360500822,1,0.570719894953072
2,1,180,8,8,2.45278916601092,3,0.622118120023515,-1,0.622944157978054
2,1,181,4,4,1.36825823999243,3,1.65668956399895,-1,0.82404294598382
2,1,182,11,12,2.66968486900441,3,0.846623488992918,1,1.16784768999787
2,1,183,12,12,4.42160060600145,3,0.745864475029521,1,0.510633427998982
2,1,184,15,10,2.96998854499543,1,0.612913381017279,1,1.74322191800456
2,1,185,4,4,0.917715242016129,3,0.854829773015808,-1,0.279079391038977
2,1,186,6,6,1.80204992898507,3,1.08198369300226,-1,1.33579476096202
2,1,187,25,14,2.50285852496745,2,0.921026106982026,1,1.46279883600073
2,1,188,26,18,1.91880924598081,2,0.575368994963355,1,0.348039545002393
2,1,189,16,15,1.83553373697214,2,0.588149357994553,1,0.5357504709973
2,1,190,22,16,1.41827753098914,2,0.695943550032098,1,0.399749980017077
2,1,191,6,7,2.66964854596881,3,0.350552340969443,1,0.466733638022561
2,1,192,11,9,4.10452761600027,2,0.891637608001474,-1,0.163090131012723
2,1,193,23,16,1.81870738195721,2,0.880293919995893,1,0.336850474006496
2,1,194,16,12,1.50174575200072,2,0.608586539980024,1,2.37979275500402
2,1,195,26,16,2.25254558201414,2,0.612801448034588,-1,0.631522302050143
2,1,196,27,18,2.25259143498261,1,1.8441061329795,1,1.0104816199746
2,1,197,11,10,4.33814886800246,2,4.06270143797155,1,4.63530665304279
2,1,198,22,12,1.6852265750058,2,0.875486058008391,-1,0.899970816040877
2,1,199,27,10,1.7518936029519,2,2.30899149202742,-1,1.17679156298982
2,1,200,10,9,3.78761505498551,3,1.54026168602286,-1,0.6488397080102
2,1,201,27,12,3.60404205397936,1,0.544328832009342,-1,1.82159122696612
2,1,202,14,11,3.63739405001979,2,1.17785598605406,-1,1.49152029503603
2,1,203,11,9,3.93775325204479,2,0.740910860011354,-1,0.274228154972661
2,1,204,16,10,1.80203586100833,2,1.14011394500267,-1,0.25699500303017
2,1,205,7,8,2.61959041800583,3,0.923451124981511,-1,0.425325980992056
2,1,206,7,8,4.83878858800745,3,0.838301245006733,1,0.808026293001603
2,1,207,12,12,4.5050870400155,2,0.702178207982797,1,5.30883089598501
2,1,208,7,7,3.05345966998721,3,0.426300944993272,-1,0.258613853016868
2,1,209,19,17,3.6207311800099,2,3.08291148999706,1,0.872691734984983
2,1,210,28,16,2.31931615498615,2,0.703161304991227,1,1.27798182499828
2,1,211,9,9,5.1223425270291,3,0.929609888000414,1,0.823231760994531
2,1,212,11,9,4.2380932829692,3,0.713865934987552,-1,1.0481432970264
2,1,213,22,14,2.4361233250238,2,0.71884179499466,1,1.40429617196787
2,1,214,21,16,1.98558504000539,2,3.15870440501021,1,0.817127277026884
2,1,215,16,16,2.4194117099978,2,1.55246227799216,1,3.35512980096973
2,1,216,9,10,3.82089564902708,3,0.661311679985374,1,0.630055411020294
2,1,217,28,16,1.66861536196666,2,2.45720065099886,1,1.05439939594362
2,1,218,25,14,2.41936419799458,1,1.40466836298583,-1,1.1663610629621
2,1,219,7,7,2.43611000000965,3,0.529378795996308,-1,0.311722006008495
2,1,220,29,15,3.12022601999342,2,1.15878385299584,-1,0.546803495963104
2,1,221,18,14,2.28594412497478,2,1.65859158296371,-1,1.25039929599734
2,1,222,29,19,2.0523566599586,2,0.675129719020333,1,0.371653906011488
2,1,223,4,4,1.01787826803047,3,0.604544543020893,-1,0.59933382604504
2,1,224,7,7,2.81988411501516,3,0.547145836986601,-1,0.120594581007026
2,1,225,10,9,5.35594370000763,3,0.848599359975196,-1,0.593243638053536
2,1,226,11,10,3.38709760899656,3,0.591669754998293,1,1.09895113599487
2,1,227,29,16,2.81989117199555,1,0.160230342007708,1,1.15747952199308
2,1,228,29,20,2.2860035370104,1,0.824100294965319,1,3.8103602679912
2,1,229,27,17,2.55285918497248,2,1.02788032102399,-1,0.325652284023818
2,1,230,7,8,2.46948162704939,3,0.681229854992125,1,1.03873572399607
2,1,231,13,11,2.35268561000703,3,0.885990590031724,1,0.917374719982035
2,1,232,14,12,3.93777776998468,2,1.11503070296021,1,0.264581126975827
2,1,233,7,8,2.41943198401714,3,0.486902980017476,1,0.142991446016822
2,1,234,7,7,2.48615745501593,3,0.705253102001734,-1,0.399933225999121
2,1,235,16,13,5.15580384404166,2,0.807986275991425,1,1.31449261901435
2,1,236,8,9,2.5695930699585,3,0.693611523020081,1,0.317439311009366
2,1,237,10,10,3.63743755000178,3,1.41923615999985,1,1.0433993479819
2,1,238,16,14,4.57179860997712,2,0.852183584996965,1,1.5085448360187
2,1,239,29,16,2.23589107999578,2,1.16772171098273,-1,1.95519555895589
2,1,240,17,14,4.75531878700713,2,0.913741538010072,1,1.77487326599658
2,2,241,29,14,2.95357261702884,2,4.00420327798929,-1,0.995692142983899
2,2,242,24,18,1.73564924998209,3,0.898828877951019,1,1.4326622140361
2,2,243,14,12,1.73565415490884,2,0.546251954976469,-1,0.742705954005942
2,2,244,7,7,2.30343244201504,3,0.802688351017423,-1,0.701490264968015
2,2,245,7,8,1.96890311397146,3,0.689412743085995,1,0.719012254034169
2,2,246,20,16,1.63524256600067,2,0.76361367397476,-1,1.15997837798204
2,2,247,29,18,1.91895794996526,2,2.48897661303636,1,0.774623516015708
2,2,248,11,11,3.20345768390689,3,0.935574670089409,1,0.523582073044963
2,2,249,15,12,1.73526464507449,2,0.550953208003193,1,0.675399961066432
2,2,250,17,16,1.68534430500586,2,0.854577679070644,1,1.27859719796106
2,2,251,22,17,1.66840613808017,2,1.24717931007035,-1,2.08668588590808
2,2,252,7,8,5.72301838605199,3,0.934601034037769,1,0.411945907981135
2,2,253,11,9,2.06902555306442,2,0.785706548951566,-1,0.579333069035783
2,2,254,16,12,1.61845852993429,2,0.753095739986748,1,2.74933347001206
2,2,255,28,19,2.06892260105815,1,1.70063410408329,1,1.3774879979901
2,2,256,24,16,1.73534211202059,2,1.19400209595915,-1,0.860258045024239
2,2,257,13,10,2.55292445106898,2,0.706154535990208,1,1.38442275102716
2,2,258,29,16,1.46846914698835,2,2.50325174699537,-1,1.61961726902518
2,2,259,9,9,2.05241772299632,3,0.695475454907864,-1,0.33419476589188
2,2,260,23,13,3.08676237496547,1,6.57344447798096,-1,0.968996013049036
2,2,261,22,13,1.31807003100403,2,0.85065018502064,-1,2.43534609500784
2,2,262,7,7,1.85206352302339,3,0.623061305028386,-1,0.232459548977204
2,2,263,29,13,1.16799384495243,2,1.02230562001932,-1,0.975904977996834
2,2,264,15,12,1.76865626603831,2,0.781174854957499,-1,1.08076917997096
2,2,265,8,8,3.38717705302406,3,0.599767017993145,-1,0.106010280898772
2,2,266,29,17,2.0689868000336,1,2.45360507001169,-1,1.5319265750004
2,2,267,25,20,1.76860387099441,1,0.796473104972392,1,1.12030196003616
2,2,268,22,18,2.21917890501209,2,2.85572125692852,-1,1.61417544994038
2,2,269,7,7,2.48626757995225,3,0.56857438699808,-1,0.139459901023656
2,2,270,11,10,2.16913729999214,2,1.41428913897835,-1,5.05678821296897
2,2,271,7,8,2.6029869960621,3,1.36514884105418,1,2.72667660505977
2,2,272,11,11,2.03560661606025,2,0.803278156090528,1,1.31776788097341
2,2,273,11,10,2.50278090906795,2,0.854205490089953,1,0.142362086102366
2,2,274,5,5,2.3026564050233,3,0.908231734996662,-1,1.09819736797363
2,2,275,7,7,2.61966095701791,3,0.545974810956977,-1,1.8000570749864
2,2,276,4,4,0.984521783073433,3,0.617256729979999,-1,0.827413709950633
2,2,277,24,19,2.0022678130772,1,0.343597052036785,1,0.989121583057567
2,2,278,21,20,1.8020902199205,2,1.75779254292138,1,1.30577256705146
2,2,279,29,19,1.75194466498215,2,1.61881198000629,1,0.658654199913144
2,2,280,21,16,1.73537022003438,2,0.895351240993477,-1,0.870504000922665
2,2,281,16,16,1.68521723302547,2,0.615098196081817,1,0.92944893008098
2,2,282,20,15,1.95232937298715,2,0.560764017980546,-1,0.597722296020947
2,2,283,27,14,1.31815795507282,2,1.42607552499976,-1,2.00333101395518
2,2,284,11,10,3.73755853693001,3,2.18267731997184,1,0.288957391981967
2,2,285,22,13,1.45170925196726,2,1.30185253103264,1,0.883202998084016
2,2,286,29,17,1.8187148750294,2,1.25944195094053,1,2.78008793608751
2,2,287,21,16,4.88871751597617,2,0.768535848008469,-1,2.5965974710416
2,2,288,26,15,3.05339689797256,1,1.76303483196534,1,2.55824128503446
2,2,289,22,14,4.6885444780346,2,1.59482889703941,-1,1.43663334101439
2,2,290,25,18,1.80210005003028,2,1.01761881797574,1,0.81899926008191
2,2,291,4,4,1.50165413296781,3,0.503990388009697,-1,0.823022169992328
2,2,292,27,13,1.46829398605041,2,3.12065163697116,1,1.30842138594016
2,2,293,11,11,3.43711544491816,3,0.676106490078382,1,0.220138508011587
2,2,294,13,13,4.17133834795095,2,11.9095976339886,-1,1.04020676203072
2,2,295,7,7,2.83645901607815,3,6.01412428100593,-1,1.01114036189392
2,2,296,18,13,1.55174115893897,2,6.39727166807279,-1,2.38626339600887
2,2,297,21,19,1.75203868001699,1,4.1821362109622,1,3.24693664198276
2,2,298,15,11,2.30259251501411,2,2.91228755097836,-1,2.54041050910018
2,2,299,17,9,4.33817237697076,2,1.74321982800029,-1,0.835094639915042
2,2,300,23,14,1.66854540002532,3,0.556642372976057,-1,0.864867376047187
2,2,301,24,14,2.01892775204033,2,2.38184795796406,1,1.10430836305022
2,2,302,23,16,2.15249107498676,2,1.51155901805032,-1,3.58132430899423
2,2,303,22,14,2.26930596190505,2,0.552986061084084,-1,0.213672848069109
2,2,304,4,4,1.13466927502304,3,0.408135513076559,-1,0.362320512998849
2,2,305,4,4,0.917729869950563,3,0.428063852945343,-1,1.40650082495995
2,2,306,16,10,2.56954017397948,2,0.955246860976331,-1,0.9995474179741
2,2,307,20,14,1.51845977990888,2,0.571898851078004,1,0.99215883796569
2,2,308,16,10,2.23586138593964,3,0.943197889951989,1,0.628498564939946
2,2,309,4,4,0.851001791073941,3,0.466109625995159,-1,0.210128580918536
2,2,310,20,9,2.43606572994031,2,1.55080194305629,-1,0.10579089995008
2,2,311,22,12,3.17021178302821,1,1.93522357998881,-1,1.5386333160568
2,2,312,5,5,1.58510056801606,3,0.362650358001702,-1,0.350014479947276
2,2,313,17,11,1.98557933897246,2,0.836050656973384,-1,1.31689003994688
2,2,314,23,14,1.83547633502167,2,2.44346131791826,1,1.5233680800302
2,2,315,22,18,1.86881752498448,2,0.623524753027596,1,0.425251596956514
2,2,316,15,14,2.50285800208803,2,0.479356431984343,1,1.07122933492064
2,2,317,10,12,3.70420072297566,3,0.491132454015315,1,0.458014866919257
2,2,318,10,9,3.32037390395999,3,0.214090471039526,-1,0.208701980067417
2,2,319,7,7,2.18586906499695,3,0.267223706934601,-1,0.211289803031832
2,2,320,4,4,1.01781315391418,3,0.181515228003263,-1,0.57760577800218
2,2,321,16,13,5.23922757292166,3,0.41674077801872,-1,0.107089994940907
2,2,322,22,18,2.20244258595631,1,0.134017650038004,1,1.23516392603051
2,2,323,17,15,1.61851371091325,2,1.24661096103955,-1,2.02356473705731
2,2,324,23,16,1.40166309499182,2,0.650706975022331,-1,1.20346099394374
2,2,325,29,14,2.5028599499492,2,0.600103038013913,-1,0.40155201498419
2,2,326,18,15,2.28596690203995,2,0.676378605072387,1,0.644168399972841
2,2,327,4,4,1.46836997196078,3,0.852538114995696,-1,0.40483623102773
2,2,328,22,17,5.25577884702943,2,0.583452933002263,1,0.378273178939708
2,2,329,19,18,1.88549505698029,2,0.76198164105881,-1,0.238762388005853
2,2,330,4,4,1.2848673859844,3,0.67864678800106,-1,0.150416744989343
2,2,331,25,16,2.7030862349784,1,0.410022650961764,-1,0.763968729996122
2,2,332,29,20,2.55294114700519,2,0.662252902984619,1,0.670915836002678
2,2,333,27,17,1.96894452197012,2,0.793029031017795,-1,0.963944480987266
2,2,334,16,12,1.98561750294175,2,0.589821671019308,-1,0.345169023028575
2,2,335,4,4,1.06795611197595,3,0.293605066020973,-1,0.051848374074325
2,2,336,19,10,2.01892742107157,2,0.364033228950575,-1,1.49609944096301
2,2,337,11,9,2.085673875059,2,0.530626638908871,-1,0.272196440026164
2,2,338,29,16,1.91887342196424,2,1.27296841202769,-1,0.720650463015772
2,2,339,11,11,3.97114409192,3,0.522397362976335,-1,0.495728853042237
2,2,340,4,4,0.917745030019432,3,0.560286117019132,-1,0.124682098976336
2,2,341,5,5,1.58507137396373,3,0.369642946054228,-1,0.549010994960554
2,2,342,27,14,4.03798017697409,2,0.327434361097403,1,1.91018638806418
2,2,343,5,5,1.71863934199791,3,0.520678486907855,-1,0.894564696005546
2,2,344,12,16,5.88992260198575,2,1.05821031692903,1,0.0341685629682615
2,2,345,24,18,1.90212511701975,1,2.93293457000982,1,0.887794995098375
2,2,346,22,18,2.11903767299373,2,1.20790784806013,1,0.83188815205358
2,2,347,22,14,1.91878408903722,1,0.151970595936291,1,0.493069170974195
2,2,348,24,16,2.05233549291734,1,0.321979881031439,-1,0.680318508995697
2,2,349,16,17,7.50838513404597,2,0.57487759902142,1,1.41071222303435
2,2,350,11,13,4.45503381395247,2,1.23314221797045,-1,0.625522038084455
2,2,351,4,4,1.43512104998808,3,0.415236197994091,-1,0.425352012971416
2,2,352,28,11,2.16910026094411,2,6.02655452105682,-1,0.718695592950098
2,2,353,26,16,1.60231815709267,2,0.597212891909294,-1,0.464552505989559
2,2,354,16,10,4.05451748298947,3,0.636573415016755,-1,0.317028344958089
2,2,355,21,9,3.23694138601422,1,2.33334191294853,-1,0.102986874058843
2,2,356,15,15,5.28923952800687,2,1.37154173396993,1,0.246780086075887
2,2,357,17,16,6.45705440500751,2,0.364370509050786,1,0.520771660027094
2,2,358,11,14,3.45392645196989,3,0.512156573007815,-1,1.55087293300312
2,2,359,23,17,5.95667652995326,2,0.482782625011168,1,0.60161852708552
2,2,360,16,15,5.7063397919992,2,2.54635285492986,1,0.292744444101118
2,2,361,25,19,2.41944843507372,1,1.3200552649796,1,0.661626824992709
2,2,362,4,4,1.68508831993677,3,1.79052911500912,-1,1.45691713003907
2,2,363,29,16,1.56847755005583,1,1.03183607500978,-1,0.0384992859326303
2,2,364,23,18,1.56842548493296,2,0.568230301956646,1,0.708554418990389
2,2,365,7,9,2.91987316997256,3,0.558189147966914,-1,0.0169700529659167
2,2,366,19,15,2.90315225697123,2,1.25304129405413,-1,0.492800885927863
2,2,367,16,16,2.13579739595298,2,0.373519217013381,1,0.489622527966276
2,2,368,18,18,5.57292258494999,1,0.869577705976553,1,1.05350448400714
2,2,369,4,4,0.86770212999545,3,0.489775868947618,-1,0.464708919986151
2,2,370,29,17,5.37246249604505,2,1.86448170198128,-1,4.79192581307143
2,2,371,23,14,1.53507032804191,2,0.992988622980192,-1,0.515338249970227
2,2,372,26,18,3.45390028809197,2,3.11457729106769,1,0.422268357942812
2,2,373,29,13,1.88549462100491,2,0.691655443049967,-1,0.170546487090178
2,2,374,8,8,2.53616140503436,3,1.89752190408763,-1,0.191561839892529
2,2,375,29,16,2.05232151190285,2,1.62369313300587,-1,1.63863256492186
2,2,376,19,11,1.55181243200786,2,0.776882994920015,1,0.227807090966962
2,2,377,19,16,5.43944070499856,1,0.713120480068028,1,1.12692891503684
2,2,378,5,5,1.40162797505036,3,0.678440187009983,-1,0.0384379629977047
2,2,379,29,16,3.6207684520632,2,0.572466567973606,1,0.952527563087642
2,2,380,7,7,2.80287024297286,3,0.600290775997564,1,0.099840970011428
2,2,381,18,12,2.81980661093257,2,0.96817473997362,-1,0.908507070038468
2,2,382,19,16,2.13578333496116,2,0.417409004992805,1,4.51533411093988
2,2,383,25,18,2.21922594297212,2,0.625896365032531,1,0.227969144005328
2,2,384,17,9,2.35269408195745,2,1.01029212598223,-1,0.515614390023984
2,2,385,16,14,4.32152764301281,2,0.352571911062114,-1,1.20548791799229
2,2,386,4,4,1.58512255304959,3,0.95923071494326,-1,0.258575325016864
2,2,387,25,11,4.8721050019376,2,0.554291400010698,-1,0.142815451021306
2,2,388,6,6,2.235822423012,3,0.898959442973137,-1,0.0327228270471096
2,2,389,6,6,2.06899353896733,3,0.294073580997065,-1,0.836773640010506
2,2,390,10,9,2.55289675004315,3,0.373927520937286,-1,0.272889207000844
2,2,391,11,10,3.45385624200571,3,0.30685923807323,1,0.361735259066336
2,2,392,16,14,4.03779018996283,2,0.572439356008545,1,0.528148866957054
2,2,393,16,13,5.4728126419941,2,0.891201331978664,-1,1.29823625797872
2,2,394,29,16,4.63848859001882,1,0.527521730982699,1,0.901204130030237
2,2,395,10,10,3.1702370980056,3,0.610739848925732,-1,0.373169066035189
2,2,396,14,14,5.70640014496166,2,1.04050313995685,-1,1.00852252799086
2,2,397,22,17,5.12245426699519,2,3.78244738897774,1,1.31788510095794
2,2,398,4,4,1.40161453105975,3,1.20058660092764,1,0.538372935028747
2,2,399,4,4,0.95111880893819,3,0.643392573110759,-1,0.628913693013601
2,2,400,11,10,3.42047430202365,3,0.307848116965033,1,0.290823798044585
2,2,401,20,16,1.58513062598649,2,0.627030017087236,1,0.941109020030126
2,2,402,4,4,1.63519458298106,3,0.892889934009872,-1,0.235398498014547
2,2,403,4,4,1.00115924910642,3,0.649156467989087,-1,0.401971578015946
2,2,404,23,16,3.02006925200112,2,2.53065776999574,-1,1.35031104204245
2,2,405,24,18,3.92104738298804,3,1.98253836901858,-1,1.75949969491921
2,2,406,19,16,2.66969086497556,2,2.15223511692602,1,2.31348740693647
2,2,407,6,6,3.68749689101242,3,0.808527674991637,-1,0.0347371650859714
2,2,408,22,11,2.30258306593169,2,3.08067695004866,-1,1.58838773099706
2,2,409,13,13,4.35490892303642,2,1.39073773892596,-1,0.337331447051838
2,2,410,4,4,1.03456837695558,3,0.582352461991832,-1,0.249122190987691
2,2,411,11,10,2.88658363500144,3,0.76174578606151,1,0.222598399966955
2,2,412,13,11,3.6540645819623,3,1.05015889997594,1,0.210175526910461
2,2,413,28,15,2.03567415697034,1,1.56404572993051,1,1.14328550791834
2,2,414,22,16,4.55504364403896,2,1.59059248003177,-1,1.82514173805248
2,2,415,24,16,2.97005778201856,2,5.17723884200677,1,1.16759764298331
2,2,416,29,18,4.03786390798632,2,1.90341897797771,1,0.0935401620808989
2,2,417,18,9,6.37383162195329,1,1.18450969306286,-1,0.211380228982307
2,2,418,28,21,2.61973456095438,2,0.935874287970364,1,0.220680530066602
2,2,419,27,17,5.27255030500237,2,0.734084377065301,-1,0.306831644964404
2,2,420,11,13,3.95445340499282,3,0.511747459997423,-1,0.293473366997205
2,2,421,9,10,2.95328778703697,3,0.774303630925715,-1,1.3220658749342
2,2,422,21,1,2.21922455308959,1,1.69449724897277,-1,0.044439009972848
2,2,423,22,16,1.78542964998633,2,1.65790206298698,-1,0.273537226952612
2,2,424,22,18,10.7286459259922,1,0.833586937049404,1,1.06579250097275
2,2,425,16,12,3.30367035802919,2,1.40287682996131,-1,0.452792951953597
2,2,426,22,16,2.36931697197724,2,2.60567730595358,1,0.99036224198062
2,2,427,16,11,2.0523821200477,2,0.451869913027622,-1,1.33263088797685
2,2,428,5,5,2.05234750290401,3,0.881666163098998,-1,0.215330516104586
2,2,429,16,10,1.58519992302172,3,0.914093416067772,-1,0.248408204992302
2,2,430,13,11,2.08556813304313,2,0.50845954590477,1,0.555519992951304
2,2,431,13,10,2.20245442795567,2,0.735345124034211,-1,1.65261990309227
2,2,432,16,1,2.58623315999284,1,2.73517515009735,-1,0.0181620439980179
2,2,433,14,17,3.10349848796614,2,1.53626906301361,-1,3.80449858494103
2,2,434,26,15,1.78532659506891,2,2.42015951592475,-1,3.35589343693573
2,2,435,8,9,2.86991878692061,3,0.736874197027646,1,0.502192872925662
2,2,436,11,11,3.13685288000852,3,0.348938367911614,1,0.0582148060202599
2,2,437,18,17,1.8354545320617,2,0.809548920020461,-1,0.275501830969006
2,2,438,18,11,1.61848870001268,2,0.782110949978232,-1,0.225851126015186
2,2,439,26,14,1.38488841091748,2,0.328724807011895,1,0.253044030047022
2,2,440,22,16,1.26818369806278,2,0.504141725949012,-1,0.574932413059287
2,2,441,27,17,1.13461734494194,2,0.415198188042268,1,1.52864717901684
2,2,442,22,16,1.81870036001783,2,0.0854334060568362,-1,0.261046952917241
2,2,443,18,11,1.63521819701418,2,0.302437321050093,-1,0.219807561021298
2,2,444,8,8,3.23698239808436,3,0.980068683042191,-1,0.103711187955923
2,2,445,29,14,2.11912679800298,2,1.22507575899363,-1,0.0420135820750147
2,2,446,18,16,2.56960514001548,1,0.250580510939471,1,1.37120624003001
2,2,447,21,14,1.65186544600874,2,0.603000177885406,-1,0.69310354499612
2,2,448,29,15,2.13575813209172,2,0.587786129908636,-1,0.878466187976301
2,2,449,16,10,2.21915640693624,2,1.19854333496187,1,0.600326051004231
2,2,450,20,12,2.20251236995682,2,0.542287375079468,-1,0.419175200979225
2,2,451,26,16,1.43486164603382,2,0.718517097993754,1,1.05202351603657
2,2,452,4,4,1.38493405701593,3,0.523627807968296,1,0.295764971990138
2,2,453,16,16,3.1536488509737,2,2.51936953503173,1,1.07541025697719
2,2,454,17,13,2.10234553006012,2,1.71500704006758,-1,0.248059800011106
2,2,455,13,10,2.552862570039,3,0.929584941943176,-1,2.03888312494382
2,2,456,29,18,2.05236791493371,1,0.612294476013631,1,0.375105593004264
2,2,457,5,5,2.15246473497245,3,0.42691511393059,-1,1.9004567109514
2,2,458,8,9,3.23701138200704,3,0.748316525947303,1,0.409077728050761
2,2,459,22,10,1.80208325700369,2,0.796409799018875,-1,0.726989349001087
2,2,460,4,4,1.75190601998474,3,1.22752162290271,-1,0.0530423750169575
2,2,461,4,4,1.38493661000393,3,0.363366425037384,-1,0.416459275991656
2,2,462,29,12,1.55177848797757,2,0.456355395028368,-1,0.616886264993809
2,2,463,12,10,2.45281409996096,2,0.868687811074778,-1,0.540173972025514
2,2,464,10,9,3.00335293402895,2,1.09187468502205,-1,0.0893028150312603
2,2,465,23,13,2.03562142502051,2,1.00279932795092,1,0.293441484915093
2,2,466,7,8,2.48612758901436,3,0.552500992896967,1,0.172154321917333
2,2,467,12,11,4.2213583260309,3,0.382461435976438,1,0.328557422966696
2,2,468,28,16,1.80213538801763,2,1.28839729796164,-1,0.575393441948108
2,2,469,16,10,2.78643380803987,2,0.44553448795341,1,0.341999772936106
2,2,470,14,11,3.58741071505938,2,0.494399966089986,-1,0.81990025297273
2,2,471,11,9,4.67187341803219,3,0.991095299948938,-1,0.249861652962863
2,2,472,5,6,2.2692323330557,3,0.834175752941519,-1,0.699474697001278
2,2,473,26,12,4.02113911998458,2,0.560312159010209,1,0.65369682200253
2,2,474,12,11,4.33822630299255,3,0.662689769989811,-1,0.0863144579343498
2,2,475,7,7,2.60298970504664,3,0.720605398062617,-1,0.182609365088865
2,2,476,6,6,1.73535487207118,3,0.322596059995703,-1,0.216681813006289
2,2,477,27,13,2.28595656808466,2,1.32881115097553,-1,0.718587697017938
2,2,478,4,4,1.5350424250355,3,0.526138224988244,-1,0.620557026006281
2,2,479,16,14,2.33594538108446,2,0.621806435985491,-1,2.50387636607047
2,2,480,9,8,3.95443583803717,3,0.924235041020438,-1,0.449592180899344
3,1,1,22,12,3.62119485298172,2,2.06907076499192,-1,1.67455285601318
3,1,2,10,9,5.95784908597125,2,3.77112730097724,-1,0.891726360016037
3,1,3,29,15,1.90250120998826,1,5.35487823799485,-1,2.03217764798319
3,1,4,25,22,2.47031976503786,3,3.08620337100001,-1,1.16287060000468
3,1,5,28,17,2.18617748998804,3,1.05874953098828,1,2.32960891997209
3,1,6,26,18,4.32125361700309,2,1.21679625799879,-1,3.04096172796562
3,1,7,16,14,2.58700401498936,3,0.665072430041619,-1,0.529323138005566
3,1,8,9,9,4.07099317200482,3,0.815244238008745,1,1.47144637396559
3,1,9,11,13,4.02364431804745,1,1.26826693100156,-1,1.98711281502619
3,1,10,22,20,7.37408408802003,2,1.22836395603372,1,1.93320159596624
3,1,11,7,8,4.02126000099815,3,1.39486127498094,-1,2.58069646504009
3,1,12,11,13,4.50392684695544,3,0.894226618984248,1,0.419593052996788
3,1,13,25,19,2.5528611469781,3,10.0425243829959,-1,3.59947562601883
3,1,14,16,17,1.61919701501029,2,1.12090329499915,-1,3.15082529501524
3,1,15,7,8,2.73694557300769,3,0.667450366017874,1,2.35459848295432
3,1,16,7,8,5.50740185502218,3,0.398546686978079,1,3.12902628304437
3,1,17,7,9,5.12275274703279,3,0.351448946981691,1,0.396415963012259
3,1,18,13,16,4.15517589502269,3,0.62492845999077,-1,1.69030039600329
3,1,19,24,21,4.25483643898042,2,0.41218389995629,-1,1.43774308200227
3,1,20,16,14,1.88493084599031,2,2.44618004001677,-1,0.7744245880167
3,1,21,12,16,2.76962047303095,1,0.530914240982383,-1,0.398505742021371
3,1,22,6,7,2.73693709500367,3,1.1602670350112,1,0.363740565022454
3,1,23,28,32,2.76973092701519,2,3.07251148601063,1,0.477247310976963
3,1,24,29,21,4.60450558498269,2,1.44407325400971,-1,3.94096066796919
3,1,25,25,18,4.25416194804711,2,0.883626502996776,-1,1.9153353080037
3,1,26,22,14,3.47067318001064,2,0.668217942002229,-1,0.363778339989949
3,1,27,22,16,8.65969934000168,1,1.11039233300835,-1,2.58625712699722
3,1,28,20,14,2.88674681499833,2,2.64794298599008,-1,1.29372765100561
3,1,29,4,4,2.85323737101862,3,0.302035262982827,-1,5.63540389301488
3,1,30,4,4,1.8185528080212,3,1.02377104497282,-1,1.39945695997449
3,1,31,6,6,2.18525334796868,3,2.40107265999541,1,1.35281670297263
3,1,32,22,15,2.08568633702816,3,2.57784917601384,-1,1.1878564049839
3,1,33,17,15,6.62374116003048,2,0.901733784994576,-1,1.2989755179733
3,1,34,6,8,2.78688598203007,3,0.536247883050237,-1,1.31716314598452
3,1,35,16,15,5.47215582302306,2,1.17986387101701,-1,1.87014334800187
3,1,36,18,19,2.70240454602754,2,0.814879020035733,-1,0.641343859955668
3,1,37,10,12,2.13581344299018,3,0.749216821044683,-1,1.07335881999461
3,1,38,21,20,5.52299774903804,2,0.732989522977732,1,0.736315835965797
3,1,39,8,9,1.51927070698002,3,0.868252362997737,1,0.307360421982594
3,1,40,13,17,6.83999565802515,2,1.79784276301507,1,0.758212414977606
3,1,41,29,28,2.51919858000474,2,1.15055671101436,1,2.43298538296949
3,1,42,11,11,1.78546948201256,2,2.75497713702498,-1,1.7572971630143
3,1,43,4,4,1.51889892795589,3,0.816287118999753,1,1.41805556602776
3,1,44,16,12,2.01844268298009,3,2.93470963096479,-1,1.55203046696261
3,1,45,4,4,0.918175922008231,3,0.946971830038819,1,0.565775285009295
3,1,46,4,5,1.21905556297861,3,2.14786856301362,1,0.998386975028552
3,1,47,17,20,6.54032486199867,2,1.13697883900022,1,0.237639304948971
3,1,48,7,9,2.90264911699342,3,3.79178677202435,1,0.614966545021161
3,1,49,14,16,1.93561611999758,3,0.679238343029283,1,2.71785039099632
3,1,50,8,14,5.45628304296406,3,1.06917431997135,1,7.27524785598507
3,1,51,29,34,4.45544180402067,1,1.66849053598708,1,1.14640416798647
3,1,52,16,16,3.40357151499484,2,0.538291683013085,1,0.0172813149983995
3,1,53,22,21,6.2064942450379,2,0.537251085974276,1,0.428987986990251
3,1,54,11,10,3.18651421298273,2,0.946280052012298,-1,0.765657689946238
3,1,55,28,20,5.20645035302732,2,0.678672016016208,1,0.158242369012441
3,1,56,21,18,3.30347920500208,2,1.1550136290025,-1,0.0179575480287895
3,1,57,4,5,1.38438414497068,3,0.693075073009823,1,0.715524163970258
3,1,58,4,4,1.0510888340068,3,0.805713661015034,1,1.28686269395985
3,1,59,26,22,2.50259549199836,3,1.43956970097497,1,0.61585661501158
3,1,60,29,28,2.35267876100261,2,1.18001470499439,-1,1.8218794830027
3,1,61,16,9,3.42150266095996,1,0.932638159021735,-1,1.4007066040067
3,1,62,11,13,3.18618862703443,2,0.675092519028112,-1,4.44987467100145
3,1,63,22,23,2.23528655798873,2,1.0189372029854,-1,1.1800194879761
3,1,64,11,12,2.65243380801985,2,0.601509854954202,1,0.363720338034909
3,1,65,16,16,4.6213933750405,2,1.25895315298112,-1,2.37866323499475
3,1,66,24,19,4.00365941994824,2,2.16564979002578,1,1.55202271800954
3,1,67,22,21,2.05312784801936,2,1.59536449803272,-1,1.21155841002474
3,1,68,7,9,1.5017181049916,3,1.15719224803615,-1,2.1433158289874
3,1,69,12,13,3.85458247200586,2,0.908981360029429,-1,0.042541419970803
3,1,70,29,36,3.08623420802178,3,5.71459671098273,-1,2.40975541301304
3,1,71,24,22,2.4694670829922,2,2.44533213501563,-1,1.17077740700915
3,1,72,14,17,7.24171787797241,3,1.06456926499959,1,1.67181101400638
3,1,73,16,16,4.42213902703952,2,1.22254980896832,-1,1.37524013099028
3,1,74,19,21,4.65513233002275,2,0.998615975026041,1,6.85707607597578
3,1,75,13,12,1.61859634896973,3,1.54243694100296,-1,2.00091109803179
3,1,76,18,17,5.82290888600983,2,4.44096561596962,1,4.07867755595362
3,1,77,14,9,1.16700315702474,2,0.812793478020467,-1,1.03735145000974
3,1,78,5,5,1.35193934297422,3,0.778573410992976,1,5.39743293297943
3,1,79,9,10,2.15274164796574,3,0.72637945698807,-1,1.5951761190081
3,1,80,19,18,4.2711968870135,3,1.55386297596851,-1,2.10009557101876
3,1,81,7,10,3.93774389702594,3,1.3803397329757,-1,0.942413848999422
3,1,82,6,6,1.75247368501732,3,0.760466303967405,-1,0.860761145013385
3,1,83,21,15,2.80292476498289,3,4.2624194730306,1,10.0253873100155
3,1,84,11,11,2.38606809498742,3,2.46097069699317,-1,3.10650211799657
3,1,85,7,8,2.52031315298518,3,1.32929710997269,-1,0.677365701005328
3,1,86,10,10,3.45366566500161,3,1.16295774496393,-1,0.46203679201426
3,1,87,11,13,1.73566777195083,3,0.773516912013292,1,2.86374107998563
3,1,88,28,19,1.78484300500713,3,1.59061102801934,-1,3.75206967099803
3,1,89,5,5,1.18405275500845,3,0.344718266976997,-1,0.972776789974887
3,1,90,4,4,0.8844787980197,3,0.512733788986225,-1,0.654096613987349
3,1,91,15,12,4.17119179002475,2,1.22089683800004,-1,1.18977525096852
3,1,92,4,4,0.816772865015082,3,0.595211672945879,1,0.854216734005604
3,1,93,8,10,2.63716199796181,3,0.793124295014422,-1,3.73247456300305
3,1,94,22,16,1.71835613099393,3,0.825559394957963,-1,2.60994876502082
3,1,95,11,16,3.22065909800585,3,0.654401626030449,-1,2.98331297002733
3,1,96,11,17,4.63853116496466,2,1.03754031297285,-1,2.33254714001669
3,1,97,29,28,3.15366872801678,1,0.686107653018553,-1,2.98839768196922
3,1,98,26,19,2.05294619302731,2,1.62134549400071,-1,1.38980357098626
3,1,99,20,999,4.9546189000248,2,16.9331186399795,-1,0.648340892978013
3,1,100,10,9,1.20097074098885,3,6.29852192103863,-1,0.604026365035679
3,1,101,5,6,1.28488610498607,3,0.899965803022496,1,0.0480554180103354
3,1,102,27,20,4.12080082303146,1,0.628240831021685,1,1.133896208019
3,1,103,7,8,1.81900089501869,3,0.767029881011695,-1,0.79291815101169
3,1,104,27,16,3.00329776498256,2,1.02552907197969,1,3.96900383103639
3,1,105,29,26,1.76837672200054,2,4.33298992901109,-1,3.62924711802043
3,1,106,7,8,2.85295550199226,3,0.932272762991488,-1,0.807837612985168
3,1,107,12,20,3.17013000301085,2,1.85498840099899,1,1.32571957999608
3,1,108,29,25,1.78493812901434,2,0.946727056056261,1,0.0769940359750763
3,1,109,29,34,5.52388532803161,2,3.57648185599828,1,0.360696690971963
3,1,110,12,12,4.5712881879881,1,1.12781409698073,-1,0.380102219991386
3,1,111,22,22,3.3205525240046,2,1.1757453730097,1,0.546826831006911
3,1,112,20,19,2.81919338996522,2,0.964566867041867,-1,0.704405702999793
3,1,113,18,20,3.62110051396303,2,0.63754563301336,1,0.293381417985074
3,1,114,7,7,2.00236391701037,3,0.309752300032414,-1,1.59483805997297
3,1,115,17,19,2.20264900004258,2,3.53140466997866,-1,1.45394158700947
3,1,116,14,16,3.28698333498323,2,0.861634195025545,-1,0.406599526002537
3,1,117,11,14,3.38693219301058,2,0.641282132011838,-1,0.0176825899980031
3,1,118,7,12,3.80394293699646,3,1.01450360304443,-1,0.102707584970631
3,1,119,28,20,3.05298349901568,2,0.781796588969883,-1,2.16823455702979
3,1,120,13,19,2.60262041003443,2,1.10207645705668,1,0.170036196010187
3,1,121,7,8,1.78506688500056,3,0.891119575011544,1,6.00009246001719
3,1,122,15,14,3.05318716500187,2,0.893471811024938,1,0.859683863003738
3,1,123,4,4,1.13455218699528,3,0.437092910986394,1,1.66986265097512
3,1,124,6,7,2.61967668001307,3,1.70758089004084,-1,0.0637590009719133
3,1,125,19,18,2.53599335701438,2,1.22579545195913,-1,0.970130582980346
3,1,126,21,23,1.60209500300698,2,1.70342780498322,-1,0.015861070016399
3,1,127,11,13,3.75452917802613,2,0.627566351031419,-1,0.0776033709989861
3,1,128,4,4,1.10200269403867,3,0.229757105989847,1,1.26233377796598
3,1,129,22,21,9.69517275504768,2,1.07924365799408,1,5.75738700799411
3,1,130,16,24,2.66897911002161,2,1.08836480200989,-1,0.017674601986073
3,1,131,29,29,3.52099950000411,1,3.46097702998668,1,1.13657126500038
3,1,132,10,11,1.43447752698557,3,0.549730420985725,-1,1.21854613895994
3,1,133,15,16,1.50194044498494,2,0.539887796971016,-1,0.440347864001524
3,1,134,22,23,14.8660121980356,1,1.07175436301623,-1,0.245245270023588
3,1,135,29,21,3.68786955199903,3,0.991075875004753,-1,0.618385426001623
3,1,136,29,19,3.4872536949697,3,2.18791497801431,-1,0.821209069050383
3,1,137,11,11,1.9348541580257,3,0.620134903991129,-1,0.597959286009427
3,1,138,29,18,2.92027118999977,2,0.808550083020236,-1,0.266980447981041
3,1,139,11,15,3.83766339998692,2,0.762497643008828,-1,1.34986659302376
3,1,140,29,23,2.36963741900399,2,0.650583671056665,-1,1.71465118898777
3,1,141,16,25,3.31943283404689,2,0.998201135953423,1,4.31264869601
3,1,142,29,25,1.81857633101754,2,3.63082472997485,1,0.316741457034368
3,1,143,11,9,1.15101302997209,3,0.662200121965725,-1,1.38123141799588
3,1,144,22,25,4.42133585398551,2,0.863148359989282,1,0.39060895901639
3,1,145,8,9,2.06807597499574,2,2.48707995197037,-1,0.266657857981045
3,1,146,8,12,2.28656929702265,3,0.908090123964939,-1,7.14662319101626
3,1,147,4,5,1.20139548898442,3,1.26837063004496,1,0.370115427998826
3,1,148,16,15,3.46972962998552,2,0.824675192998257,-1,0.747766989981756
3,1,149,19,22,3.67069715599064,2,2.05896136700176,1,0.600841614999808
3,1,150,20,21,2.38611379597569,2,0.75401991198305,-1,0.934874923026655
3,1,151,16,17,3.73666008998407,3,2.79006716504227,-1,1.03065644198796
3,1,152,10,12,2.4520569369779,2,2.05457958503393,-1,1.66070919303456
3,1,153,22,20,4.4045558529906,2,1.07740293099778,1,1.74860698997509
3,1,154,25,24,3.42001185799018,2,0.782754013955127,-1,0.0964463269920088
3,1,155,16,28,4.13784973404836,2,0.731353149982169,1,0.831891017965972
3,1,156,5,6,1.11848896299489,3,0.858473122993018,-1,2.86586306698155
3,1,157,11,14,2.5856559620006,3,0.534652144997381,-1,0.26648347498849
3,1,158,25,24,4.72144711797591,2,2.40651241800515,-1,0.623291423020419
3,1,159,15,23,3.68769554101164,2,0.96288895001635,1,1.56652699701954
3,1,160,12,13,2.51978696201695,3,1.86671286000637,-1,8.88145203504246
3,1,161,6,7,1.56776746799005,3,1.85098588000983,-1,1.83396136696683
3,1,162,10,13,4.15525430702837,2,0.432605534966569,-1,3.03200175799429
3,1,163,26,21,4.95518866198836,1,0.206329319975339,-1,0.760320000001229
3,1,164,9,13,3.41957328503486,2,0.786805245967116,-1,0.63707824901212
3,1,165,28,999,4.75574929104187,1,9.01663770095911,-1,1.96062113001244
3,1,166,8,7,1.7514235189883,3,2.23345255898312,-1,0.312171362980735
3,1,167,11,9,5.27329047198873,2,0.575452888966538,-1,0.02739525801735
3,1,168,15,15,1.86934385000495,3,1.06987392995507,-1,0.292583580012433
3,1,169,4,4,0.900827859994024,3,0.399596659990493,-1,1.44951630901778
3,1,170,11,15,3.13653326203348,3,0.878145485010464,-1,0.796738730976358
3,1,171,22,21,3.47081547300331,2,6.68075955001405,1,0.43325930001447
3,1,172,15,14,3.28716491197702,2,0.723548587004188,-1,0.456781688029878
3,1,173,24,21,1.43498269101838,3,0.425180346006528,-1,0.723041213001125
3,1,174,7,9,3.25405600201339,3,0.365288623026572,-1,0.51303909503622
3,1,175,11,11,1.95248975703726,3,0.483496885048226,1,0.0268856550101191
3,1,176,4,4,2.52087153500179,3,0.192805812985171,1,6.91729742701864
3,1,177,9,9,1.2007633530302,3,0.467886433005333,-1,0.434927171969321
3,1,178,7,8,1.53415317100007,3,0.943574164994061,-1,0.0177788650034927
3,1,179,27,24,2.97064202401089,2,1.13055639097001,-1,0.0165540050365962
3,1,180,7,8,2.87058914697263,3,1.04729502904229,-1,0.678429264982697
3,1,181,17,25,2.83543158997782,2,1.34835540596396,-1,0.0328281270340085
3,1,182,14,16,1.53555935597979,2,2.22853344300529,-1,2.06042022904148
3,1,183,4,4,2.31973033602117,3,0.210967970022466,-1,1.0454541160143
3,1,184,7,8,1.50127009500284,3,0.855655056016985,-1,0.846031173015945
3,1,185,22,23,2.18656922300579,3,1.44362262997311,-1,0.924132763990201
3,1,186,7,9,2.83650287700584,3,0.388387385988608,-1,0.688221101008821
3,1,187,27,16,8.90921072999481,2,1.24064201896545,-1,0.721264405990951
3,1,188,9,12,3.43812410597457,3,2.95892464596545,-1,0.598305915016681
3,1,189,16,18,1.58468855597312,3,0.470106831053272,-1,0.0788957769982517
3,1,190,16,19,2.66878827300388,2,1.51235911500407,1,1.05442407605005
3,1,191,4,4,1.11759765696479,3,0.17712724203011,-1,1.46764293097658
3,1,192,14,16,3.4204179829685,3,1.06913245498436,-1,0.276237612997647
3,1,193,20,25,1.43431615503505,3,2.37135805300204,-1,1.4296560260118
3,1,194,22,26,4.37159735301975,2,1.04513877397403,-1,0.174125837977044
3,1,195,26,25,4.15436060598586,2,0.636306885979138,-1,0.229540397995152
3,1,196,7,11,1.75191185699077,3,0.644922674051486,1,0.46265104203485
3,1,197,6,6,1.3516267130035,3,0.603140868013725,1,2.0527609300334
3,1,198,22,16,4.68857742002001,2,0.67524329101434,-1,0.674902897968423
3,1,199,16,21,2.16850363701815,3,0.488482128013857,-1,2.63119186402764
3,1,200,7,7,3.92189703200711,3,0.794812979002018,-1,0.0166256690281443
3,1,201,9,9,1.88569730904419,3,0.71222011995269,-1,0.66192752198549
3,1,202,11,13,2.93662868399406,3,0.61384404101409,-1,0.470700730977114
3,1,203,9,13,1.65135606500553,3,1.11048346699681,-1,0.972115116019268
3,1,204,20,22,1.95175046299119,3,0.704215255973395,-1,0.748751705978066
3,1,205,12,15,1.73591736500384,3,0.473268122994341,-1,0.752486206009053
3,1,206,25,28,2.70338166499278,2,1.16079204698326,1,0.812761897977907
3,1,207,11,12,1.43547730502905,3,0.507626278034877,-1,0.0581561109866016
3,1,208,14,24,3.92163114401046,2,1.4756301069865,1,1.99475066101877
3,1,209,21,32,1.31882549100555,2,1.09076945798006,-1,0.529229560983367
3,1,210,7,8,1.36788942798739,3,0.486978356027976,-1,0.262182856036816
3,1,211,22,16,1.81922347296495,2,0.734970277990215,-1,0.0176559569663368
3,1,212,27,35,2.33556492096977,2,0.813605219998863,1,0.734448870993219
3,1,213,8,9,1.71825463499408,2,0.563471033994574,-1,0.01668671797961
3,1,214,14,16,3.40394524502335,3,0.473772560013458,-1,0.0568982409895398
3,1,215,12,17,2.68568263697671,2,0.730804193008225,1,0.471981591021176
3,1,216,29,30,5.00625898502767,2,0.21861986501608,1,2.30928793596104
3,1,217,7,9,2.97020167997107,2,1.73009384202305,-1,0.517230511002708
3,1,218,9,12,1.66911265801173,2,1.02695661201142,-1,0.0176597269601189
3,1,219,23,26,2.45247679302702,2,0.721584315004293,1,0.0174304880201817
3,1,220,15,16,4.07101754500763,3,1.87860759301111,1,1.32398564298637
3,1,221,19,35,3.21983888698742,3,0.370768022025004,1,0.941454213985708
3,1,222,7,9,2.1524095099885,3,0.669803494994994,-1,0.516028338985052
3,1,223,7,8,2.77007004001644,3,0.339741266972851,1,0.888787309988402
3,1,224,9,11,2.58722826500889,3,0.757394637970719,1,0.736631056002807
3,1,225,6,6,1.23487115500029,3,0.677305938967038,-1,1.22866964997957
3,1,226,7,7,3.13701255997876,3,0.296803030010778,-1,0.295824439032003
3,1,227,7,10,2.3687830530107,2,1.02862070896663,-1,0.621250274998602
3,1,228,11,15,1.96814398799324,2,1.22541057202034,1,0.0168417629902251
3,1,229,13,16,1.3346786829643,2,1.41480241401587,-1,2.64804329094477
3,1,230,12,12,1.26808169501601,2,1.80279047100339,1,0.690532985026948
3,1,231,11,16,2.27017228800105,2,0.204139431007206,-1,0.017607859976124
3,1,232,7,7,2.80231645301683,2,0.736680743051693,-1,0.016351357975509
3,1,233,29,33,4.93944346799981,2,2.87744653201662,1,1.56160014303168
3,1,234,17,19,3.63765879999846,2,0.310876742994878,1,0.0175826270133257
3,1,235,23,21,4.37136324500898,1,1.44894862198271,-1,2.12828106002416
3,1,236,28,34,2.88593217998277,1,1.36239999195095,-1,2.78965047403472
3,1,237,16,21,6.05716242996277,2,1.13478283595759,-1,0.450929037993774
3,1,238,4,4,1.11871877999511,3,0.286836489976849,-1,2.22236289602006
3,1,239,16,15,4.25516286899801,3,0.936050047981553,-1,1.42883595795138
3,1,240,29,22,2.00258695997763,3,0.531041117967106,-1,0.192071733996272
3,2,241,27,23,3.7711626678938,2,2.9378333420027,-1,0.565644967951812
3,2,242,27,25,4.95590147702023,2,1.00791425805073,-1,1.37059157097246
3,2,243,8,11,1.50188156298827,3,0.489751364919357,-1,0.898119417019188
3,2,244,7,9,2.15296441700775,3,0.786749209975824,-1,1.0627289460972
3,2,245,7,8,4.53853281994816,3,1.00675809604581,-1,0.0169037070591003
3,2,246,11,13,2.73654726194218,3,1.55974468297791,-1,0.0168654549634084
3,2,247,4,4,1.00110550504178,3,0.499201128026471,1,0.545233980985358
3,2,248,20,19,4.73869085602928,2,0.708772719022818,-1,1.1220952909207
3,2,249,24,30,3.77076455007773,2,0.766436579986475,1,0.0168259780621156
3,2,250,21,26,1.76867471996229,2,1.35283091105521,1,0.0168566220672801
3,2,251,10,22,4.55508154095151,3,0.662115579005331,1,1.02994062996004
3,2,252,16,26,2.80309230496641,3,1.06507836899254,-1,0.0551043290179223
3,2,253,22,26,2.75306843302678,2,0.532214002916589,-1,0.345828582998365
3,2,254,19,28,5.0238465910079,2,0.310094419051893,1,0.157050175010227
3,2,255,6,9,3.63733595202211,3,1.16571612295229,-1,0.0257487570634112
3,2,256,20,21,7.77528522000648,2,0.607313759042881,1,0.0403990029590204
3,2,257,11,13,2.73643267096486,2,0.618404180975631,1,0.389135921024717
3,2,258,4,5,1.38518097996712,3,1.35808822000399,1,0.545569792971946
3,2,259,27,23,3.00345372490119,2,0.615884835016914,-1,0.369395680027083
3,2,260,22,30,4.48828754399437,3,2.19924936408643,1,3.09560573101044
3,2,261,8,9,3.08684497303329,3,1.23180655494798,-1,1.28884407691658
3,2,262,7,11,7.77532067999709,3,2.91518580703996,-1,2.18337439198513
3,2,263,15,24,3.45358039496932,3,0.940950724994764,1,1.16205301403534
3,2,264,7,8,2.302674637991,3,0.726521836942993,1,0.0677080799359828
3,2,265,21,27,5.63963638502173,2,0.921104039996862,-1,0.8062691220548
3,2,266,4,4,1.1012664049631,3,0.32161766604986,1,0.688368986011483
3,2,267,26,20,5.85648252291139,3,6.84634155000094,1,0.984817064949311
3,2,268,9,9,2.06912366207689,3,1.16188482998405,-1,0.549480337067507
3,2,269,11,16,1.4183262080187,3,1.02192781295162,-1,2.99957280396484
3,2,270,11,19,5.0557420020923,2,0.930950597976334,1,1.35112508002203
3,2,271,4,4,1.00126576900948,3,0.199285538052209,1,0.601704044966027
3,2,272,10,12,1.96884254703764,2,0.745814257999882,1,0.0169165469706059
3,2,273,27,32,2.25246688001789,3,1.6049184629228,1,1.40591406298336
3,2,274,26,22,2.36930419900455,3,1.2415754039539,-1,1.41832157108001
3,2,275,7,8,1.86883433908224,3,1.07582811592147,-1,0.0168957730056718
3,2,276,23,23,4.38823091995437,2,0.631585418013856,1,0.280717422021553
3,2,277,16,24,4.18798919895198,3,1.27579308010172,1,2.15453909197822
3,2,278,7,9,4.30486126802862,3,0.329061542986892,1,1.94406360003632
3,2,279,4,4,0.934403449995443,3,0.525095668039285,1,1.06778783909976
3,2,280,14,13,4.42162557202391,2,0.814237245940603,-1,5.16032476094551
3,2,281,15,16,2.6697389150504,2,0.652637882041745,-1,0.0288365359883755
3,2,282,18,16,14.8998644700041,2,1.30496372503694,1,1.04728767904453
3,2,283,17,12,5.87322616006713,2,0.8977242030669,1,1.6961329090409
3,2,284,11,12,1.91887049505021,3,0.887324098031968,-1,0.365841110935435
3,2,285,21,25,2.30263480299618,2,0.819533864036202,1,0.0169234280474484
3,2,286,22,30,5.17240932502318,1,0.267867930000648,1,0.0194663690635934
3,2,287,13,21,4.50508314999752,2,0.753214047988877,1,1.10161380004138
3,2,288,5,6,1.85202342504635,3,0.72006960795261,1,0.357186172972433
3,2,289,13,16,3.35378828307148,2,0.845225409953855,1,1.69396635494195
3,2,290,26,24,2.68638872099109,3,2.61306899203919,-1,5.10937046294566
3,2,291,16,23,4.07109666801989,2,0.755698638036847,1,0.76033517497126
3,2,292,29,29,4.48831665492617,2,1.97945159603842,1,0.64602196298074
3,2,293,28,30,9.41037967603188,2,5.47934600198641,-1,1.04832379007712
3,2,294,5,5,1.13456322695129,3,0.208699638023973,1,0.0191159290261567
3,2,295,4,4,1.36826917005237,3,0.172091217944399,1,0.0170582770369947
3,2,296,28,35,2.23582406807691,2,1.38616326195188,-1,0.572618088102899
3,2,297,18,20,4.58848878496792,3,3.1277956579579,1,0.731191371101886
3,2,298,22,27,6.3904901019996,2,0.828046665992588,-1,0.925665881019086
3,2,299,28,36,2.61966115701944,2,4.10307935008314,-1,0.913301039952785
3,2,300,5,5,1.41842436196748,3,0.359917585970834,1,0.892897295998409
3,2,301,4,4,1.08456937002484,3,1.44891989498865,1,0.192527320003137
3,2,302,27,40,2.51956168701872,2,1.30878673493862,1,0.0169797950657085
3,2,303,4,5,1.45172961603384,3,0.206771602039225,1,0.0169367219787091
3,2,304,7,8,2.11894940992352,3,0.951888348092325,1,0.0170681980671361
3,2,305,22,23,5.7564501099987,2,0.724732881993987,1,0.0170260899467394
3,2,306,13,21,3.87095759506337,2,1.03901045501698,1,0.28767902799882
3,2,307,4,5,1.00118602998555,3,0.246761217014864,1,0.0169729149201885
3,2,308,17,23,3.18700961302966,3,1.44387822994031,-1,0.0169865000061691
3,2,309,16,26,4.47169604199007,2,1.05086062499322,1,0.529427414992824
3,2,310,29,26,3.65393884503283,2,0.587758032022975,1,0.0168595700524747
3,2,311,29,23,6.80756216007285,2,0.647271375055425,1,0.0168769330484793
3,2,312,16,24,8.07542376709171,2,2.67553106497508,-1,0.248106665094383
3,2,313,26,28,3.4037835849449,2,3.11190368107054,-1,0.106381997000426
3,2,314,29,36,1.45167011104058,2,1.02694502007216,1,0.930508708930574
3,2,315,23,29,3.871034987038,2,0.96849595499225,1,0.506650666007772
3,2,316,22,34,2.56964757002424,2,0.757846941007301,-1,0.417114754905924
3,2,317,29,29,3.42052762303501,2,2.93200749706011,1,0.623154120985419
3,2,318,16,16,3.07006788800936,2,0.925825610058382,-1,0.0435468780342489
3,2,319,14,19,2.93657816003542,2,0.535414870013483,-1,0.0169472619891167
3,2,320,23,30,2.85317766305525,2,0.270272152032703,1,0.029162849066779
3,2,321,19,24,3.15352779603563,2,0.103227108018473,1,0.0169408279471099
3,2,322,22,26,5.53953605995048,2,0.254437923082151,1,0.455550899961963
3,2,323,16,18,3.28704929503147,2,0.99959254800342,1,0.193453910993412
3,2,324,16,20,5.18916566297412,3,0.317767169093713,-1,0.947656800039113
3,2,325,4,4,0.951138537959196,3,0.128199700033292,-1,0.670818779966794
3,2,326,29,30,5.13905346102547,1,2.48947039805353,1,0.862967142951675
3,2,327,19,20,2.70304001797922,2,0.632128855097108,1,0.0168978299479932
3,2,328,24,27,2.83656565495767,2,0.62247836694587,1,0.0168789480812848
3,2,329,25,28,7.99225817690603,2,0.906664674985223,-1,0.184401854989119
3,2,330,29,26,6.50728379504289,2,0.558133231010288,1,0.402480764081702
3,2,331,22,29,8.85988026706036,2,0.453857318032533,1,0.318739615962841
3,2,332,29,34,4.0378839969635,2,0.519729607971385,1,0.381819325964898
3,2,333,5,6,2.26927127793897,3,0.143792369985022,1,0.0168822230771184
3,2,334,17,24,3.65417682100087,2,0.574968404020183,-1,0.689793872996233
3,2,335,27,35,4.52172098099254,2,0.151725949952379,1,0.301940669072792
3,2,336,24,26,6.32374233496375,2,0.662172305048443,1,0.0169231999898329
3,2,337,22,22,9.11010155302938,2,0.267999137984589,-1,0.0167998829856515
3,2,338,16,23,3.47058688208926,3,0.568267859984189,-1,0.491901068948209
3,2,339,4,4,1.2181072679814,3,1.07424401689786,1,0.120750250061974
3,2,340,20,23,4.67195907793939,2,0.691267127986066,-1,0.194732278003357
3,2,341,6,7,3.77094078401569,3,0.132325317012146,-1,1.73658116499428
3,2,342,26,25,4.67194278503302,2,0.702404794981703,-1,0.444569592946209
3,2,343,18,23,3.20351016998757,2,0.644600300001912,1,0.0169637249782681
3,2,344,7,6,1.85202927002683,2,0.882740625995211,1,0.0662470549577847
3,2,345,4,4,1.16812984202988,3,0.119997184956446,1,1.8790327499155
3,2,346,21,20,2.70308693789411,2,1.56151953001972,1,1.14147001097444
3,2,347,10,13,2.45280352490954,3,1.24960731400643,-1,0.0168913099914789
3,2,348,7,7,2.05236514599528,3,0.822674890980124,-1,0.416369737009518
3,2,349,28,32,2.88661746797152,2,0.21612085797824,1,0.0169173970352858
3,2,350,24,35,6.64069719507825,2,0.271909923991188,1,0.192321712034754
3,2,351,23,29,6.70742323307786,2,0.630343097960576,1,0.0169367250055075
3,2,352,19,26,5.33932957006618,2,0.173652669065632,1,0.0169142900267616
3,2,353,20,30,3.18689363601152,2,0.0605795528972521,1,0.181719501037151
3,2,354,16,24,11.8464459331008,2,0.0897174660349265,-1,0.929683263064362
3,2,355,8,9,1.75200822693296,2,0.146329152048565,-1,0.0880407869117334
3,2,356,18,27,5.572905949899,2,0.574277678038925,1,0.0169085699599236
3,2,357,18,23,3.4038838200504,3,0.253935274085961,-1,0.0169525319943205
3,2,358,19,32,4.32147124502808,3,0.247875884990208,1,0.0169044779613614
3,2,359,11,11,1.8521528900601,3,0.163672694005072,-1,0.016914019943215
3,2,360,7,7,3.50397163501475,3,0.138854885008186,-1,0.551925219944678
3,2,361,12,13,2.76983387791552,3,1.30410829104949,-1,0.844786450034007
3,2,362,18,23,7.34152468503453,3,3.08163644303568,-1,1.16696395201143
3,2,363,22,26,4.33809831494,2,0.318500848021358,-1,0.0169207899598405
3,2,364,23,23,4.3382161851041,3,1.47168943693396,-1,0.447004960034974
3,2,365,17,21,3.02009047800675,2,0.310268840985373,-1,0.0290548290358856
3,2,366,23,32,4.30478555196896,2,2.11048955493607,1,0.0169389899820089
3,2,367,26,24,3.30374302493874,2,2.90718164201826,-1,0.407139696064405
3,2,368,5,5,2.13577202695888,3,0.186428191955201,1,0.0459645440569147
3,2,369,29,24,6.47390465706121,2,1.0500904499786,-1,0.0170110950712115
3,2,370,9,12,2.68640335195232,3,0.778706885990687,1,1.72458131599706
3,2,371,12,14,3.93777523189783,2,0.335248115006834,1,0.204645121004432
3,2,372,22,23,6.77420549502131,2,0.891476719058119,-1,0.625690568005666
3,2,373,24,19,3.82093608297873,2,0.864917553029954,-1,0.0169414100237191
3,2,374,14,25,4.40483280399349,2,0.764635667088442,1,0.375022087944672
3,2,375,8,9,2.80313276895322,2,0.263831397984177,-1,0.0168970619561151
3,2,376,17,24,6.49059093499091,3,0.243375029065646,-1,1.06881947303191
3,2,377,11,12,2.61960062594153,2,1.02500252996106,-1,0.0169462281046435
3,2,378,11,13,3.28710357297678,3,0.254522069939412,-1,0.0169508940307423
3,2,379,11,14,2.53614813496824,3,0.589171821018681,-1,0.0170667800121009
3,2,380,21,25,2.91999698802829,3,0.174932732013986,1,0.378425232018344
3,2,381,11,14,2.80310063494835,2,5.07035563304089,-1,1.96070128993597
3,2,382,28,24,2.53625129698776,2,4.68964052502997,-1,0.0677388609619811
3,2,383,16,19,4.00454411306418,2,1.20257196505554,1,0.276664240984246
3,2,384,4,4,0.951130838948302,3,0.972252009087242,1,1.75181739300024
3,2,385,7,7,2.41938804695383,3,0.402859759982675,1,1.18901950400323
3,2,386,19,24,3.73749371198937,3,0.848987811012194,-1,0.223548558074981
3,2,387,21,25,3.68750784196891,3,0.536728856037371,-1,0.0169428749941289
3,2,388,22,26,4.52176271006465,2,1.86417456390336,-1,0.176043879939243
3,2,389,6,7,2.70307073299773,3,0.192714581033215,-1,0.016876554931514
3,2,390,9,8,2.78650582698174,3,0.133552565006539,1,0.0169303469592705
3,2,391,18,16,5.73968106706161,3,0.926112452987581,1,1.27618527598679
3,2,392,11,12,3.2035647300072,3,0.699890589923598,-1,0.498699774965644
3,2,393,22,27,3.52055271202698,3,0.177527299965732,1,0.0169371620286256
3,2,394,5,6,4.20481609494891,3,0.485750962048769,1,0.0169095330638811
3,2,395,29,32,7.17472384497523,2,2.04264250595588,1,0.266457990044728
3,2,396,13,13,3.38718580501154,3,0.922232980025001,-1,0.959721438004635
3,2,397,15,16,3.18697575200349,3,0.655102264950983,-1,0.191810004063882
3,2,398,4,4,1.10123568004929,3,0.14148992090486,1,0.017057660035789
3,2,399,11,14,3.50385811005253,3,0.174040258978494,1,0.448864507954568
3,2,400,24,27,2.63595745398197,3,0.181638452922925,1,0.0169188770232722
3,2,401,29,28,5.58961595501751,3,0.542588859912939,-1,0.0169344050809741
3,2,402,24,25,2.81987798504997,2,0.853310263017192,-1,0.0168899220880121
3,2,403,4,4,2.2525779629359,3,0.175209818058647,-1,0.0170465419068933
3,2,404,16,18,3.08684447000269,3,0.612973812967539,-1,0.0169817600399256
3,2,405,10,9,1.43500740698073,3,0.385803160956129,-1,0.0169395949924365
3,2,406,29,26,3.50395088002551,3,0.173820707015693,1,0.0168982029426843
3,2,407,4,4,1.98561154701747,3,0.235439762007445,-1,0.01691862300504
3,2,408,12,14,4.18805695499759,3,0.624628862948157,-1,0.016923115006648
3,2,409,16,28,4.05451895901933,2,0.454610129934736,-1,0.0170229250798002
3,2,410,29,27,7.17469857994001,2,1.20585672499146,-1,0.304514226969332
3,2,411,24,27,2.25262712698895,2,0.72506472398527,1,0.242842228035443
3,2,412,19,19,2.26921597798355,3,1.28645083401352,-1,0.980052297003567
3,2,413,29,23,2.97004142799415,2,0.385962588014081,-1,0.796715237083845
3,2,414,23,27,3.57065109105315,2,0.604024817002937,1,0.0169182179961354
3,2,415,22,32,3.17040122998878,2,0.980484285973944,1,0.0325895169517025
3,2,416,16,20,3.90443939692341,2,0.354762479080819,1,0.423263861914165
3,2,417,15,17,2.41945395502262,2,0.530042784987018,1,0.504112432012334
3,2,418,29,34,3.15357294003479,2,0.584823717013933,1,0.0170131750637665
3,2,419,22,19,5.72308043495286,2,0.553231530939229,1,0.0628673708997667
3,2,420,10,12,3.28701155504677,2,0.138516815030016,-1,0.0169136599870399
3,2,421,4,5,3.03683890704997,2,0.682568383053876,-1,0.601085299975239
3,2,422,4,4,1.0678860450862,2,0.329768161056563,1,0.0168947950005531
3,2,423,23,16,2.50284761504736,2,0.0562041649827734,1,0.0168958079302683
3,2,424,22,23,6.29039702797309,1,0.583899804973044,-1,0.683372306986712
3,2,425,15,19,4.98892809194513,1,0.552914416999556,1,0.0168383510317653
3,2,426,4,5,2.46944767201785,3,0.451319552026689,1,0.276315385010093
3,2,427,5,5,1.45160182495601,3,0.3238414429361,1,0.313985830987804
3,2,428,29,27,3.48726644704584,3,1.14689061092213,1,0.742164614028297
3,2,429,23,28,7.24137709999923,2,0.375367639935575,1,0.73031248699408
3,2,430,29,25,1.9021357310703,2,0.418584336061031,-1,0.0171609700191766
3,2,431,25,26,3.7542484550504,2,0.188968740985729,1,0.0168735020561144
3,2,432,20,24,3.33709766692482,2,1.04603780608159,-1,0.287139244028367
3,2,433,8,9,4.10462432005443,3,0.283460029982962,-1,0.0169555069878697
3,2,434,13,25,4.08788313705008,2,0.167256595916115,1,0.0169260179391131
3,2,435,16,18,2.51952357997652,2,0.145864543970674,-1,0.016959237982519
3,2,436,22,32,4.2547859379556,3,1.60677034792025,1,0.151679410017096
3,2,437,18,225,7.35815580503549,1,2.25256547401659,1,1.01188504404854
3,2,438,16,18,3.93778293288779,2,0.502969207940623,1,0.016915223095566
3,2,439,22,20,5.27250414597802,2,0.704229180002585,-1,0.016981240012683
3,2,440,16,21,5.48944152600598,2,0.280914296978153,-1,0.0169275699881837
3,2,441,23,25,4.25479390507098,3,0.743339032051153,-1,0.429026908008382
3,2,442,13,11,4.88864620798267,3,0.180200543953106,-1,0.0170622930163518
3,2,443,7,9,1.86882498499472,3,0.159784778021276,1,0.016889474936761
3,2,444,4,4,1.00119101803284,3,0.395131070050411,1,0.0304685230366886
3,2,445,22,28,3.02002338110469,2,0.861857445910573,1,0.0168802529806271
3,2,446,16,21,4.27147602301557,2,0.222341315937229,1,0.0169041069457307
3,2,447,11,16,4.77204812702257,2,0.104936116025783,-1,0.0169690200127661
3,2,448,29,18,2.63632742303889,2,1.56776800996158,-1,0.514390261028893
3,2,449,4,5,1.28484983998351,3,0.801292220014147,1,0.0169238899834454
3,2,450,22,23,3.15357066004071,2,0.650087846908718,-1,0.0169485450023785
3,2,451,16,26,3.38711467490066,2,0.210477004991844,1,0.016951136989519
3,2,452,17,24,5.7897870100569,3,0.806187932030298,1,0.0168575450079516
3,2,453,25,35,3.02011444000527,3,0.149432877078652,1,0.0169843470212072
3,2,454,20,25,7.62522342999,2,1.35579933493864,1,1.29421692399774
3,2,455,11,13,1.85213013191242,3,2.03509414300788,-1,0.267092967987992
3,2,456,25,23,2.73647981300019,3,1.55253957700916,-1,0.0169106749817729
3,2,457,11,14,3.50389925099444,3,1.94111228000838,-1,0.0169261569390073
3,2,458,7,8,1.60189419996459,3,0.232331234961748,1,0.0169318950502202
3,2,459,16,16,2.15251077502035,2,0.214457366033457,-1,0.0170733650447801
3,2,460,22,25,4.73853450699244,2,0.382248835056089,-1,0.0410208950052038
3,2,461,21,32,1.70195096905809,2,1.03653463500086,1,0.229266152950004
3,2,462,13,14,3.90439157001674,2,0.246663017896935,-1,0.0327677429886535
3,2,463,27,19,2.70297519594897,3,0.204257269972004,-1,0.0169249778846279
3,2,464,29,35,2.11904678097926,2,0.222246541059576,1,0.0169323050649837
3,2,465,29,29,3.48720850807149,2,0.459596832981333,1,0.0595068560214713
3,2,466,18,20,2.55285136797465,2,0.326941780978814,-1,0.0169548719422892
