Subj_idx,Stimulus,Response,Confidence,RT_dec,stim1,stim2,incentive,accuracy,feeback_performance,feedback_lottery,block,trial_in_block
1001,1,-1,0.7,877,0.317,0.26,1,0,0,-1,1,1
1001,-1,-1,0.9,698,0.188,0.266,1,1,1,0,1,2
1001,-1,-1,0.7,821,0.414,0.532,3,1,0,1,1,3
1001,-1,-1,0.85,869,0.415,0.493,2,1,0,1,1,4
1001,-1,-1,0.85,793,0.083,0.113,1,1,1,0,1,5
1001,1,1,0.6,1419,0.451,0.354,3,1,0,1,1,6
1001,-1,-1,0.8,881,0.269,0.321,3,1,0,1,1,7
1001,-1,-1,0.6,4633,0.201,0.232,2,1,0,1,1,8
1001,1,1,0.6,1738,0.244,0.235,2,1,0,1,1,9
1001,-1,-1,0.65,937,0.402,0.48,3,1,0,-1,1,10
1001,1,1,0.65,1689,0.488,0.391,2,1,1,0,1,11
1001,1,1,0.6,2115,0.507,0.476,3,1,0,1,1,12
1001,1,1,0.6,1649,0.42,0.41,3,1,0,-1,1,13
1001,1,-1,0.65,996,0.095,0.038,3,0,0,1,1,14
1001,-1,-1,0.7,1206,0.464,0.543,1,1,1,0,1,15
1001,-1,-1,0.9,718,0.049,0.128,2,1,1,0,1,16
1001,-1,-1,0.9,875,0.032,0.084,1,1,0,1,1,17
1001,1,1,0.65,1310,0.406,0.376,3,1,1,0,1,18
1001,1,1,0.75,814,0.199,0.102,1,1,1,0,1,19
1001,1,1,0.6,1717,0.191,0.182,3,1,0,1,1,20
1001,-1,-1,0.65,1593,0.298,0.328,2,1,0,1,1,21
1001,-1,-1,0.8,922,0.317,0.348,3,1,1,0,1,22
1001,1,-1,0.65,1372,0.128,0.071,1,0,0,1,1,23
1001,1,1,0.7,1197,0.464,0.407,1,1,0,1,1,24
1001,-1,-1,0.65,1420,0.488,0.54,3,1,0,1,1,25
1001,-1,-1,0.7,1711,0.397,0.427,2,1,1,0,1,26
1001,-1,-1,0.75,975,0.361,0.478,1,1,1,0,1,27
1001,-1,-1,0.9,950,0.284,0.362,3,1,1,0,1,28
1001,1,1,0.65,2144,0.386,0.376,2,1,0,1,1,29
1001,-1,-1,0.8,854,0.331,0.41,2,1,1,0,1,30
1001,1,1,0.85,978,0.558,0.461,3,1,0,1,1,31
1001,-1,1,0.65,1257,0.353,0.405,2,0,0,-1,1,32
1001,-1,-1,0.95,930,0.179,0.21,1,1,1,0,1,33
1001,1,1,0.9,842,0.374,0.344,1,1,0,1,1,34
1001,1,1,0.8,1689,0.152,0.143,1,1,1,0,1,35
1001,-1,1,0.6,2463,0.366,0.418,1,0,0,1,1,36
1001,1,1,0.7,1085,0.206,0.11,1,1,0,1,1,37
1001,1,1,0.6,1592,0.186,0.155,2,1,0,-1,1,38
1001,-1,-1,0.7,1075,0.387,0.439,1,1,1,0,1,39
1001,-1,-1,0.85,890,0.283,0.401,2,1,1,0,1,40
1001,-1,-1,0.8,937,0.117,0.235,3,1,1,0,1,41
1001,-1,-1,0.95,811,0.035,0.113,1,1,0,-1,1,42
1001,1,1,0.6,1501,0.235,0.204,3,1,0,1,1,43
1001,1,1,0.6,1167,0.356,0.325,3,1,0,-1,1,44
1001,-1,-1,0.8,884,0.139,0.169,3,1,0,1,1,45
1001,1,-1,0.85,1135,0.133,0.102,1,0,-1,0,1,46
1001,-1,-1,0.85,930,0.253,0.371,1,1,1,0,1,47
1001,-1,1,0.65,1404,0.344,0.462,3,0,-1,0,1,48
1001,-1,1,0.65,1169,0.406,0.484,2,0,0,1,1,49
1001,-1,-1,0.85,1036,0.288,0.34,2,1,1,0,1,50
1001,1,1,0.75,1082,0.451,0.394,2,1,1,0,1,51
1001,1,-1,0.9,771,0.19,0.16,1,0,-1,0,1,52
1001,-1,-1,0.9,804,0.161,0.239,3,1,1,0,1,53
1001,1,1,0.7,1575,0.49,0.433,2,1,1,0,1,54
1001,1,-1,0.7,2389,0.465,0.456,1,0,0,1,1,55
1001,1,1,0.75,1907,0.126,0.117,1,1,0,1,1,56
1001,1,-1,0.65,1591,0.293,0.197,1,0,0,-1,1,57
1001,-1,-1,0.9,819,0.384,0.501,1,1,0,1,1,58
1001,-1,1,0.75,1284,0.408,0.46,2,0,0,1,1,59
1001,1,1,0.6,2509,0.473,0.416,3,1,0,-1,1,60
1001,1,-1,0.6,1376,0.331,0.234,3,0,0,1,1,61
1001,1,-1,0.7,1500,0.241,0.184,3,0,0,1,1,62
1001,-1,-1,0.9,808,0.079,0.109,1,1,0,1,1,63
1001,-1,-1,0.7,1091,0.199,0.278,3,1,0,1,1,64
1001,1,-1,0.7,1540,0.445,0.436,2,0,0,1,1,65
1001,1,-1,0.9,863,0.046,0.036,3,0,-1,0,1,66
1001,1,-1,0.9,897,0.15,0.12,1,0,-1,0,1,67
1001,1,-1,0.9,858,0.213,0.204,1,0,-1,0,1,68
1001,1,-1,0.65,1635,0.409,0.352,3,0,-1,0,1,69
1001,1,-1,0.6,1143,0.507,0.498,3,0,0,1,1,70
1001,1,1,0.6,1228,0.364,0.307,2,1,0,1,1,71
1001,1,1,0.8,1062,0.393,0.362,2,1,1,0,1,72
1001,-1,1,0.7,1344,0.375,0.405,1,0,0,1,1,73
1001,1,-1,0.9,925,0.063,0.054,2,0,-1,0,1,74
1001,1,1,0.9,996,0.131,0.034,2,1,1,0,1,75
1001,1,-1,0.7,1797,0.222,0.165,1,0,0,-1,1,76
1001,-1,-1,0.8,827,0.19,0.242,3,1,0,1,1,77
1001,-1,-1,0.8,971,0.416,0.447,3,1,0,1,1,78
1001,1,1,0.65,1805,0.285,0.254,2,1,1,0,1,79
1001,1,-1,0.7,2391,0.401,0.344,2,0,0,-1,1,80
1001,-1,-1,0.9,956,0.134,0.186,3,1,0,1,1,81
1001,-1,-1,0.9,927,0.484,0.602,2,1,1,0,1,82
1001,-1,-1,0.9,2161,0.472,0.502,2,1,0,1,1,83
1001,-1,-1,0.85,997,0.475,0.527,1,1,1,0,1,84
1001,-1,1,0.6,2163,0.385,0.503,2,0,-1,0,1,85
1001,-1,-1,0.95,804,0.027,0.145,1,1,1,0,1,86
1001,-1,-1,0.95,827,0.164,0.281,3,1,1,0,1,87
1001,-1,-1,0.95,876,0.421,0.539,2,1,1,0,1,88
1001,-1,1,0.75,1006,0.273,0.325,2,0,-1,0,1,89
1001,-1,-1,0.75,1368,0.191,0.269,1,1,1,0,1,90
1001,1,1,0.75,1136,0.353,0.256,1,1,1,0,1,91
1001,1,1,0.65,1112,0.333,0.237,2,1,0,-1,1,92
1001,1,1,0.85,1140,0.563,0.466,3,1,1,0,1,93
1001,-1,-1,0.65,1021,0.232,0.262,3,1,0,1,1,94
1001,1,1,0.7,1252,0.59,0.493,2,1,1,0,1,95
1001,1,-1,0.75,1343,0.279,0.248,2,0,0,1,1,96
1001,1,-1,0.7,1920,0.11,0.058,1,0,0,1,2,1
1001,1,1,0.65,1398,0.407,0.355,1,1,0,-1,2,2
1001,1,-1,0.55,2069,0.014,0.013,1,0,-1,0,2,3
1001,-1,-1,0.85,719,0.29,0.352,3,1,1,0,2,4
1001,1,-1,0.65,1141,0.644,0.478,3,0,-1,0,2,5
1001,-1,-1,0.9,770,0.108,0.17,2,1,0,1,2,6
1001,1,1,0.65,1526,0.187,0.107,2,1,0,1,2,7
1001,1,1,0.65,1279,0.4,0.399,2,1,0,1,2,8
1001,1,-1,0.7,860,0.473,0.472,2,0,-1,0,2,9
1001,1,1,0.85,856,0.526,0.36,2,1,1,0,2,10
1001,-1,-1,0.75,2174,0.416,0.443,1,1,0,1,2,11
1001,1,1,0.8,870,0.361,0.246,1,1,0,1,2,12
1001,1,1,0.95,1076,0.055,0.003,3,1,1,0,2,13
1001,1,1,0.95,887,0.578,0.463,3,1,1,0,2,14
1001,1,1,0.85,864,0.295,0.18,3,1,0,1,2,15
1001,-1,1,0.7,1314,0.107,0.22,1,0,-1,0,2,16
1001,-1,-1,0.85,940,0.427,0.454,1,1,1,0,2,17
1001,-1,1,0.65,2101,0.362,0.475,3,0,-1,0,2,18
1001,1,1,0.8,875,0.121,0.04,1,1,1,0,2,19
1001,-1,1,0.7,2784,0.371,0.398,1,0,0,1,2,20
1001,1,1,0.65,1467,0.576,0.496,3,1,1,0,2,21
1001,1,-1,0.7,921,0.512,0.46,3,0,-1,0,2,22
1001,-1,-1,0.85,771,0.32,0.434,1,1,0,1,2,23
1001,1,-1,0.95,910,0.137,0.085,1,0,-1,0,2,24
1001,1,1,0.95,1274,0.542,0.462,2,1,1,0,2,25
1001,-1,-1,0.9,762,0.384,0.445,3,1,1,0,2,26
1001,-1,-1,0.9,710,0.136,0.249,1,1,1,0,2,27
1001,1,1,0.8,1594,0.493,0.441,2,1,1,0,2,28
1001,-1,-1,0.95,816,0.02,0.047,3,1,1,0,2,29
1001,1,1,0.95,894,0.376,0.261,2,1,1,0,2,30
1001,-1,-1,0.95,1035,0.055,0.168,2,1,1,0,2,31
1001,1,1,0.9,1094,0.309,0.194,1,1,1,0,2,32
1001,1,1,0.95,885,0.121,0.006,2,1,1,0,2,33
1001,1,-1,0.65,1745,0.115,0.114,3,0,-1,0,2,34
1001,1,1,0.65,2244,0.539,0.372,2,1,0,1,2,35
1001,1,1,0.95,887,0.289,0.122,1,1,1,0,2,36
1001,-1,-1,0.9,909,0.051,0.078,3,1,0,1,2,37
1001,-1,-1,0.9,819,0.034,0.147,3,1,1,0,2,38
1001,1,1,0.65,1728,0.472,0.391,3,1,0,1,2,39
1001,1,-1,0.75,1998,0.182,0.13,2,0,0,1,2,40
1001,1,1,0.8,1202,0.355,0.189,2,1,1,0,2,41
1001,1,-1,0.8,959,0.465,0.464,1,0,0,1,2,42
1001,1,-1,0.6,1465,0.501,0.386,2,0,0,-1,2,43
1001,-1,-1,0.85,913,0.221,0.334,2,1,1,0,2,44
1001,1,-1,0.7,1074,0.295,0.18,1,0,0,1,2,45
1001,1,-1,0.7,2095,0.445,0.393,1,0,-1,0,2,46
1001,1,-1,0.9,780,0.2,0.199,1,0,-1,0,2,47
1001,-1,-1,0.65,1039,0.463,0.49,2,1,1,0,2,48
1001,-1,1,0.75,1015,0.406,0.433,2,0,-1,0,2,49
1001,-1,-1,0.7,823,0.27,0.332,3,1,0,-1,2,50
1001,1,-1,0.8,939,0.128,0.075,3,0,-1,0,2,51
1001,1,1,0.85,840,0.365,0.199,2,1,1,0,2,52
1001,1,1,0.75,1134,0.202,0.087,1,1,1,0,2,53
1001,1,1,0.7,2833,0.417,0.416,2,1,1,0,2,54
1001,1,1,0.95,1168,0.171,0.004,3,1,1,0,2,55
1001,1,1,0.95,1159,0.097,0.016,2,1,1,0,2,56
1001,-1,-1,0.7,1635,0.38,0.441,2,1,0,1,2,57
1001,1,1,0.85,1051,0.3,0.219,2,1,1,0,2,58
1001,1,1,0.8,1347,0.489,0.322,3,1,0,1,2,59
1001,1,1,0.85,921,0.301,0.134,3,1,0,1,2,60
1001,1,-1,0.85,1200,0.566,0.486,3,0,0,1,2,61
1001,-1,-1,0.7,1800,0.24,0.353,2,1,0,1,2,62
1001,-1,-1,0.95,1115,0.066,0.179,2,1,0,1,2,63
1001,1,-1,0.85,1498,0.553,0.472,1,0,0,1,2,64
1001,1,1,0.9,886,0.298,0.245,2,1,1,0,2,65
1001,1,-1,0.65,1530,0.402,0.321,3,0,-1,0,2,66
1001,-1,-1,0.9,888,0.027,0.088,2,1,0,1,2,67
1001,1,1,0.8,1097,0.328,0.214,3,1,1,0,2,68
1001,-1,-1,0.9,900,0.327,0.355,1,1,1,0,2,69
1001,1,-1,0.7,1386,0.236,0.235,3,0,0,1,2,70
1001,-1,-1,0.8,977,0.396,0.457,1,1,0,1,2,71
1001,-1,-1,0.95,869,0.084,0.197,3,1,1,0,2,72
1001,1,-1,0.8,2040,0.584,0.417,1,0,-1,0,2,73
1001,1,-1,0.9,845,0.225,0.224,1,0,0,1,2,74
1001,-1,1,0.7,1585,0.255,0.368,1,0,0,1,2,75
1001,1,-1,0.85,931,0.07,0.069,2,0,-1,0,2,76
1001,-1,-1,0.7,1307,0.404,0.466,1,1,1,0,2,77
1001,1,-1,0.7,897,0.38,0.328,2,0,-1,0,2,78
1001,-1,-1,0.9,754,0.084,0.146,1,1,1,0,2,79
1001,1,1,0.7,1537,0.581,0.414,1,1,1,0,2,80
1001,1,-1,0.8,939,0.354,0.353,3,0,-1,0,2,81
1001,1,1,0.75,1386,0.358,0.191,1,1,1,0,2,82
1001,-1,1,0.7,956,0.434,0.495,1,0,0,1,2,83
1001,-1,-1,0.65,1582,0.27,0.297,3,1,0,1,2,84
1001,1,-1,0.65,1040,0.021,0.02,3,0,0,1,2,85
1001,1,-1,0.65,1182,0.393,0.279,2,0,0,1,2,86
1001,1,-1,0.65,1385,0.523,0.442,1,0,0,1,2,87
1001,-1,-1,0.7,1169,0.497,0.558,2,1,0,1,2,88
1001,-1,-1,0.9,1305,0.412,0.525,3,1,1,0,2,89
1001,-1,-1,0.9,926,0.044,0.071,2,1,0,1,2,90
1001,1,-1,0.65,2009,0.519,0.467,3,0,0,1,2,91
1001,1,1,0.7,1183,0.542,0.461,1,1,1,0,2,92
1001,1,1,0.8,861,0.168,0.053,3,1,1,0,2,93
1001,-1,-1,0.85,874,0.302,0.329,2,1,0,1,2,94
1001,-1,-1,0.85,1399,0.499,0.526,3,1,0,1,2,95
1001,-1,-1,0.9,844,0.104,0.165,3,1,1,0,2,96
1002,1,-1,0.85,501,0.195,0.138,1,0,-1,0,1,1
1002,-1,1,0.5,3885,0.015,0.017,3,0,0,1,1,2
1002,1,-1,0.8,645,0.515,0.426,3,0,-1,0,1,3
1002,1,1,0.5,861,0.24,0.123,3,1,0,1,1,4
1002,1,-1,0.7,1161,0.155,0.084,3,0,0,-1,1,5
1002,1,1,0.6,1375,0.335,0.278,2,1,0,1,1,6
1002,-1,-1,0.95,550,0.143,0.172,1,1,1,0,1,7
1002,1,-1,0.75,584,0.329,0.314,2,0,-1,0,1,8
1002,1,-1,0.85,744,0.477,0.361,1,0,-1,0,1,9
1002,-1,-1,0.95,532,0.45,0.452,1,1,1,0,1,10
1002,1,1,0.85,2349,0.408,0.352,1,1,0,1,1,11
1002,1,1,0.5,3596,0.018,0.002,2,1,0,1,1,12
1002,1,1,0.7,902,0.135,0.105,3,1,1,0,1,13
1002,-1,-1,0.95,477,0.494,0.524,1,1,1,0,1,14
1002,1,1,0.95,485,0.136,0.02,2,1,1,0,1,15
1002,1,1,0.95,584,0.327,0.238,1,1,1,0,1,16
1002,1,-1,0.65,856,0.534,0.445,3,0,0,1,1,17
1002,1,1,0.9,399,0.174,0.084,2,1,1,0,1,18
1002,1,1,0.85,1016,0.417,0.301,1,1,0,-1,1,19
1002,1,-1,0.95,732,0.512,0.482,1,0,-1,0,1,20
1002,1,1,0.95,1673,0.425,0.354,1,1,1,0,1,21
1002,-1,-1,0.75,630,0.08,0.082,3,1,0,1,1,22
1002,-1,-1,0.7,1586,0.42,0.449,3,1,0,-1,1,23
1002,1,1,0.85,764,0.251,0.18,2,1,1,0,1,24
1002,1,1,0.95,515,0.111,0.054,3,1,1,0,1,25
1002,-1,1,0.9,1485,0.027,0.056,2,0,-1,0,1,26
1002,-1,-1,0.95,701,0.315,0.317,1,1,1,0,1,27
1002,1,1,0.9,854,0.312,0.223,2,1,1,0,1,28
1002,1,-1,0.9,788,0.116,0.086,3,0,0,1,1,29
1002,1,-1,0.9,580,0.294,0.237,3,0,0,-1,1,30
1002,1,1,0.6,2277,0.43,0.415,3,1,0,1,1,31
1002,1,1,0.95,532,0.128,0.057,3,1,1,0,1,32
1002,-1,-1,0.95,397,0.286,0.315,2,1,0,1,1,33
1002,1,1,0.9,1172,0.513,0.423,2,1,1,0,1,34
1002,-1,-1,0.95,369,0.115,0.144,3,1,1,0,1,35
1002,1,1,0.55,1458,0.227,0.156,3,1,0,1,1,36
1002,1,1,0.95,647,0.189,0.073,3,1,1,0,1,37
1002,1,-1,0.95,470,0.295,0.28,3,0,-1,0,1,38
1002,-1,-1,0.95,642,0.475,0.477,2,1,1,0,1,39
1002,-1,-1,0.95,408,0.344,0.373,1,1,1,0,1,40
1002,1,1,1,407,0.139,0.023,2,1,0,-1,1,41
1002,1,-1,0.95,1066,0.225,0.209,1,0,-1,0,1,42
1002,1,1,0.6,920,0.333,0.276,3,1,0,1,1,43
1002,1,-1,0.5,476,0.387,0.357,3,0,0,1,1,44
1002,1,-1,0.9,1037,0.422,0.391,2,0,-1,0,1,45
1002,-1,-1,1,1904,0.018,0.02,1,1,0,-1,1,46
1002,1,-1,0.95,734,0.305,0.29,2,0,-1,0,1,47
1002,1,1,1,595,0.555,0.499,1,1,1,0,1,48
1002,1,1,0.95,737,0.519,0.463,2,1,1,0,1,49
1002,-1,-1,1,435,0.437,0.466,1,1,1,0,1,50
1002,-1,1,1,552,0.437,0.44,1,0,-1,0,1,51
1002,1,-1,0.9,740,0.075,0.045,2,0,0,1,1,52
1002,1,1,0.95,651,0.527,0.437,1,1,1,0,1,53
1002,-1,-1,0.65,1410,0.015,0.017,2,1,0,-1,1,54
1002,1,1,0.9,562,0.217,0.16,2,1,1,0,1,55
1002,1,-1,0.95,455,0.442,0.427,1,0,-1,0,1,56
1002,1,1,0.9,589,0.367,0.337,1,1,1,0,1,57
1002,1,1,0.5,485,0.288,0.172,3,1,0,-1,1,58
1002,1,-1,0.95,1192,0.202,0.172,1,0,-1,0,1,59
1002,1,1,0.95,521,0.411,0.295,1,1,1,0,1,60
1002,1,1,1,431,0.6,0.484,2,1,1,0,1,61
1002,1,-1,0.9,1010,0.348,0.259,1,0,0,1,1,62
1002,-1,-1,0.95,524,0.123,0.125,2,1,1,0,1,63
1002,1,-1,0.95,410,0.314,0.298,2,0,-1,0,1,64
1002,1,1,0.95,472,0.107,0.017,3,1,1,0,1,65
1002,1,1,1,448,0.102,0.012,1,1,0,-1,1,66
1002,1,1,0.85,1444,0.509,0.438,1,1,1,0,1,67
1002,1,1,0.9,670,0.255,0.166,2,1,1,0,1,68
1002,1,1,0.75,1012,0.411,0.295,3,1,1,0,1,69
1002,1,-1,0.75,1108,0.358,0.287,2,0,-1,0,1,70
1002,-1,-1,1,486,0.009,0.038,2,1,1,0,1,71
1002,1,-1,0.95,571,0.396,0.325,2,0,-1,0,1,72
1002,1,-1,1,432,0.389,0.359,2,0,-1,0,1,73
1002,1,1,1,478,0.152,0.136,1,1,1,0,1,74
1002,1,1,0.6,705,0.063,0.048,3,1,0,1,1,75
1002,1,1,1,806,0.174,0.102,1,1,1,0,1,76
1002,-1,-1,0.7,504,0.35,0.379,3,1,0,1,1,77
1002,-1,-1,0.5,1146,0.011,0.013,2,1,0,-1,1,78
1002,-1,-1,0.75,594,0.043,0.046,3,1,0,1,1,79
1002,1,-1,0.95,514,0.49,0.418,2,0,-1,0,1,80
1002,1,1,0.95,520,0.065,0.05,1,1,1,0,1,81
1002,1,1,0.9,663,0.259,0.187,1,1,1,0,1,82
1002,1,-1,0.95,513,0.199,0.169,1,0,-1,0,1,83
1002,-1,-1,0.6,462,0.287,0.316,2,1,0,1,1,84
1002,1,1,0.95,537,0.298,0.182,1,1,1,0,1,85
1002,-1,-1,0.8,441,0.321,0.35,3,1,1,0,1,86
1002,1,-1,0.9,532,0.473,0.457,3,0,-1,0,1,87
1002,-1,-1,0.6,529,0.443,0.445,3,1,0,1,1,88
1002,1,1,0.9,1150,0.29,0.26,2,1,1,0,1,89
1002,1,1,0.75,442,0.156,0.099,3,1,0,-1,1,90
1002,1,1,0.65,844,0.216,0.185,3,1,0,1,1,91
1002,1,1,0.65,562,0.407,0.318,3,1,0,1,1,92
1002,1,1,0.95,1493,0.266,0.209,1,1,1,0,1,93
1002,1,1,0.75,476,0.151,0.079,3,1,0,1,1,94
1002,1,1,1,376,0.058,0.001,2,1,1,0,1,95
1002,1,-1,0.8,1452,0.313,0.197,2,0,0,1,1,96
1002,-1,-1,1,459,0.475,0.483,2,1,1,0,2,1
1002,-1,-1,1,408,0.393,0.43,2,1,1,0,2,2
1002,1,-1,1,408,0.37,0.343,2,0,-1,0,2,3
1002,1,1,0.9,508,0.291,0.2,2,1,0,1,2,4
1002,-1,-1,0.9,528,0.296,0.304,2,1,0,1,2,5
1002,-1,-1,0.75,519,0.456,0.493,3,1,1,0,2,6
1002,-1,-1,0.95,400,0.282,0.319,1,1,1,0,2,7
1002,-1,-1,0.95,651,0.455,0.492,2,1,1,0,2,8
1002,1,-1,0.75,385,0.499,0.488,3,0,0,-1,2,9
1002,1,1,0.95,564,0.076,0.004,3,1,0,1,2,10
1002,1,1,0.95,598,0.246,0.174,1,1,0,1,2,11
1002,1,1,0.95,514,0.465,0.409,3,1,1,0,2,12
1002,-1,1,0.95,645,0.092,0.1,2,0,-1,0,2,13
1002,1,-1,1,819,0.246,0.219,1,0,-1,0,2,14
1002,1,1,0.95,520,0.513,0.441,2,1,1,0,2,15
1002,1,1,1,352,0.345,0.225,1,1,1,0,2,16
1002,1,1,0.95,495,0.113,0.042,1,1,0,1,2,17
1002,1,-1,1,350,0.286,0.259,2,0,0,-1,2,18
1002,-1,1,0.75,976,0.271,0.278,2,0,0,1,2,19
1002,1,1,0.95,524,0.271,0.152,2,1,1,0,2,20
1002,1,1,0.85,521,0.603,0.483,3,1,1,0,2,21
1002,1,1,0.95,630,0.269,0.15,1,1,1,0,2,22
1002,-1,-1,1,363,0.459,0.467,1,1,1,0,2,23
1002,1,-1,0.95,407,0.518,0.427,2,0,-1,0,2,24
1002,1,-1,1,353,0.359,0.332,1,0,-1,0,2,25
1002,1,-1,0.55,738,0.479,0.468,3,0,0,1,2,26
1002,-1,1,0.6,713,0.351,0.359,3,0,0,1,2,27
1002,1,1,0.95,485,0.409,0.382,2,1,1,0,2,28
1002,1,1,0.9,486,0.257,0.202,2,1,1,0,2,29
1002,1,1,0.8,1155,0.13,0.119,2,1,0,-1,2,30
1002,-1,-1,0.95,389,0.281,0.289,3,1,1,0,2,31
1002,1,1,0.9,465,0.194,0.122,3,1,1,0,2,32
1002,1,1,1,337,0.213,0.093,1,1,1,0,2,33
1002,1,1,0.9,1595,0.374,0.347,2,1,1,0,2,34
1002,1,1,1,559,0.13,0.074,1,1,1,0,2,35
1002,-1,-1,1,294,0.1,0.137,2,1,1,0,2,36
1002,1,1,0.9,737,0.15,0.094,2,1,1,0,2,37
1002,1,1,1,419,0.116,0.026,2,1,1,0,2,38
1002,1,1,1,305,0.103,0.012,1,1,1,0,2,39
1002,1,-1,1,642,0.571,0.451,2,0,-1,0,2,40
1002,1,1,1,480,0.422,0.395,1,1,1,0,2,41
1002,1,1,0.85,751,0.545,0.473,2,1,1,0,2,42
1002,1,1,0.6,600,0.445,0.389,3,1,0,1,2,43
1002,1,1,0.85,814,0.459,0.448,1,1,1,0,2,44
1002,1,1,0.9,543,0.212,0.201,1,1,1,0,2,45
1002,1,-1,0.9,960,0.335,0.279,2,0,0,1,2,46
1002,1,1,0.9,308,0.588,0.497,3,1,0,1,2,47
1002,1,1,0.95,348,0.386,0.315,3,1,1,0,2,48
1002,1,1,0.9,339,0.452,0.332,3,1,1,0,2,49
1002,1,1,0.95,346,0.303,0.247,1,1,1,0,2,50
1002,-1,1,0.7,697,0.105,0.113,3,0,-1,0,2,51
1002,1,-1,0.6,478,0.148,0.137,3,0,0,1,2,52
1002,-1,-1,0.95,429,0.393,0.43,2,1,1,0,2,53
1002,1,1,0.85,348,0.309,0.253,3,1,0,1,2,54
1002,1,1,0.9,752,0.578,0.487,3,1,1,0,2,55
1002,-1,1,0.7,509,0.396,0.404,3,0,-1,0,2,56
1002,1,1,0.6,645,0.422,0.395,3,1,1,0,2,57
1002,1,1,0.95,549,0.417,0.346,2,1,1,0,2,58
1002,1,-1,0.9,1225,0.274,0.263,2,0,0,1,2,59
1002,-1,-1,0.95,351,0.297,0.333,3,1,1,0,2,60
1002,1,1,0.95,405,0.251,0.179,1,1,1,0,2,61
1002,1,-1,0.85,487,0.159,0.132,3,0,-1,0,2,62
1002,1,1,0.9,413,0.237,0.225,2,1,1,0,2,63
1002,1,1,0.9,323,0.295,0.175,2,1,0,1,2,64
1002,1,1,0.9,369,0.105,0.049,2,1,1,0,2,65
1002,1,-1,1,733,0.435,0.379,1,0,-1,0,2,66
1002,1,1,1,401,0.431,0.34,1,1,1,0,2,67
1002,1,1,0.95,378,0.263,0.172,3,1,1,0,2,68
1002,1,1,1,314,0.196,0.105,1,1,1,0,2,69
1002,1,1,0.7,745,0.156,0.129,3,1,1,0,2,70
1002,-1,-1,0.9,443,0.041,0.049,1,1,1,0,2,71
1002,1,-1,0.8,234,0.336,0.308,3,0,-1,0,2,72
1002,-1,-1,0.75,390,0.282,0.319,3,1,1,0,2,73
1002,1,-1,0.95,578,0.459,0.432,1,0,-1,0,2,74
1002,1,1,1,547,0.599,0.479,1,1,1,0,2,75
1002,1,-1,0.8,514,0.103,0.092,1,0,-1,0,2,76
1002,1,1,0.9,492,0.097,0.041,3,1,1,0,2,77
1002,-1,-1,1,314,0.051,0.088,1,1,1,0,2,78
1002,1,1,0.8,1139,0.479,0.388,1,1,0,-1,2,79
1002,-1,-1,1,642,0.468,0.476,1,1,1,0,2,80
1002,1,1,0.8,561,0.225,0.134,3,1,0,1,2,81
1002,1,1,0.95,654,0.436,0.38,1,1,1,0,2,82
1002,1,1,0.9,298,0.403,0.284,3,1,1,0,2,83
1002,1,1,0.95,411,0.107,0.036,2,1,1,0,2,84
1002,1,1,0.75,305,0.198,0.107,2,1,0,1,2,85
1002,1,1,0.9,441,0.237,0.117,2,1,1,0,2,86
1002,1,1,0.9,375,0.495,0.424,3,1,0,1,2,87
1002,1,1,0.9,344,0.265,0.146,3,1,1,0,2,88
1002,1,1,0.9,305,0.475,0.463,2,1,1,0,2,89
1002,-1,-1,0.9,504,0.331,0.338,1,1,1,0,2,90
1002,-1,-1,0.9,394,0.329,0.366,3,1,0,1,2,91
1002,1,-1,0.7,777,0.127,0.116,3,0,-1,0,2,92
1002,1,-1,0.95,596,0.493,0.481,1,0,-1,0,2,93
1002,-1,-1,1,453,0.036,0.073,1,1,1,0,2,94
1002,1,1,0.9,482,0.175,0.104,1,1,1,0,2,95
1002,-1,-1,1,430,0.343,0.38,1,1,1,0,2,96
1003,1,-1,0.5,1778,0.559,0.417,3,0,0,1,1,1
1003,-1,-1,0.5,1323,0.056,0.081,3,1,0,1,1,2
1003,1,1,0.9,1065,0.109,0.048,1,1,1,0,1,3
1003,1,-1,0.9,401,0.387,0.36,1,0,-1,0,1,4
1003,1,1,0.5,1027,0.524,0.267,3,1,0,1,1,5
1003,1,1,0.85,765,0.507,0.303,1,1,1,0,1,6
1003,1,1,0.85,837,0.094,0.032,3,1,0,1,1,7
1003,1,1,1,977,0.104,0.014,2,1,1,0,1,8
1003,1,1,0.5,1144,0.293,0.123,3,1,0,-1,1,9
1003,1,1,0.9,1279,0.589,0.333,1,1,1,0,1,10
1003,1,1,0.9,745,0.691,0.434,1,1,1,0,1,11
1003,1,1,0.5,629,0.501,0.411,3,1,0,1,1,12
1003,1,1,0.9,786,0.38,0.21,1,1,1,0,1,13
1003,-1,1,0.6,800,0.256,0.282,3,0,0,-1,1,14
1003,1,-1,0.7,1346,0.32,0.294,3,0,0,1,1,15
1003,1,-1,0.55,1307,0.454,0.284,3,0,0,1,1,16
1003,-1,-1,1,828,0.039,0.065,3,1,1,0,1,17
1003,1,-1,0.95,541,0.637,0.467,1,0,-1,0,1,18
1003,1,1,0.6,2287,0.603,0.433,1,1,0,1,1,19
1003,1,1,0.95,748,0.176,0.035,1,1,1,0,1,20
1003,1,-1,0.5,1019,0.454,0.284,3,0,0,1,1,21
1003,1,-1,0.9,691,0.51,0.484,1,0,-1,0,1,22
1003,1,-1,0.9,527,0.593,0.423,1,0,-1,0,1,23
1003,-1,-1,0.9,468,0.26,0.286,1,1,1,0,1,24
1003,1,1,0.6,954,0.573,0.431,2,1,0,1,1,25
1003,-1,-1,0.9,908,0.253,0.279,2,1,0,1,1,26
1003,1,-1,0.9,518,0.388,0.327,2,0,0,1,1,27
1003,1,-1,0.6,1500,0.437,0.18,1,0,0,1,1,28
1003,1,1,0.9,531,0.333,0.129,3,1,1,0,1,29
1003,1,-1,0.6,715,0.516,0.311,2,0,0,1,1,30
1003,1,1,0.95,461,0.177,0.035,2,1,1,0,1,31
1003,1,1,0.65,617,0.232,0.091,1,1,0,1,1,32
1003,1,1,0.6,779,0.18,0.119,2,1,0,1,1,33
1003,1,-1,1,410,0.218,0.192,2,0,-1,0,1,34
1003,1,-1,0.6,463,0.446,0.276,3,0,-1,0,1,35
1003,1,-1,0.8,509,0.699,0.443,2,0,-1,0,1,36
1003,1,-1,0.9,438,0.23,0.203,1,0,-1,0,1,37
1003,1,-1,0.9,393,0.45,0.423,1,0,-1,0,1,38
1003,1,-1,0.9,384,0.57,0.48,3,0,-1,0,1,39
1003,1,1,0.6,593,0.448,0.191,2,1,1,0,1,40
1003,1,-1,0.85,397,0.707,0.45,3,0,0,1,1,41
1003,1,-1,0.9,358,0.583,0.494,2,0,-1,0,1,42
1003,1,1,0.9,471,0.35,0.145,1,1,1,0,1,43
1003,1,-1,0.9,330,0.426,0.365,3,0,-1,0,1,44
1003,1,1,0.5,677,0.323,0.234,3,1,0,1,1,45
1003,1,-1,0.9,411,0.368,0.342,3,0,-1,0,1,46
1003,1,-1,0.6,1151,0.742,0.486,2,0,0,1,1,47
1003,1,-1,1,445,0.229,0.168,1,0,-1,0,1,48
1003,1,1,0.9,344,0.28,0.023,3,1,1,0,1,49
1003,1,-1,0.5,673,0.213,0.187,3,0,0,-1,1,50
1003,1,1,0.9,404,0.193,0.023,2,1,1,0,1,51
1003,1,-1,0.9,305,0.475,0.449,2,0,-1,0,1,52
1003,1,-1,0.9,407,0.457,0.287,2,0,-1,0,1,53
1003,1,1,1,955,0.273,0.016,2,1,1,0,1,54
1003,1,-1,0.85,1172,0.324,0.12,2,0,-1,0,1,55
1003,1,-1,0.75,595,0.246,0.185,2,0,0,1,1,56
1003,1,-1,0.9,409,0.457,0.396,3,0,-1,0,1,57
1003,1,1,0.9,363,0.269,0.064,1,1,1,0,1,58
1003,1,1,0.9,825,0.265,0.009,3,1,1,0,1,59
1003,-1,-1,1,348,0.122,0.148,1,1,1,0,1,60
1003,1,-1,0.9,493,0.199,0.138,2,0,-1,0,1,61
1003,1,-1,0.65,1039,0.188,0.098,2,0,0,-1,1,62
1003,1,-1,0.6,660,0.575,0.405,2,0,-1,0,1,63
1003,1,-1,0.75,1011,0.071,0.044,2,0,0,1,1,64
1003,1,-1,0.95,400,0.543,0.453,1,0,-1,0,1,65
1003,1,1,0.5,1244,0.293,0.089,3,1,0,-1,1,66
1003,-1,-1,1,358,0.225,0.251,3,1,1,0,1,67
1003,-1,-1,0.9,374,0.241,0.267,1,1,0,-1,1,68
1003,1,1,0.9,1012,0.041,0.015,3,1,1,0,1,69
1003,1,-1,0.5,821,0.535,0.33,2,0,0,1,1,70
1003,1,-1,0.9,439,0.314,0.288,2,0,-1,0,1,71
1003,1,-1,0.9,391,0.141,0.08,3,0,-1,0,1,72
1003,1,1,0.75,902,0.304,0.1,2,1,0,1,1,73
1003,1,-1,0.85,448,0.278,0.136,3,0,-1,0,1,74
1003,1,-1,0.9,403,0.361,0.22,3,0,-1,0,1,75
1003,1,1,0.65,1177,0.176,0.035,2,1,0,1,1,76
1003,1,-1,0.5,1914,0.359,0.269,1,0,0,-1,1,77
1003,1,-1,0.6,392,0.344,0.254,1,0,0,1,1,78
1003,1,-1,0.65,472,0.505,0.301,1,0,0,1,1,79
1003,1,-1,0.8,423,0.511,0.421,1,0,-1,0,1,80
1003,1,1,0.9,596,0.277,0.073,3,1,1,0,1,81
1003,-1,-1,0.95,340,0.182,0.208,1,1,0,1,1,82
1003,1,-1,0.9,494,0.567,0.425,1,0,-1,0,1,83
1003,1,-1,0.9,465,0.594,0.453,1,0,-1,0,1,84
1003,1,1,0.9,1280,0.063,0.002,1,1,1,0,1,85
1003,1,-1,0.5,1236,0.316,0.174,3,0,0,1,1,86
1003,1,1,0.8,1009,0.12,0.031,2,1,1,0,1,87
1003,1,1,0.9,525,0.619,0.363,1,1,1,0,1,88
1003,1,-1,0.9,432,0.549,0.459,3,0,-1,0,1,89
1003,1,1,0.8,440,0.436,0.294,2,1,1,0,1,90
1003,-1,-1,0.75,954,0.002,0.028,2,1,0,1,1,91
1003,1,-1,0.9,349,0.539,0.478,1,0,-1,0,1,92
1003,-1,-1,0.8,672,0.211,0.237,2,1,1,0,1,93
1003,1,-1,0.65,584,0.44,0.27,2,0,0,-1,1,94
1003,1,1,0.5,540,0.637,0.432,3,1,0,1,1,95
1003,-1,-1,0.7,372,0.17,0.196,2,1,0,1,1,96
1003,1,1,1,803,0.305,0.002,1,1,1,0,2,1
1003,1,1,0.8,609,0.51,0.206,1,1,0,1,2,2
1003,1,1,0.5,1806,0.283,0.189,1,1,0,1,2,3
1003,1,1,0.55,828,0.519,0.266,1,1,0,1,2,4
1003,1,1,0.55,710,0.715,0.411,3,1,0,1,2,5
1003,1,-1,0.6,629,0.684,0.472,2,0,0,1,2,6
1003,1,-1,0.6,1137,0.656,0.352,1,0,0,1,2,7
1003,1,1,0.6,1459,0.627,0.492,3,1,0,1,2,8
1003,1,1,0.8,422,0.428,0.216,1,1,1,0,2,9
1003,1,1,0.55,704,0.446,0.352,3,1,0,1,2,10
1003,1,-1,0.8,418,0.471,0.377,1,0,0,1,2,11
1003,1,1,0.85,601,0.315,0.062,1,1,1,0,2,12
1003,1,1,0.8,1117,0.204,0.069,1,1,1,0,2,13
1003,1,-1,0.9,664,0.144,0.101,2,0,-1,0,2,14
1003,1,-1,0.85,368,0.374,0.331,2,0,0,1,2,15
1003,1,-1,0.6,1846,0.071,0.027,1,0,0,1,2,16
1003,1,1,0.9,932,0.246,0.035,3,1,0,1,2,17
1003,-1,-1,0.9,432,0.16,0.193,2,1,1,0,2,18
1003,1,1,0.9,397,0.474,0.221,3,1,1,0,2,19
1003,1,1,0.6,929,0.413,0.16,3,1,0,-1,2,20
1003,1,1,0.65,1188,0.666,0.455,1,1,1,0,2,21
1003,1,-1,0.5,1444,0.482,0.27,3,0,0,1,2,22
1003,1,-1,0.85,1343,0.633,0.421,2,0,-1,0,2,23
1003,1,-1,0.5,487,0.43,0.294,2,0,0,1,2,24
1003,-1,-1,0.6,458,0.38,0.413,2,1,0,-1,2,25
1003,1,-1,0.9,360,0.455,0.32,3,0,-1,0,2,26
1003,1,1,0.5,520,0.602,0.298,3,1,0,1,2,27
1003,1,-1,0.6,492,0.585,0.373,3,0,0,1,2,28
1003,1,1,1,385,0.46,0.08,1,1,1,0,2,29
1003,1,-1,0.5,809,0.463,0.251,3,0,0,-1,2,30
1003,1,1,0.6,1183,0.251,0.116,2,1,0,1,2,31
1003,1,1,0.9,564,0.72,0.416,2,1,1,0,2,32
1003,1,1,0.6,583,0.727,0.347,2,1,0,1,2,33
1003,1,1,0.6,1025,0.371,0.235,3,1,0,1,2,34
1003,1,-1,0.6,528,0.406,0.312,1,0,0,1,2,35
1003,1,1,0.6,852,0.217,0.174,3,1,0,-1,2,36
1003,-1,-1,0.9,436,0.087,0.12,1,1,1,0,2,37
1003,1,-1,0.9,490,0.391,0.348,2,0,0,1,2,38
1003,1,1,0.9,798,0.569,0.189,1,1,0,1,2,39
1003,1,1,1,395,0.292,0.039,1,1,1,0,2,40
1003,1,1,0.8,789,0.165,0.071,1,1,0,1,2,41
1003,1,1,0.5,666,0.776,0.396,3,1,0,-1,2,42
1003,1,1,0.6,1286,0.256,0.121,1,1,0,-1,2,43
1003,1,-1,0.6,867,0.535,0.282,2,0,0,1,2,44
1003,1,1,0.9,731,0.424,0.12,2,1,1,0,2,45
1003,1,1,0.9,798,0.387,0.134,2,1,1,0,2,46
1003,-1,-1,0.9,393,0.382,0.415,3,1,1,0,2,47
1003,1,1,1,900,0.137,0.001,1,1,1,0,2,48
1003,1,1,1,474,0.294,0.04,1,1,1,0,2,49
1003,1,1,0.55,1588,0.262,0.219,1,1,0,1,2,50
1003,1,1,1,511,0.514,0.21,2,1,1,0,2,51
1003,1,1,1,738,0.278,0.024,3,1,1,0,2,52
1003,1,-1,1,419,0.498,0.404,3,0,-1,0,2,53
1003,1,1,0.95,473,0.621,0.241,2,1,1,0,2,54
1003,1,1,1,412,0.423,0.043,1,1,1,0,2,55
1003,1,-1,0.95,562,0.541,0.447,3,0,-1,0,2,56
1003,1,1,0.6,1004,0.737,0.484,3,1,0,1,2,57
1003,1,-1,0.9,302,0.164,0.121,3,0,-1,0,2,58
1003,1,1,0.7,597,0.719,0.415,1,1,1,0,2,59
1003,-1,-1,1,303,0.285,0.318,3,1,1,0,2,60
1003,-1,-1,0.95,307,0.106,0.139,1,1,1,0,2,61
1003,1,-1,0.95,278,0.39,0.296,2,0,-1,0,2,62
1003,1,-1,0.95,259,0.413,0.319,2,0,-1,0,2,63
1003,-1,-1,0.95,244,0.155,0.188,1,1,1,0,2,64
1003,1,-1,1,287,0.528,0.485,3,0,-1,0,2,65
1003,1,-1,0.95,283,0.709,0.498,1,0,-1,0,2,66
1003,1,-1,0.65,500,0.667,0.456,2,0,0,-1,2,67
1003,1,-1,0.65,423,0.68,0.469,2,0,0,1,2,68
1003,1,-1,0.9,282,0.627,0.491,2,0,-1,0,2,69
1003,1,-1,0.6,834,0.601,0.348,2,0,0,1,2,70
1003,1,1,0.55,1124,0.639,0.259,3,1,0,1,2,71
1003,-1,-1,0.85,272,0.306,0.339,2,1,1,0,2,72
1003,1,-1,0.9,226,0.465,0.372,3,0,-1,0,2,73
1003,1,-1,0.6,819,0.286,0.192,2,0,0,1,2,74
1003,1,1,1,841,0.269,0.016,2,1,1,0,2,75
1003,1,-1,0.85,474,0.446,0.352,2,0,-1,0,2,76
1003,1,1,0.55,798,0.295,0.16,1,1,0,1,2,77
1003,-1,-1,0.55,370,0.173,0.206,1,1,0,1,2,78
1003,1,-1,0.6,470,0.148,0.105,1,0,-1,0,2,79
1003,1,1,0.5,859,0.244,0.108,3,1,0,1,2,80
1003,-1,-1,0.95,280,0.421,0.454,3,1,1,0,2,81
1003,1,1,0.5,754,0.435,0.131,3,1,0,1,2,82
1003,1,1,1,801,0.426,0.045,2,1,1,0,2,83
1003,1,1,1,755,0.239,0.028,1,1,1,0,2,84
1003,1,-1,1,491,0.343,0.3,3,0,-1,0,2,85
1003,1,1,0.95,1157,0.16,0.025,2,1,1,0,2,86
1003,1,-1,0.5,884,0.749,0.369,3,0,0,1,2,87
1003,1,-1,0.5,939,0.271,0.228,1,0,0,1,2,88
1003,1,1,0.6,494,0.614,0.234,3,1,0,1,2,89
1003,1,1,0.6,1522,0.793,0.489,2,1,0,1,2,90
1003,1,1,0.9,361,0.65,0.27,1,1,1,0,2,91
1003,1,1,0.7,877,0.688,0.308,2,1,0,1,2,92
1003,1,-1,0.65,398,0.482,0.439,2,0,0,-1,2,93
1003,-1,-1,0.9,450,0.452,0.485,3,1,0,-1,2,94
1003,-1,-1,0.5,662,0.23,0.263,2,1,0,1,2,95
1003,1,1,0.5,768,0.623,0.319,3,1,0,1,2,96
1004,1,-1,0.8,782,0.448,0.435,1,0,0,1,1,1
1004,-1,-1,0.85,618,0.12,0.159,3,1,1,0,1,2
1004,-1,-1,0.9,964,0.18,0.219,1,1,1,0,1,3
1004,-1,-1,0.65,894,0.225,0.264,2,1,0,-1,1,4
1004,1,1,1,650,0.369,0.125,2,1,1,0,1,5
1004,1,1,0.7,1713,0.202,0.189,3,1,0,1,1,6
1004,1,1,0.9,845,0.193,0.065,1,1,1,0,1,7
1004,1,-1,0.85,934,0.173,0.16,1,0,-1,0,1,8
1004,1,1,0.85,762,0.218,0.09,1,1,1,0,1,9
1004,1,1,0.55,914,0.318,0.161,2,1,0,1,1,10
1004,1,1,0.9,685,0.231,0.039,3,1,1,0,1,11
1004,1,1,1,1001,0.384,0.14,1,1,1,0,1,12
1004,1,1,0.7,1065,0.509,0.317,2,1,1,0,1,13
1004,-1,1,0.65,1063,0.269,0.308,3,0,0,1,1,14
1004,1,1,0.75,1488,0.44,0.364,2,1,1,0,1,15
1004,1,-1,0.6,4392,0.053,0.04,3,0,0,-1,1,16
1004,1,1,0.95,800,0.141,0.012,3,1,0,1,1,17
1004,1,1,1,805,0.492,0.248,2,1,1,0,1,18
1004,1,1,0.65,1132,0.171,0.094,2,1,1,0,1,19
1004,1,1,0.9,730,0.49,0.333,2,1,0,1,1,20
1004,1,1,0.75,1080,0.517,0.388,3,1,1,0,1,21
1004,1,-1,0.85,1435,0.114,0.101,1,0,-1,0,1,22
1004,1,1,0.75,680,0.123,0.046,1,1,1,0,1,23
1004,1,1,0.65,538,0.503,0.426,3,1,1,0,1,24
1004,-1,1,0.8,1302,0.191,0.23,1,0,0,1,1,25
1004,-1,-1,0.65,1661,0.456,0.496,3,1,1,0,1,26
1004,1,-1,0.7,1977,0.35,0.303,1,0,-1,0,1,27
1004,-1,-1,0.9,962,0.009,0.048,3,1,1,0,1,28
1004,-1,-1,0.9,818,0.204,0.244,2,1,1,0,1,29
1004,1,1,0.75,2216,0.384,0.336,2,1,1,0,1,30
1004,1,1,0.85,693,0.325,0.196,1,1,1,0,1,31
1004,1,1,0.9,659,0.679,0.486,2,1,1,0,1,32
1004,1,1,0.95,625,0.178,0.101,1,1,0,1,1,33
1004,1,1,0.8,669,0.382,0.138,3,1,0,1,1,34
1004,1,1,0.9,641,0.386,0.257,2,1,1,0,1,35
1004,1,1,0.7,802,0.257,0.181,3,1,0,1,1,36
1004,1,1,0.8,1008,0.651,0.493,3,1,1,0,1,37
1004,1,1,0.85,653,0.061,0.013,1,1,1,0,1,38
1004,-1,1,0.8,874,0.237,0.276,1,0,0,1,1,39
1004,1,1,1,938,0.328,0.084,2,1,1,0,1,40
1004,-1,1,0.9,604,0.349,0.388,2,0,-1,0,1,41
1004,1,1,0.85,390,0.329,0.084,2,1,1,0,1,42
1004,1,1,1,837,0.3,0.108,1,1,1,0,1,43
1004,1,1,0.7,863,0.692,0.499,3,1,1,0,1,44
1004,1,1,0.9,614,0.513,0.321,2,1,1,0,1,45
1004,1,1,0.7,579,0.446,0.317,3,1,1,0,1,46
1004,1,-1,0.85,2588,0.056,0.043,2,0,-1,0,1,47
1004,1,1,0.75,429,0.518,0.326,3,1,1,0,1,48
1004,1,1,1,615,0.152,0.023,2,1,1,0,1,49
1004,1,1,0.75,801,0.142,0.094,1,1,1,0,1,50
1004,-1,1,0.85,1375,0.376,0.415,2,0,-1,0,1,51
1004,1,1,0.7,650,0.234,0.221,3,1,0,1,1,52
1004,1,1,0.8,735,0.657,0.499,3,1,1,0,1,53
1004,1,1,0.85,724,0.527,0.479,2,1,1,0,1,54
1004,1,1,0.7,662,0.411,0.363,3,1,0,-1,1,55
1004,1,1,0.8,493,0.635,0.477,3,1,0,1,1,56
1004,1,1,0.85,546,0.242,0.049,1,1,1,0,1,57
1004,1,1,0.65,690,0.171,0.123,2,1,0,1,1,58
1004,1,1,0.85,469,0.432,0.24,1,1,1,0,1,59
1004,1,1,1,768,0.33,0.282,2,1,1,0,1,60
1004,1,1,0.8,705,0.288,0.211,1,1,0,1,1,61
1004,1,1,1,764,0.132,0.004,2,1,1,0,1,62
1004,1,1,0.9,470,0.1,0.023,3,1,1,0,1,63
1004,1,-1,0.6,1488,0.452,0.439,2,0,-1,0,1,64
1004,1,1,0.9,365,0.168,0.091,2,1,1,0,1,65
1004,1,1,0.65,792,0.442,0.429,2,1,0,1,1,66
1004,1,1,0.95,402,0.416,0.224,1,1,0,1,1,67
1004,1,1,0.8,641,0.411,0.398,1,1,0,1,1,68
1004,1,1,0.7,703,0.269,0.221,3,1,0,1,1,69
1004,1,1,0.55,802,0.36,0.347,3,1,0,1,1,70
1004,-1,1,0.7,625,0.451,0.49,1,0,0,1,1,71
1004,1,-1,0.55,797,0.459,0.302,2,0,0,1,1,72
1004,1,1,0.85,958,0.209,0.051,3,1,1,0,1,73
1004,1,1,0.8,624,0.396,0.267,3,1,0,1,1,74
1004,1,1,0.9,1019,0.592,0.348,3,1,1,0,1,75
1004,1,1,1,762,0.079,0.003,2,1,1,0,1,76
1004,1,1,0.6,578,0.37,0.213,1,1,0,1,1,77
1004,1,1,0.85,407,0.282,0.037,3,1,1,0,1,78
1004,1,1,0.75,629,0.098,0.05,1,1,1,0,1,79
1004,1,1,0.6,823,0.318,0.305,2,1,1,0,1,80
1004,1,1,0.85,564,0.188,0.031,1,1,1,0,1,81
1004,1,1,0.85,441,0.314,0.185,1,1,1,0,1,82
1004,1,1,0.75,359,0.355,0.163,3,1,0,1,1,83
1004,1,1,0.75,691,0.136,0.059,1,1,0,1,1,84
1004,1,1,0.55,979,0.544,0.496,3,1,0,-1,1,85
1004,1,1,0.65,859,0.602,0.445,1,1,0,1,1,86
1004,1,1,0.85,855,0.128,0.052,3,1,0,1,1,87
1004,1,1,0.8,423,0.364,0.119,3,1,1,0,1,88
1004,1,1,0.85,677,0.446,0.317,2,1,1,0,1,89
1004,1,1,0.75,607,0.522,0.474,3,1,1,0,1,90
1004,1,1,0.95,596,0.292,0.135,2,1,1,0,1,91
1004,1,1,0.8,494,0.285,0.092,2,1,0,-1,1,92
1004,1,1,0.95,419,0.312,0.067,1,1,1,0,1,93
1004,1,1,0.95,595,0.32,0.075,1,1,1,0,1,94
1004,1,1,0.95,664,0.271,0.114,1,1,1,0,1,95
1004,1,1,0.8,625,0.489,0.245,1,1,0,-1,1,96
1004,-1,-1,0.8,1082,0.088,0.176,2,1,1,0,2,1
1004,1,-1,0.9,568,0.426,0.391,2,0,-1,0,2,2
1004,1,1,0.85,433,0.559,0.487,1,1,1,0,2,3
1004,-1,1,0.85,519,0.31,0.319,1,0,-1,0,2,4
1004,-1,-1,0.95,511,0.026,0.071,2,1,1,0,2,5
1004,-1,1,0.6,1451,0.262,0.326,2,0,0,1,2,6
1004,-1,-1,0.8,1115,0.388,0.476,1,1,0,1,2,7
1004,1,1,1,537,0.081,0.009,1,1,1,0,2,8
1004,1,1,0.6,769,0.422,0.411,3,1,0,1,2,9
1004,-1,1,0.7,523,0.464,0.552,1,0,-1,0,2,10
1004,-1,-1,0.85,601,0.327,0.391,2,1,1,0,2,11
1004,-1,-1,0.9,567,0.219,0.263,2,1,1,0,2,12
1004,1,-1,0.8,1152,0.107,0.072,1,0,0,1,2,13
1004,1,-1,0.6,931,0.357,0.321,3,0,0,-1,2,14
1004,-1,-1,0.85,812,0.343,0.352,1,1,1,0,2,15
1004,1,1,0.65,1418,0.419,0.348,1,1,0,1,2,16
1004,-1,-1,0.9,469,0.259,0.323,1,1,1,0,2,17
1004,-1,-1,0.85,793,0.185,0.249,3,1,0,1,2,18
1004,1,-1,0.75,1647,0.252,0.24,2,0,0,1,2,19
1004,1,1,0.7,673,0.143,0.132,2,1,0,1,2,20
1004,1,-1,0.55,949,0.52,0.449,1,0,0,-1,2,21
1004,1,1,0.7,943,0.345,0.274,3,1,1,0,2,22
1004,-1,1,0.7,1233,0.493,0.502,1,0,0,-1,2,23
1004,-1,-1,0.9,509,0.085,0.209,2,1,0,1,2,24
1004,-1,-1,0.85,668,0.122,0.246,3,1,1,0,2,25
1004,1,1,0.85,1026,0.252,0.241,3,1,1,0,2,26
1004,-1,-1,1,527,0.102,0.147,2,1,1,0,2,27
1004,-1,-1,0.65,892,0.177,0.301,3,1,0,-1,2,28
1004,-1,1,0.95,856,0.294,0.339,1,0,-1,0,2,29
1004,1,-1,0.85,719,0.466,0.43,3,0,-1,0,2,30
1004,-1,-1,0.9,755,0.056,0.064,2,1,1,0,2,31
1004,-1,-1,0.75,390,0.441,0.565,2,1,0,1,2,32
1004,-1,-1,0.65,868,0.352,0.396,2,1,0,1,2,33
1004,-1,-1,0.75,827,0.428,0.436,1,1,0,-1,2,34
1004,-1,-1,0.95,907,0.08,0.144,2,1,1,0,2,35
1004,-1,-1,1,553,0.131,0.255,1,1,1,0,2,36
1004,-1,-1,0.65,892,0.313,0.357,3,1,0,-1,2,37
1004,1,1,0.8,1080,0.335,0.3,1,1,0,1,2,38
1004,-1,1,0.7,854,0.143,0.151,3,0,0,1,2,39
1004,1,1,0.75,1244,0.152,0.117,3,1,1,0,2,40
1004,-1,-1,0.9,603,0.179,0.268,3,1,1,0,2,41
1004,1,-1,0.7,679,0.222,0.211,1,0,0,1,2,42
1004,1,1,0.7,485,0.361,0.326,2,1,0,1,2,43
1004,-1,-1,0.95,457,0.084,0.148,3,1,1,0,2,44
1004,1,1,0.65,965,0.123,0.112,3,1,0,1,2,45
1004,1,1,0.8,969,0.311,0.24,2,1,1,0,2,46
1004,1,1,0.7,649,0.437,0.366,3,1,0,1,2,47
1004,-1,-1,0.75,1117,0.283,0.371,3,1,0,-1,2,48
1004,1,1,0.95,765,0.213,0.178,1,1,1,0,2,49
1004,-1,1,0.95,559,0.477,0.541,1,0,-1,0,2,50
1004,-1,-1,0.75,1183,0.487,0.575,2,1,0,1,2,51
1004,-1,1,0.85,622,0.276,0.34,2,0,-1,0,2,52
1004,-1,-1,1,638,0.046,0.055,3,1,1,0,2,53
1004,1,1,0.85,1762,0.078,0.042,2,1,0,1,2,54
1004,-1,-1,0.9,594,0.306,0.371,1,1,1,0,2,55
1004,-1,-1,0.9,445,0.241,0.285,3,1,1,0,2,56
1004,-1,-1,0.7,734,0.23,0.275,1,1,1,0,2,57
1004,1,-1,0.85,685,0.087,0.075,1,0,0,1,2,58
1004,-1,-1,0.6,684,0.49,0.499,3,1,0,1,2,59
1004,-1,-1,0.8,661,0.424,0.432,2,1,1,0,2,60
1004,-1,-1,0.75,677,0.336,0.424,2,1,1,0,2,61
1004,1,-1,0.9,481,0.307,0.236,3,0,0,1,2,62
1004,1,-1,0.65,777,0.395,0.323,2,0,0,-1,2,63
1004,-1,-1,0.85,1116,0.375,0.42,3,1,0,-1,2,64
1004,-1,-1,0.95,487,0.314,0.358,1,1,1,0,2,65
1004,1,1,0.95,573,0.117,0.082,1,1,1,0,2,66
1004,-1,-1,0.65,610,0.41,0.534,2,1,1,0,2,67
1004,-1,-1,0.85,418,0.425,0.513,1,1,1,0,2,68
1004,-1,-1,0.8,473,0.115,0.203,2,1,1,0,2,69
1004,-1,-1,1,745,0.189,0.313,2,1,1,0,2,70
1004,1,-1,0.85,864,0.448,0.413,2,0,0,1,2,71
1004,-1,1,0.65,896,0.224,0.232,2,0,0,1,2,72
1004,-1,-1,1,469,0.449,0.573,1,1,1,0,2,73
1004,1,1,0.85,1036,0.203,0.131,2,1,0,1,2,74
1004,-1,-1,0.95,490,0.142,0.23,3,1,1,0,2,75
1004,-1,-1,0.95,534,0.459,0.583,1,1,0,1,2,76
1004,-1,-1,0.95,481,0.125,0.133,2,1,1,0,2,77
1004,-1,-1,0.65,1588,0.286,0.35,1,1,0,1,2,78
1004,1,1,0.8,1266,0.367,0.356,2,1,0,1,2,79
1004,1,-1,0.65,904,0.42,0.409,3,0,-1,0,2,80
1004,-1,-1,0.95,573,0.087,0.211,3,1,1,0,2,81
1004,1,-1,0.6,844,0.364,0.293,2,0,0,1,2,82
1004,1,1,0.6,451,0.147,0.136,1,1,0,-1,2,83
1004,-1,-1,0.95,560,0.213,0.257,3,1,1,0,2,84
1004,-1,-1,0.9,614,0.265,0.389,1,1,1,0,2,85
1004,-1,-1,0.9,542,0.262,0.386,3,1,1,0,2,86
1004,1,-1,0.6,647,0.527,0.492,3,0,0,1,2,87
1004,-1,-1,0.8,376,0.448,0.512,3,1,1,0,2,88
1004,1,-1,0.8,517,0.327,0.316,2,0,-1,0,2,89
1004,-1,-1,1,718,0.022,0.11,3,1,1,0,2,90
1004,1,-1,0.85,565,0.328,0.317,1,0,0,1,2,91
1004,-1,-1,0.7,866,0.44,0.448,3,1,1,0,2,92
1004,-1,-1,0.9,383,0.169,0.257,1,1,1,0,2,93
1004,1,1,0.7,1069,0.235,0.164,3,1,1,0,2,94
1004,-1,-1,0.85,560,0.465,0.509,1,1,1,0,2,95
1004,-1,-1,0.85,534,0.153,0.217,3,1,1,0,2,96
1005,1,1,0.75,634,0.127,0.094,3,1,0,1,1,1
1005,1,1,0.7,1390,0.365,0.263,1,1,1,0,1,2
1005,-1,-1,0.75,514,0.189,0.226,1,1,1,0,1,3
1005,1,1,0.65,1193,0.199,0.128,1,1,1,0,1,4
1005,1,1,0.95,557,0.061,0.011,1,1,1,0,1,5
1005,1,1,0.95,478,0.045,0.012,1,1,1,0,1,6
1005,-1,-1,0.7,1442,0.356,0.394,3,1,0,1,1,7
1005,1,-1,0.75,753,0.373,0.323,1,0,0,1,1,8
1005,1,-1,0.75,912,0.061,0.06,3,0,-1,0,1,9
1005,-1,-1,0.7,1256,0.06,0.097,3,1,1,0,1,10
1005,-1,-1,0.75,526,0.316,0.332,1,1,1,0,1,11
1005,1,-1,0.65,1945,0.404,0.354,3,0,-1,0,1,12
1005,1,-1,0.6,1852,0.345,0.274,2,0,0,1,1,13
1005,1,1,0.9,468,0.249,0.146,2,1,1,0,1,14
1005,1,1,1,351,0.112,0.041,3,1,1,0,1,15
1005,-1,-1,0.85,610,0.211,0.227,3,1,1,0,1,16
1005,-1,1,0.65,1741,0.136,0.153,2,0,0,1,1,17
1005,1,-1,0.7,490,0.231,0.199,3,0,-1,0,1,18
1005,1,-1,0.65,524,0.113,0.08,2,0,0,1,1,19
1005,-1,-1,1,520,0.015,0.052,1,1,1,0,1,20
1005,1,-1,0.65,793,0.376,0.375,2,0,0,1,1,21
1005,1,1,0.75,1460,0.149,0.116,1,1,1,0,1,22
1005,1,-1,0.65,1748,0.21,0.209,3,0,0,1,1,23
1005,1,-1,0.6,1154,0.263,0.231,2,0,0,1,1,24
1005,-1,1,0.6,1526,0.475,0.491,3,0,0,1,1,25
1005,-1,-1,0.95,525,0.098,0.167,3,1,1,0,1,26
1005,-1,-1,1,385,0.055,0.124,2,1,1,0,1,27
1005,-1,-1,0.85,734,0.164,0.233,3,1,0,1,1,28
1005,-1,-1,0.95,413,0.252,0.322,3,1,1,0,1,29
1005,1,-1,0.8,682,0.526,0.494,2,0,-1,0,1,30
1005,1,1,0.6,554,0.228,0.125,2,1,1,0,1,31
1005,1,-1,0.85,521,0.434,0.331,1,0,-1,0,1,32
1005,-1,-1,1,473,0.02,0.089,1,1,1,0,1,33
1005,-1,-1,0.8,387,0.265,0.334,1,1,1,0,1,34
1005,1,1,0.6,1224,0.459,0.458,1,1,1,0,1,35
1005,-1,-1,0.85,469,0.232,0.249,2,1,1,0,1,36
1005,-1,-1,0.8,938,0.239,0.277,3,1,1,0,1,37
1005,1,-1,0.7,648,0.433,0.331,2,0,-1,0,1,38
1005,1,1,0.95,464,0.147,0.044,1,1,1,0,1,39
1005,1,1,0.85,555,0.097,0.096,1,1,1,0,1,40
1005,1,1,0.85,602,0.09,0.089,1,1,1,0,1,41
1005,-1,-1,0.8,600,0.334,0.372,2,1,1,0,1,42
1005,-1,-1,0.95,449,0.364,0.381,1,1,1,0,1,43
1005,1,-1,0.7,475,0.276,0.226,2,0,0,1,1,44
1005,1,1,0.65,1106,0.179,0.129,1,1,1,0,1,45
1005,1,1,0.65,508,0.221,0.171,3,1,0,1,1,46
1005,1,-1,0.7,738,0.501,0.43,3,0,-1,0,1,47
1005,-1,-1,0.65,730,0.161,0.199,2,1,0,1,1,48
1005,1,-1,0.6,604,0.344,0.294,3,0,-1,0,1,49
1005,1,-1,0.6,773,0.449,0.378,2,0,0,1,1,50
1005,1,-1,0.8,454,0.512,0.479,3,0,0,-1,1,51
1005,-1,-1,0.7,1262,0.04,0.077,3,1,0,1,1,52
1005,-1,-1,0.8,486,0.144,0.213,3,1,0,1,1,53
1005,1,-1,0.85,435,0.497,0.426,1,0,0,1,1,54
1005,-1,-1,0.8,363,0.498,0.515,3,1,0,1,1,55
1005,-1,-1,0.6,924,0.162,0.178,2,1,0,1,1,56
1005,1,1,0.9,823,0.143,0.093,3,1,1,0,1,57
1005,1,-1,0.65,1252,0.249,0.178,3,0,0,1,1,58
1005,1,-1,0.6,1534,0.384,0.352,2,0,0,1,1,59
1005,1,1,0.7,939,0.36,0.31,1,1,0,1,1,60
1005,-1,-1,0.9,376,0.251,0.32,2,1,1,0,1,61
1005,1,1,0.85,494,0.154,0.083,1,1,0,1,1,62
1005,1,1,0.75,593,0.141,0.091,2,1,0,1,1,63
1005,1,1,0.95,440,0.077,0.027,2,1,1,0,1,64
1005,1,-1,0.55,748,0.359,0.256,2,0,0,1,1,65
1005,-1,-1,0.7,488,0.25,0.287,2,1,1,0,1,66
1005,1,1,0.5,2054,0.543,0.472,1,1,0,1,1,67
1005,-1,-1,0.55,405,0.275,0.291,3,1,1,0,1,68
1005,-1,-1,0.5,628,0.172,0.241,2,1,0,-1,1,69
1005,-1,-1,0.6,584,0.276,0.345,2,1,0,1,1,70
1005,1,1,0.6,1383,0.028,0.027,3,1,0,1,1,71
1005,1,1,0.8,450,0.347,0.244,3,1,1,0,1,72
1005,-1,-1,0.7,1280,0.499,0.568,1,1,1,0,1,73
1005,1,-1,0.5,914,0.281,0.248,1,0,0,1,1,74
1005,-1,-1,0.55,755,0.278,0.315,1,1,1,0,1,75
1005,-1,-1,0.55,609,0.084,0.1,1,1,1,0,1,76
1005,-1,-1,0.5,685,0.065,0.081,1,1,0,-1,1,77
1005,1,1,0.55,1199,0.268,0.267,3,1,0,1,1,78
1005,1,1,0.6,1500,0.098,0.097,2,1,0,1,1,79
1005,1,1,1,287,0.153,0.082,2,1,1,0,1,80
1005,1,1,0.8,490,0.318,0.215,3,1,1,0,1,81
1005,1,1,0.8,554,0.407,0.305,1,1,1,0,1,82
1005,1,1,0.65,976,0.275,0.242,3,1,0,1,1,83
1005,-1,-1,1,564,0.006,0.043,2,1,1,0,1,84
1005,1,1,0.6,758,0.254,0.151,3,1,1,0,1,85
1005,1,1,0.55,641,0.493,0.443,2,1,0,1,1,86
1005,1,1,0.55,650,0.031,0.03,2,1,0,-1,1,87
1005,1,1,0.55,2067,0.443,0.372,3,1,0,-1,1,88
1005,-1,-1,0.7,365,0.296,0.365,1,1,1,0,1,89
1005,1,1,0.75,472,0.147,0.115,1,1,1,0,1,90
1005,-1,-1,0.5,1288,0.111,0.128,2,1,0,1,1,91
1005,1,1,0.6,506,0.568,0.465,3,1,0,1,1,92
1005,-1,1,0.55,738,0.333,0.37,1,0,0,1,1,93
1005,1,1,0.8,539,0.183,0.182,2,1,0,1,1,94
1005,1,1,0.7,471,0.037,0.036,1,1,1,0,1,95
1005,1,1,0.9,390,0.132,0.061,2,1,1,0,1,96
1005,-1,-1,0.95,418,0.08,0.11,2,1,1,0,2,1
1005,1,-1,0.85,446,0.245,0.229,1,0,-1,0,2,2
1005,-1,-1,0.7,441,0.126,0.156,1,1,0,1,2,3
1005,1,1,1,309,0.181,0.044,1,1,1,0,2,4
1005,1,1,0.85,601,0.552,0.478,2,1,1,0,2,5
1005,-1,-1,0.85,375,0.337,0.405,2,1,1,0,2,6
1005,1,-1,0.7,664,0.474,0.375,3,0,0,1,2,7
1005,-1,-1,0.75,467,0.109,0.114,2,1,0,1,2,8
1005,-1,-1,0.95,363,0.4,0.467,1,1,1,0,2,9
1005,-1,-1,0.9,377,0.281,0.311,2,1,1,0,2,10
1005,1,-1,0.75,384,0.506,0.407,2,0,-1,0,2,11
1005,-1,-1,0.85,327,0.182,0.187,1,1,1,0,2,12
1005,1,-1,0.65,566,0.498,0.399,2,0,0,1,2,13
1005,1,-1,0.65,402,0.375,0.359,3,0,0,1,2,14
1005,1,1,0.75,787,0.094,0.078,2,1,0,-1,2,15
1005,-1,-1,0.5,1985,0.008,0.012,1,1,0,1,2,16
1005,1,1,1,343,0.16,0.061,2,1,1,0,2,17
1005,1,1,0.65,695,0.388,0.289,1,1,0,1,2,18
1005,1,-1,0.7,363,0.472,0.456,3,0,-1,0,2,19
1005,1,1,1,555,0.107,0.008,3,1,1,0,2,20
1005,1,1,0.95,339,0.197,0.098,1,1,1,0,2,21
1005,-1,-1,0.65,653,0.304,0.309,3,1,1,0,2,22
1005,-1,-1,0.6,562,0.204,0.209,1,1,0,1,2,23
1005,1,1,0.85,930,0.399,0.325,1,1,1,0,2,24
1005,-1,-1,0.85,389,0.254,0.259,2,1,0,1,2,25
1005,-1,-1,0.6,923,0.401,0.406,2,1,0,1,2,26
1005,-1,-1,0.85,340,0.341,0.37,2,1,1,0,2,27
1005,1,-1,0.65,310,0.479,0.342,3,0,0,-1,2,28
1005,1,-1,0.6,402,0.326,0.272,3,0,0,1,2,29
1005,1,-1,0.55,720,0.121,0.105,2,0,0,1,2,30
1005,-1,-1,0.8,392,0.305,0.372,1,1,1,0,2,31
1005,-1,-1,0.7,410,0.351,0.418,2,1,1,0,2,32
1005,-1,-1,1,300,0.401,0.469,2,1,1,0,2,33
1005,1,-1,0.7,416,0.287,0.271,3,0,0,-1,2,34
1005,1,-1,0.85,340,0.387,0.313,1,0,-1,0,2,35
1005,1,-1,0.85,349,0.535,0.461,2,0,-1,0,2,36
1005,1,1,0.9,410,0.272,0.135,2,1,1,0,2,37
1005,1,1,0.95,309,0.205,0.106,3,1,1,0,2,38
1005,1,1,0.9,491,0.287,0.272,2,1,1,0,2,39
1005,1,1,1,353,0.304,0.168,2,1,1,0,2,40
1005,1,-1,0.8,419,0.442,0.343,2,0,-1,0,2,41
1005,1,-1,0.5,650,0.235,0.161,3,0,0,1,2,42
1005,-1,-1,0.6,999,0.029,0.034,3,1,0,1,2,43
1005,-1,-1,0.9,413,0.288,0.317,3,1,1,0,2,44
1005,-1,-1,0.85,399,0.48,0.509,3,1,1,0,2,45
1005,1,-1,0.8,374,0.603,0.466,1,0,-1,0,2,46
1005,1,1,0.65,834,0.375,0.239,2,1,0,1,2,47
1005,1,-1,0.8,363,0.506,0.453,2,0,-1,0,2,48
1005,1,1,0.85,336,0.286,0.149,3,1,1,0,2,49
1005,1,-1,0.65,450,0.459,0.405,2,0,-1,0,2,50
1005,1,1,0.6,544,0.201,0.147,3,1,0,-1,2,51
1005,1,-1,0.6,363,0.39,0.375,2,0,0,1,2,52
1005,-1,-1,0.95,366,0.059,0.088,1,1,1,0,2,53
1005,1,-1,0.75,452,0.342,0.326,1,0,-1,0,2,54
1005,-1,-1,0.8,361,0.233,0.238,3,1,0,1,2,55
1005,1,1,0.75,906,0.285,0.149,1,1,1,0,2,56
1005,1,1,0.7,1131,0.373,0.274,1,1,0,1,2,57
1005,1,-1,0.8,383,0.24,0.224,1,0,0,1,2,58
1005,1,-1,0.65,927,0.341,0.325,1,0,-1,0,2,59
1005,1,-1,0.6,583,0.276,0.202,3,0,0,1,2,60
1005,-1,-1,0.85,339,0.322,0.389,3,1,1,0,2,61
1005,-1,-1,0.9,357,0.494,0.523,3,1,0,1,2,62
1005,1,1,0.85,555,0.308,0.171,1,1,1,0,2,63
1005,-1,-1,0.75,384,0.333,0.363,2,1,0,1,2,64
1005,1,1,0.7,741,0.384,0.247,3,1,0,1,2,65
1005,1,-1,0.65,1424,0.227,0.173,3,0,0,1,2,66
1005,-1,-1,0.7,363,0.112,0.117,1,1,1,0,2,67
1005,1,1,0.9,387,0.178,0.079,3,1,0,-1,2,68
1005,1,1,0.8,516,0.433,0.379,2,1,0,-1,2,69
1005,1,1,0.75,678,0.61,0.474,3,1,0,1,2,70
1005,1,-1,0.8,1298,0.539,0.402,2,0,-1,0,2,71
1005,-1,-1,0.95,576,0.463,0.493,1,1,1,0,2,72
1005,1,-1,0.65,1225,0.212,0.159,1,0,0,1,2,73
1005,1,1,0.7,662,0.347,0.273,1,1,1,0,2,74
1005,1,1,1,400,0.086,0.012,1,1,1,0,2,75
1005,1,-1,0.7,923,0.486,0.387,1,0,0,1,2,76
1005,1,-1,0.6,690,0.26,0.207,3,0,-1,0,2,77
1005,-1,-1,0.55,342,0.342,0.409,3,1,0,1,2,78
1005,1,1,0.6,445,0.563,0.489,3,1,0,1,2,79
1005,1,1,0.95,341,0.061,0.008,1,1,1,0,2,80
1005,1,-1,0.6,897,0.274,0.2,3,0,0,1,2,81
1005,1,1,0.95,256,0.048,0.032,3,1,1,0,2,82
1005,-1,-1,0.95,249,0.031,0.06,1,1,1,0,2,83
1005,-1,-1,0.85,409,0.214,0.281,1,1,1,0,2,84
1005,-1,1,0.65,405,0.397,0.464,3,0,0,1,2,85
1005,-1,-1,0.6,376,0.498,0.503,3,1,0,-1,2,86
1005,-1,-1,0.7,646,0.486,0.491,2,1,1,0,2,87
1005,-1,-1,0.8,342,0.453,0.52,3,1,0,1,2,88
1005,1,-1,0.6,858,0.2,0.126,2,0,0,1,2,89
1005,1,1,0.6,375,0.402,0.328,2,1,0,-1,2,90
1005,-1,-1,0.9,349,0.486,0.553,2,1,1,0,2,91
1005,-1,-1,0.65,449,0.064,0.093,3,1,0,1,2,92
1005,-1,-1,0.85,268,0.154,0.221,1,1,1,0,2,93
1005,1,1,0.85,374,0.081,0.027,1,1,1,0,2,94
1005,1,-1,0.8,364,0.307,0.254,1,0,0,-1,2,95
1005,1,-1,0.55,750,0.536,0.482,2,0,-1,0,2,96
1006,-1,-1,0.85,571,0.303,0.369,2,1,1,0,1,1
1006,1,1,0.6,2157,0.48,0.426,3,1,0,1,1,2
1006,1,1,0.75,676,0.237,0.206,1,1,1,0,1,3
1006,1,-1,0.65,1502,0.223,0.17,1,0,0,1,1,4
1006,1,1,0.65,914,0.415,0.361,3,1,0,1,1,5
1006,-1,-1,0.7,900,0.256,0.28,2,1,0,1,1,6
1006,1,-1,0.7,1255,0.073,0.043,1,0,0,-1,1,7
1006,1,1,0.65,1227,0.137,0.083,3,1,0,1,1,8
1006,-1,-1,0.65,2373,0.067,0.09,3,1,0,-1,1,9
1006,1,-1,0.7,1542,0.169,0.157,1,0,-1,0,1,10
1006,1,1,0.75,710,0.284,0.254,1,1,0,1,1,11
1006,-1,-1,0.7,953,0.067,0.11,2,1,1,0,1,12
1006,-1,-1,0.8,1099,0.475,0.517,1,1,1,0,1,13
1006,1,1,0.75,701,0.188,0.134,1,1,1,0,1,14
1006,-1,-1,0.8,915,0.454,0.497,2,1,1,0,1,15
1006,1,1,0.75,863,0.313,0.224,3,1,1,0,1,16
1006,-1,-1,0.75,880,0.405,0.428,3,1,0,1,1,17
1006,1,-1,0.8,941,0.49,0.479,2,0,-1,0,1,18
1006,1,1,0.8,860,0.431,0.377,2,1,1,0,1,19
1006,1,-1,0.8,1333,0.208,0.178,2,0,0,1,1,20
1006,-1,1,0.75,1042,0.256,0.279,2,0,-1,0,1,21
1006,1,1,0.8,948,0.274,0.186,2,1,1,0,1,22
1006,1,1,0.75,634,0.258,0.169,3,1,1,0,1,23
1006,1,1,0.8,1307,0.368,0.314,1,1,1,0,1,24
1006,-1,-1,0.8,878,0.263,0.306,3,1,0,1,1,25
1006,1,1,0.9,882,0.102,0.013,3,1,1,0,1,26
1006,-1,-1,0.9,940,0.003,0.069,2,1,1,0,1,27
1006,-1,-1,0.85,1019,0.46,0.56,2,1,1,0,1,28
1006,-1,-1,0.9,660,0.131,0.232,1,1,1,0,1,29
1006,-1,-1,0.8,918,0.163,0.263,3,1,0,1,1,30
1006,-1,-1,0.85,1061,0.404,0.428,1,1,1,0,1,31
1006,-1,1,0.75,804,0.157,0.199,3,0,0,1,1,32
1006,-1,-1,0.75,894,0.259,0.301,3,1,0,1,1,33
1006,-1,-1,0.8,1041,0.47,0.513,3,1,0,-1,1,34
1006,1,-1,0.75,691,0.291,0.26,3,0,-1,0,1,35
1006,1,1,0.8,1352,0.275,0.263,1,1,0,1,1,36
1006,1,1,0.85,783,0.526,0.438,2,1,0,1,1,37
1006,1,-1,0.85,668,0.293,0.281,1,0,0,1,1,38
1006,1,-1,0.75,845,0.401,0.371,3,0,-1,0,1,39
1006,-1,-1,0.9,756,0.063,0.129,1,1,1,0,1,40
1006,1,-1,0.9,700,0.342,0.312,1,0,-1,0,1,41
1006,-1,-1,0.7,737,0.158,0.224,3,1,1,0,1,42
1006,1,-1,0.8,703,0.316,0.286,2,0,-1,0,1,43
1006,-1,-1,0.8,633,0.219,0.285,3,1,0,1,1,44
1006,1,-1,0.8,1127,0.282,0.251,2,0,-1,0,1,45
1006,1,-1,0.6,2140,0.561,0.472,1,0,0,1,1,46
1006,-1,-1,0.85,786,0.374,0.475,2,1,0,-1,1,47
1006,-1,-1,0.8,615,0.437,0.46,1,1,1,0,1,48
1006,-1,-1,0.75,617,0.151,0.217,3,1,0,-1,1,49
1006,1,1,0.75,687,0.117,0.063,1,1,0,1,1,50
1006,1,1,0.75,1044,0.176,0.122,2,1,0,1,1,51
1006,1,-1,0.6,985,0.153,0.141,3,0,0,1,1,52
1006,1,1,0.7,649,0.317,0.229,2,1,0,1,1,53
1006,1,1,0.65,1763,0.451,0.397,3,1,0,1,1,54
1006,-1,-1,0.8,759,0.275,0.376,3,1,1,0,1,55
1006,1,-1,0.7,815,0.392,0.361,2,0,-1,0,1,56
1006,-1,-1,0.65,818,0.199,0.265,1,1,0,1,1,57
1006,-1,-1,0.9,890,0.011,0.034,3,1,1,0,1,58
1006,1,-1,0.65,989,0.457,0.445,3,0,-1,0,1,59
1006,-1,-1,0.6,965,0.348,0.371,3,1,1,0,1,60
1006,1,1,0.9,588,0.151,0.062,1,1,1,0,1,61
1006,1,1,0.8,706,0.477,0.423,2,1,0,1,1,62
1006,-1,-1,0.8,458,0.138,0.238,1,1,1,0,1,63
1006,1,1,0.75,849,0.219,0.207,2,1,0,1,1,64
1006,1,1,0.65,1203,0.438,0.349,1,1,1,0,1,65
1006,1,-1,0.65,1203,0.402,0.372,3,0,-1,0,1,66
1006,1,1,0.7,1202,0.326,0.238,1,1,0,1,1,67
1006,-1,-1,0.8,741,0.206,0.307,1,1,0,1,1,68
1006,1,-1,0.8,731,0.471,0.382,3,0,0,1,1,69
1006,-1,1,0.75,755,0.307,0.349,2,0,-1,0,1,70
1006,-1,-1,0.8,509,0.303,0.368,3,1,1,0,1,71
1006,-1,-1,0.85,437,0.25,0.273,1,1,0,-1,1,72
1006,-1,-1,0.55,2062,0.129,0.153,2,1,1,0,1,73
1006,-1,-1,0.9,575,0.123,0.223,3,1,1,0,1,74
1006,1,-1,0.85,586,0.407,0.395,3,0,-1,0,1,75
1006,1,1,0.6,928,0.377,0.323,2,1,0,1,1,76
1006,1,-1,0.65,581,0.409,0.32,2,0,0,-1,1,77
1006,1,1,0.75,1238,0.503,0.492,1,1,1,0,1,78
1006,-1,-1,0.85,486,0.193,0.294,1,1,1,0,1,79
1006,-1,1,0.55,1601,0.098,0.141,1,0,-1,0,1,80
1006,-1,-1,0.8,775,0.409,0.451,1,1,1,0,1,81
1006,-1,-1,0.8,614,0.275,0.34,1,1,0,1,1,82
1006,-1,-1,0.9,476,0.224,0.324,2,1,1,0,1,83
1006,-1,-1,0.7,969,0.314,0.338,2,1,0,1,1,84
1006,-1,1,0.6,766,0.246,0.288,1,0,0,1,1,85
1006,-1,-1,0.7,1264,0.412,0.454,2,1,0,1,1,86
1006,-1,-1,0.7,961,0.08,0.181,2,1,0,1,1,87
1006,-1,1,0.75,745,0.373,0.473,3,0,-1,0,1,88
1006,-1,1,0.8,498,0.394,0.418,1,0,0,1,1,89
1006,1,1,0.8,476,0.51,0.499,2,1,1,0,1,90
1006,1,1,0.6,531,0.274,0.263,3,1,0,-1,1,91
1006,-1,-1,0.85,647,0.45,0.515,2,1,1,0,1,92
1006,-1,-1,0.55,1206,0.276,0.342,1,1,0,1,1,93
1006,-1,-1,0.7,604,0.251,0.317,2,1,0,1,1,94
1006,1,1,0.7,695,0.186,0.156,3,1,1,0,1,95
1006,1,-1,0.8,622,0.219,0.208,2,0,-1,0,1,96
1006,-1,-1,0.85,708,0.209,0.241,1,1,1,0,2,1
1006,-1,1,0.6,1509,0.458,0.467,3,0,0,1,2,2
1006,-1,-1,0.6,598,0.471,0.479,1,1,0,1,2,3
1006,1,1,0.85,457,0.258,0.135,1,1,1,0,2,4
1006,1,1,0.8,520,0.522,0.458,3,1,1,0,2,5
1006,-1,-1,0.9,471,0.326,0.335,1,1,1,0,2,6
1006,-1,-1,0.6,2408,0.109,0.177,1,1,0,1,2,7
1006,1,1,0.75,423,0.353,0.288,2,1,0,-1,2,8
1006,1,1,0.9,507,0.158,0.035,2,1,0,1,2,9
1006,1,1,0.85,586,0.363,0.298,1,1,0,1,2,10
1006,-1,1,0.85,875,0.482,0.514,2,0,-1,0,2,11
1006,-1,1,0.8,934,0.396,0.428,2,0,0,1,2,12
1006,1,1,0.6,1253,0.058,0.048,1,1,0,-1,2,13
1006,-1,1,0.65,1057,0.405,0.414,1,0,-1,0,2,14
1006,1,1,0.7,590,0.329,0.24,1,1,1,0,2,15
1006,1,1,0.75,663,0.551,0.462,2,1,1,0,2,16
1006,1,1,0.75,445,0.246,0.123,3,1,1,0,2,17
1006,-1,-1,0.65,629,0.079,0.146,2,1,0,1,2,18
1006,-1,-1,0.8,930,0.041,0.073,1,1,0,-1,2,19
1006,1,-1,0.75,1534,0.477,0.431,3,0,0,1,2,20
1006,1,-1,0.85,489,0.3,0.29,2,0,0,1,2,21
1006,1,1,0.9,713,0.478,0.413,1,1,1,0,2,22
1006,-1,1,0.85,725,0.116,0.125,2,0,-1,0,2,23
1006,1,1,0.8,451,0.225,0.179,2,1,1,0,2,24
1006,1,1,0.8,657,0.284,0.219,1,1,0,1,2,25
1006,1,1,0.9,459,0.568,0.48,2,1,1,0,2,26
1006,1,1,0.75,638,0.419,0.354,3,1,1,0,2,27
1006,1,-1,0.65,2354,0.254,0.209,2,0,0,-1,2,28
1006,1,1,0.9,585,0.527,0.438,3,1,0,1,2,29
1006,1,1,0.9,544,0.308,0.243,2,1,1,0,2,30
1006,1,-1,0.7,748,0.284,0.274,3,0,0,1,2,31
1006,-1,-1,0.9,404,0.115,0.183,3,1,1,0,2,32
1006,-1,-1,0.9,430,0.35,0.382,3,1,1,0,2,33
1006,-1,-1,0.9,289,0.434,0.502,2,1,0,1,2,34
1006,1,1,0.9,525,0.107,0.019,2,1,1,0,2,35
1006,-1,-1,0.9,599,0.175,0.184,2,1,1,0,2,36
1006,-1,-1,0.75,531,0.366,0.398,3,1,1,0,2,37
1006,1,1,0.85,412,0.218,0.094,3,1,1,0,2,38
1006,-1,1,0.75,858,0.386,0.394,3,0,0,1,2,39
1006,1,-1,0.9,1267,0.49,0.425,1,0,-1,0,2,40
1006,1,1,0.65,889,0.561,0.473,1,1,1,0,2,41
1006,1,1,0.85,569,0.261,0.196,3,1,0,1,2,42
1006,-1,-1,0.7,646,0.048,0.115,2,1,1,0,2,43
1006,-1,-1,0.75,717,0.5,0.508,2,1,1,0,2,44
1006,1,1,0.8,418,0.208,0.12,3,1,1,0,2,45
1006,1,-1,0.85,598,0.598,0.475,1,0,-1,0,2,46
1006,1,-1,0.75,562,0.366,0.321,3,0,-1,0,2,47
1006,1,1,0.8,513,0.314,0.226,2,1,0,1,2,48
1006,1,1,0.9,447,0.2,0.076,1,1,1,0,2,49
1006,1,-1,0.85,391,0.382,0.372,2,0,-1,0,2,50
1006,1,1,0.7,1809,0.119,0.109,2,1,0,1,2,51
1006,1,1,0.8,420,0.252,0.187,2,1,0,1,2,52
1006,-1,1,0.7,719,0.228,0.26,1,0,0,1,2,53
1006,-1,1,0.75,608,0.093,0.102,3,0,-1,0,2,54
1006,-1,-1,0.8,650,0.094,0.161,1,1,0,1,2,55
1006,1,1,0.85,480,0.477,0.353,3,1,1,0,2,56
1006,-1,-1,0.75,1149,0.227,0.295,1,1,1,0,2,57
1006,1,1,0.7,431,0.123,0.112,3,1,1,0,2,58
1006,1,-1,0.9,361,0.261,0.196,2,0,-1,0,2,59
1006,-1,-1,0.85,301,0.137,0.204,2,1,0,1,2,60
1006,1,-1,0.9,334,0.288,0.242,2,0,-1,0,2,61
1006,-1,-1,0.85,501,0.338,0.37,3,1,0,1,2,62
1006,-1,-1,0.8,659,0.016,0.048,2,1,1,0,2,63
1006,-1,-1,0.85,381,0.219,0.286,3,1,1,0,2,64
1006,1,-1,0.7,752,0.402,0.356,2,0,0,-1,2,65
1006,1,1,0.65,1069,0.073,0.063,2,1,0,1,2,66
1006,1,1,0.7,640,0.21,0.2,3,1,0,1,2,67
1006,1,1,0.85,636,0.534,0.41,3,1,1,0,2,68
1006,1,1,0.85,554,0.386,0.298,1,1,0,1,2,69
1006,1,-1,0.9,390,0.276,0.23,1,0,-1,0,2,70
1006,1,1,0.75,545,0.115,0.104,1,1,0,1,2,71
1006,-1,1,0.8,785,0.477,0.509,1,0,0,1,2,72
1006,-1,-1,0.75,829,0.185,0.253,3,1,1,0,2,73
1006,-1,-1,0.8,624,0.461,0.469,3,1,1,0,2,74
1006,-1,-1,0.9,733,0.442,0.451,2,1,1,0,2,75
1006,-1,-1,0.7,944,0.139,0.171,3,1,1,0,2,76
1006,1,1,0.7,1430,0.22,0.096,2,1,0,1,2,77
1006,1,1,0.8,509,0.527,0.404,2,1,1,0,2,78
1006,1,1,0.85,497,0.441,0.317,1,1,0,1,2,79
1006,-1,1,0.65,743,0.094,0.126,2,0,0,1,2,80
1006,-1,-1,0.85,543,0.346,0.413,3,1,1,0,2,81
1006,1,1,0.55,1544,0.07,0.06,1,1,0,-1,2,82
1006,1,-1,0.7,499,0.34,0.294,3,0,-1,0,2,83
1006,1,-1,0.7,544,0.344,0.279,3,0,0,1,2,84
1006,1,1,0.9,480,0.552,0.464,1,1,1,0,2,85
1006,1,-1,0.9,531,0.531,0.486,3,0,-1,0,2,86
1006,1,-1,0.8,920,0.491,0.446,1,0,0,-1,2,87
1006,-1,1,0.65,1011,0.244,0.253,1,0,-1,0,2,88
1006,1,-1,0.6,776,0.401,0.391,3,0,0,-1,2,89
1006,1,1,0.7,579,0.135,0.047,3,1,0,1,2,90
1006,1,-1,0.75,702,0.305,0.295,1,0,0,1,2,91
1006,1,1,0.75,384,0.306,0.217,3,1,1,0,2,92
1006,1,1,0.85,404,0.154,0.031,2,1,0,1,2,93
1006,-1,-1,0.9,370,0.329,0.396,1,1,0,1,2,94
1006,1,1,0.85,584,0.322,0.276,1,1,1,0,2,95
1006,1,1,0.8,339,0.183,0.138,1,1,1,0,2,96
1007,-1,-1,1,486,0.17,0.26,2,1,1,0,1,1
1007,1,1,0.65,1567,0.094,0.077,2,1,0,1,1,2
1007,-1,-1,1,541,0.211,0.301,3,1,1,0,1,3
1007,-1,-1,0.75,606,0.035,0.052,2,1,1,0,1,4
1007,1,-1,1,695,0.413,0.396,1,0,-1,0,1,5
1007,1,1,0.65,585,0.532,0.476,2,1,1,0,1,6
1007,1,1,0.8,686,0.262,0.228,2,1,0,1,1,7
1007,1,1,1,475,0.301,0.245,1,1,1,0,1,8
1007,-1,-1,0.95,959,0.464,0.554,1,1,1,0,1,9
1007,1,1,0.75,614,0.324,0.268,2,1,1,0,1,10
1007,-1,-1,0.8,399,0.213,0.27,2,1,0,1,1,11
1007,-1,-1,1,525,0.129,0.164,3,1,1,0,1,12
1007,-1,-1,1,601,0.053,0.07,1,1,1,0,1,13
1007,-1,1,0.7,2192,0.454,0.51,1,0,0,-1,1,14
1007,-1,1,0.95,666,0.489,0.505,1,0,-1,0,1,15
1007,-1,-1,0.65,507,0.06,0.094,2,1,0,1,1,16
1007,-1,-1,0.7,479,0.475,0.491,2,1,0,1,1,17
1007,-1,1,0.9,1177,0.43,0.486,3,0,-1,0,1,18
1007,-1,-1,0.85,264,0.09,0.18,2,1,1,0,1,19
1007,-1,-1,1,365,0.463,0.497,1,1,1,0,1,20
1007,-1,1,1,709,0.461,0.55,1,0,-1,0,1,21
1007,-1,-1,1,220,0.161,0.177,1,1,1,0,1,22
1007,1,1,0.95,387,0.227,0.171,3,1,0,1,1,23
1007,1,1,0.85,804,0.187,0.098,2,1,1,0,1,24
1007,-1,-1,0.8,340,0.435,0.491,2,1,1,0,1,25
1007,-1,1,1,389,0.351,0.386,1,0,-1,0,1,26
1007,-1,-1,1,307,0.107,0.124,3,1,1,0,1,27
1007,1,1,0.85,1366,0.17,0.08,2,1,1,0,1,28
1007,1,-1,0.85,621,0.135,0.045,2,0,-1,0,1,29
1007,1,-1,0.8,1071,0.342,0.308,1,0,-1,0,1,30
1007,1,1,0.65,1053,0.456,0.399,2,1,0,1,1,31
1007,1,1,0.95,605,0.196,0.107,3,1,1,0,1,32
1007,1,1,0.7,568,0.313,0.296,2,1,0,1,1,33
1007,-1,-1,0.65,1032,0.088,0.104,2,1,1,0,1,34
1007,1,1,0.9,889,0.145,0.089,3,1,0,1,1,35
1007,-1,-1,1,457,0.031,0.066,1,1,1,0,1,36
1007,1,1,1,643,0.428,0.394,1,1,1,0,1,37
1007,1,1,1,567,0.309,0.274,3,1,1,0,1,38
1007,1,1,1,274,0.133,0.043,1,1,1,0,1,39
1007,1,-1,0.85,943,0.131,0.115,2,0,-1,0,1,40
1007,1,1,1,570,0.158,0.102,1,1,1,0,1,41
1007,1,1,1,401,0.24,0.15,3,1,1,0,1,42
1007,1,-1,0.85,734,0.328,0.294,2,0,0,1,1,43
1007,-1,-1,1,366,0.089,0.106,3,1,1,0,1,44
1007,-1,-1,1,345,0.286,0.376,1,1,1,0,1,45
1007,1,1,1,407,0.294,0.204,1,1,1,0,1,46
1007,1,-1,0.85,1086,0.076,0.06,2,0,0,1,1,47
1007,-1,-1,0.75,334,0.125,0.181,2,1,0,-1,1,48
1007,-1,-1,0.6,616,0.243,0.277,3,1,0,-1,1,49
1007,-1,-1,1,309,0.048,0.065,3,1,1,0,1,50
1007,1,1,1,290,0.414,0.325,1,1,1,0,1,51
1007,1,-1,0.9,1020,0.434,0.418,1,0,-1,0,1,52
1007,1,1,0.55,1034,0.322,0.266,1,1,0,-1,1,53
1007,-1,1,0.75,626,0.442,0.477,2,0,-1,0,1,54
1007,1,1,1,598,0.481,0.447,3,1,1,0,1,55
1007,1,1,1,795,0.282,0.266,1,1,1,0,1,56
1007,1,1,1,483,0.507,0.49,1,1,1,0,1,57
1007,1,1,0.85,230,0.553,0.464,2,1,1,0,1,58
1007,1,1,1,351,0.541,0.485,1,1,1,0,1,59
1007,-1,-1,0.85,373,0.205,0.24,2,1,0,1,1,60
1007,-1,-1,1,412,0.341,0.358,3,1,1,0,1,61
1007,1,1,0.7,683,0.405,0.371,2,1,0,-1,1,62
1007,1,-1,0.55,927,0.29,0.274,3,0,0,-1,1,63
1007,-1,-1,0.8,451,0.026,0.06,2,1,1,0,1,64
1007,-1,1,1,521,0.438,0.494,3,0,-1,0,1,65
1007,-1,-1,1,241,0.333,0.423,1,1,1,0,1,66
1007,1,1,1,282,0.264,0.247,3,1,1,0,1,67
1007,-1,-1,0.85,281,0.196,0.253,2,1,1,0,1,68
1007,1,1,1,490,0.118,0.083,3,1,1,0,1,69
1007,1,1,1,334,0.326,0.236,1,1,1,0,1,70
1007,1,-1,1,506,0.146,0.111,1,0,-1,0,1,71
1007,-1,-1,1,402,0.301,0.336,1,1,1,0,1,72
1007,1,1,1,329,0.157,0.067,3,1,1,0,1,73
1007,-1,-1,1,319,0.147,0.237,3,1,1,0,1,74
1007,-1,-1,1,548,0.485,0.574,3,1,1,0,1,75
1007,-1,-1,1,360,0.19,0.247,1,1,1,0,1,76
1007,-1,-1,0.85,319,0.447,0.463,2,1,1,0,1,77
1007,1,1,1,528,0.187,0.097,3,1,1,0,1,78
1007,1,1,1,542,0.379,0.322,3,1,1,0,1,79
1007,1,-1,0.65,428,0.352,0.318,2,0,0,1,1,80
1007,1,-1,1,385,0.151,0.117,3,0,-1,0,1,81
1007,-1,-1,1,390,0.079,0.095,1,1,1,0,1,82
1007,-1,-1,1,334,0.476,0.566,3,1,1,0,1,83
1007,-1,-1,0.5,396,0.436,0.471,3,1,0,1,1,84
1007,1,-1,0.5,985,0.344,0.288,3,0,0,1,1,85
1007,-1,-1,1,506,0.491,0.548,1,1,1,0,1,86
1007,-1,-1,1,359,0.171,0.227,3,1,1,0,1,87
1007,-1,-1,0.75,324,0.304,0.393,2,1,1,0,1,88
1007,1,-1,0.5,580,0.213,0.178,1,0,0,-1,1,89
1007,-1,1,0.5,828,0.454,0.511,3,0,0,1,1,90
1007,1,1,1,969,0.361,0.345,3,1,1,0,1,91
1007,-1,-1,0.85,938,0.481,0.571,2,1,1,0,1,92
1007,1,1,0.5,887,0.039,0.023,3,1,0,-1,1,93
1007,-1,-1,1,329,0.193,0.227,3,1,1,0,1,94
1007,-1,-1,1,308,0.204,0.26,1,1,1,0,1,95
1007,1,1,0.75,361,0.394,0.338,2,1,1,0,1,96
1007,1,1,0.8,639,0.065,0.038,2,1,1,0,2,1
1007,1,1,0.7,378,0.202,0.159,2,1,0,-1,2,2
1007,1,1,0.5,691,0.238,0.211,3,1,0,1,2,3
1007,1,1,1,622,0.187,0.093,2,1,1,0,2,4
1007,1,1,1,346,0.086,0.042,1,1,0,-1,2,5
1007,-1,-1,1,455,0.429,0.433,3,1,1,0,2,6
1007,1,1,1,356,0.227,0.133,3,1,1,0,2,7
1007,-1,-1,0.7,386,0.356,0.427,2,1,0,-1,2,8
1007,-1,-1,0.5,689,0.307,0.377,3,1,0,1,2,9
1007,-1,1,0.7,621,0.425,0.445,2,0,0,1,2,10
1007,1,1,0.7,840,0.255,0.161,2,1,1,0,2,11
1007,1,1,1,406,0.149,0.085,1,1,1,0,2,12
1007,-1,1,1,788,0.422,0.442,1,0,-1,0,2,13
1007,1,1,1,514,0.345,0.318,1,1,1,0,2,14
1007,1,1,0.7,318,0.359,0.265,2,1,0,1,2,15
1007,-1,-1,0.5,1423,0.253,0.324,3,1,0,1,2,16
1007,-1,-1,0.85,420,0.179,0.219,2,1,1,0,2,17
1007,-1,1,1,355,0.462,0.483,1,0,-1,0,2,18
1007,1,1,0.5,1217,0.434,0.37,3,1,0,-1,2,19
1007,1,1,0.75,342,0.404,0.36,2,1,1,0,2,20
1007,-1,-1,0.75,804,0.495,0.515,2,1,0,-1,2,21
1007,-1,-1,1,486,0.149,0.219,3,1,1,0,2,22
1007,1,1,0.8,314,0.252,0.188,2,1,1,0,2,23
1007,-1,1,1,427,0.305,0.376,1,0,-1,0,2,24
1007,1,1,0.85,322,0.155,0.092,2,1,0,-1,2,25
1007,-1,-1,1,573,0.291,0.311,3,1,1,0,2,26
1007,1,-1,0.85,1301,0.122,0.079,2,0,-1,0,2,27
1007,-1,-1,0.7,575,0.439,0.479,2,1,0,-1,2,28
1007,1,1,0.85,512,0.472,0.445,2,1,1,0,2,29
1007,-1,-1,0.75,489,0.391,0.431,2,1,1,0,2,30
1007,1,1,0.8,592,0.219,0.192,2,1,1,0,2,31
1007,-1,-1,0.95,437,0.125,0.145,3,1,1,0,2,32
1007,1,1,1,485,0.389,0.294,3,1,1,0,2,33
1007,1,1,0.85,604,0.267,0.203,2,1,1,0,2,34
1007,1,1,0.75,298,0.482,0.455,2,1,1,0,2,35
1007,1,-1,0.5,1170,0.547,0.483,3,0,0,-1,2,36
1007,1,-1,0.9,540,0.215,0.188,3,0,-1,0,2,37
1007,-1,-1,0.8,687,0.281,0.301,2,1,0,1,2,38
1007,-1,1,0.75,2376,0.477,0.497,2,0,-1,0,2,39
1007,1,1,1,365,0.329,0.235,3,1,1,0,2,40
1007,-1,-1,1,483,0.036,0.056,1,1,1,0,2,41
1007,1,-1,0.7,575,0.2,0.156,2,0,-1,0,2,42
1007,-1,-1,0.5,1416,0.08,0.084,1,1,0,-1,2,43
1007,-1,-1,0.8,457,0.312,0.383,2,1,1,0,2,44
1007,-1,1,0.5,571,0.47,0.511,3,0,0,1,2,45
1007,1,1,0.95,1269,0.275,0.181,1,1,1,0,2,46
1007,1,1,1,381,0.361,0.334,1,1,1,0,2,47
1007,-1,-1,0.75,450,0.19,0.193,2,1,0,1,2,48
1007,-1,-1,0.8,494,0.263,0.267,2,1,0,1,2,49
1007,-1,-1,0.5,1070,0.115,0.135,3,1,0,-1,2,50
1007,1,1,0.7,224,0.556,0.492,2,1,1,0,2,51
1007,-1,-1,0.95,839,0.08,0.084,3,1,1,0,2,52
1007,-1,-1,0.85,584,0.391,0.461,2,1,1,0,2,53
1007,-1,1,0.95,929,0.295,0.298,1,0,-1,0,2,54
1007,-1,-1,1,500,0.021,0.024,3,1,1,0,2,55
1007,-1,-1,1,351,0.28,0.351,1,1,1,0,2,56
1007,1,1,0.65,343,0.363,0.269,2,1,0,1,2,57
1007,1,1,1,352,0.176,0.112,3,1,1,0,2,58
1007,1,1,1,428,0.394,0.33,1,1,1,0,2,59
1007,1,1,1,420,0.061,0.034,1,1,1,0,2,60
1007,-1,-1,1,758,0.031,0.071,1,1,1,0,2,61
1007,-1,1,0.5,2509,0.178,0.181,1,0,0,-1,2,62
1007,-1,-1,0.7,480,0.086,0.126,2,1,1,0,2,63
1007,1,1,1,305,0.192,0.098,1,1,1,0,2,64
1007,-1,-1,0.95,559,0.442,0.512,1,1,1,0,2,65
1007,-1,-1,0.65,372,0.32,0.324,2,1,0,-1,2,66
1007,1,1,0.95,564,0.29,0.247,3,1,1,0,2,67
1007,1,1,1,292,0.398,0.354,3,1,1,0,2,68
1007,-1,-1,0.85,321,0.01,0.081,2,1,0,1,2,69
1007,-1,-1,1,281,0.435,0.505,3,1,1,0,2,70
1007,-1,1,0.5,1545,0.497,0.517,3,0,0,1,2,71
1007,-1,-1,1,335,0.26,0.3,1,1,1,0,2,72
1007,1,1,1,564,0.485,0.391,1,1,1,0,2,73
1007,1,1,1,443,0.338,0.274,3,1,1,0,2,74
1007,-1,-1,1,379,0.167,0.207,3,1,1,0,2,75
1007,1,1,1,418,0.279,0.236,3,1,1,0,2,76
1007,1,1,1,629,0.314,0.271,3,1,1,0,2,77
1007,1,1,1,306,0.293,0.199,3,1,1,0,2,78
1007,1,1,1,320,0.148,0.122,3,1,1,0,2,79
1007,-1,1,1,1254,0.413,0.417,1,0,-1,0,2,80
1007,1,1,1,492,0.539,0.496,1,1,1,0,2,81
1007,1,1,1,329,0.188,0.094,1,1,1,0,2,82
1007,1,-1,0.5,1310,0.111,0.067,1,0,0,1,2,83
1007,-1,-1,1,311,0.151,0.192,3,1,1,0,2,84
1007,1,1,0.5,1365,0.132,0.105,3,1,0,1,2,85
1007,-1,-1,0.95,702,0.107,0.127,1,1,1,0,2,86
1007,-1,-1,1,335,0.102,0.173,1,1,1,0,2,87
1007,1,1,1,536,0.545,0.482,1,1,1,0,2,88
1007,-1,1,0.7,415,0.431,0.434,2,0,-1,0,2,89
1007,-1,1,1,402,0.421,0.425,3,0,-1,0,2,90
1007,1,1,1,331,0.318,0.274,1,1,1,0,2,91
1007,1,1,1,417,0.502,0.439,1,1,1,0,2,92
1007,-1,-1,1,610,0.446,0.486,1,1,1,0,2,93
1007,-1,1,1,635,0.412,0.452,3,0,-1,0,2,94
1007,-1,-1,1,279,0.358,0.398,1,1,1,0,2,95
1007,1,-1,0.95,540,0.442,0.415,1,0,-1,0,2,96
1008,1,-1,0.55,721,0.171,0.143,3,0,-1,0,1,1
1008,1,1,0.75,457,0.512,0.419,1,1,1,0,1,2
1008,1,1,0.75,568,0.29,0.226,1,1,1,0,1,3
1008,1,-1,0.65,555,0.218,0.177,2,0,0,-1,1,4
1008,1,1,0.6,826,0.512,0.419,3,1,0,1,1,5
1008,-1,-1,0.9,675,0.024,0.034,3,1,1,0,1,6
1008,1,-1,0.75,661,0.241,0.164,1,0,0,1,1,7
1008,1,1,0.65,1135,0.296,0.18,1,1,0,1,1,8
1008,1,-1,0.65,1329,0.227,0.134,2,0,-1,0,1,9
1008,1,-1,0.85,520,0.089,0.076,3,0,0,1,1,10
1008,1,-1,0.9,651,0.257,0.245,2,0,-1,0,1,11
1008,-1,-1,0.8,615,0.042,0.053,2,1,1,0,1,12
1008,1,-1,0.85,714,0.304,0.276,1,0,-1,0,1,13
1008,1,1,0.7,2774,0.396,0.368,3,1,0,1,1,14
1008,1,-1,0.55,928,0.337,0.272,3,0,-1,0,1,15
1008,1,1,0.55,1029,0.124,0.047,3,1,0,1,1,16
1008,1,-1,0.7,875,0.372,0.331,1,0,0,1,1,17
1008,-1,-1,0.9,671,0.477,0.488,1,1,0,1,1,18
1008,1,-1,0.85,1037,0.402,0.31,1,0,0,1,1,19
1008,1,-1,0.75,698,0.516,0.439,3,0,0,-1,1,20
1008,1,-1,0.9,675,0.22,0.207,1,0,-1,0,1,21
1008,-1,-1,0.9,692,0.141,0.152,2,1,1,0,1,22
1008,1,-1,0.9,589,0.134,0.069,2,0,-1,0,1,23
1008,1,-1,0.8,1104,0.498,0.406,2,0,-1,0,1,24
1008,1,1,0.75,617,0.143,0.027,3,1,0,1,1,25
1008,1,-1,0.95,658,0.289,0.225,2,0,-1,0,1,26
1008,1,-1,0.9,617,0.184,0.171,3,0,-1,0,1,27
1008,1,-1,0.85,560,0.321,0.293,2,0,-1,0,1,28
1008,1,1,0.55,949,0.435,0.358,3,1,0,1,1,29
1008,1,-1,0.95,515,0.557,0.492,3,0,0,1,1,30
1008,1,-1,0.9,650,0.198,0.12,1,0,-1,0,1,31
1008,-1,-1,0.6,1540,0.166,0.177,3,1,0,-1,1,32
1008,1,1,1,666,0.126,0.01,2,1,1,0,1,33
1008,1,-1,0.8,678,0.384,0.291,3,0,0,1,1,34
1008,-1,-1,1,584,0.418,0.428,1,1,1,0,1,35
1008,-1,-1,1,595,0.378,0.389,1,1,1,0,1,36
1008,-1,-1,1,559,0.095,0.105,2,1,1,0,1,37
1008,-1,-1,0.95,532,0.152,0.163,3,1,1,0,1,38
1008,1,-1,0.85,1592,0.339,0.275,1,0,-1,0,1,39
1008,1,1,0.95,620,0.544,0.428,1,1,1,0,1,40
1008,1,-1,0.9,449,0.343,0.33,1,0,-1,0,1,41
1008,1,-1,0.9,433,0.266,0.202,2,0,-1,0,1,42
1008,1,1,0.8,507,0.486,0.37,1,1,0,1,1,43
1008,1,-1,0.9,551,0.174,0.161,1,0,-1,0,1,44
1008,1,-1,0.85,614,0.425,0.361,3,0,-1,0,1,45
1008,1,1,0.65,1309,0.215,0.174,1,1,0,-1,1,46
1008,1,-1,0.9,607,0.371,0.294,2,0,-1,0,1,47
1008,1,-1,0.85,648,0.448,0.356,1,0,-1,0,1,48
1008,1,1,0.6,614,0.138,0.061,2,1,0,1,1,49
1008,1,-1,0.65,2235,0.401,0.36,3,0,0,1,1,50
1008,1,-1,0.85,664,0.45,0.358,1,0,-1,0,1,51
1008,1,1,0.7,790,0.242,0.165,1,1,1,0,1,52
1008,1,-1,0.85,549,0.467,0.439,2,0,-1,0,1,53
1008,1,1,0.7,834,0.316,0.2,3,1,1,0,1,54
1008,1,-1,0.65,1118,0.559,0.482,2,0,-1,0,1,55
1008,-1,-1,0.95,640,0.252,0.263,2,1,1,0,1,56
1008,1,1,0.7,1056,0.551,0.486,1,1,1,0,1,57
1008,1,-1,0.9,554,0.558,0.465,3,0,-1,0,1,58
1008,1,-1,0.65,1690,0.313,0.272,3,0,0,1,1,59
1008,1,1,0.8,596,0.036,0.023,3,1,1,0,1,60
1008,1,1,1,507,0.151,0.035,3,1,1,0,1,61
1008,1,1,0.65,1077,0.438,0.397,3,1,0,1,1,62
1008,1,-1,0.6,677,0.413,0.4,3,0,0,1,1,63
1008,1,1,1,596,0.052,0.024,1,1,1,0,1,64
1008,1,-1,0.85,1107,0.531,0.49,1,0,-1,0,1,65
1008,1,1,0.65,1239,0.346,0.334,2,1,0,1,1,66
1008,1,1,0.75,774,0.102,0.061,3,1,1,0,1,67
1008,1,1,0.85,523,0.388,0.347,1,1,1,0,1,68
1008,1,1,0.75,791,0.5,0.487,2,1,1,0,1,69
1008,1,-1,0.85,451,0.274,0.246,1,0,-1,0,1,70
1008,1,1,0.8,622,0.205,0.141,1,1,1,0,1,71
1008,1,1,0.9,551,0.603,0.486,2,1,1,0,1,72
1008,1,1,0.95,410,0.333,0.217,3,1,1,0,1,73
1008,1,1,0.65,609,0.539,0.447,3,1,1,0,1,74
1008,1,1,0.65,747,0.097,0.069,2,1,0,1,1,75
1008,1,1,0.75,716,0.126,0.098,3,1,0,1,1,76
1008,1,-1,0.6,1513,0.459,0.418,2,0,0,1,1,77
1008,1,-1,0.9,495,0.387,0.31,2,0,-1,0,1,78
1008,1,1,0.75,582,0.276,0.183,2,1,1,0,1,79
1008,1,-1,0.9,598,0.506,0.442,3,0,-1,0,1,80
1008,1,-1,0.9,411,0.354,0.326,2,0,-1,0,1,81
1008,1,1,0.8,471,0.428,0.312,1,1,1,0,1,82
1008,-1,-1,0.75,419,0.461,0.472,3,1,1,0,1,83
1008,1,1,0.8,550,0.192,0.115,1,1,1,0,1,84
1008,1,-1,0.8,481,0.42,0.343,3,0,-1,0,1,85
1008,1,1,0.6,955,0.202,0.174,3,1,1,0,1,86
1008,1,1,0.9,464,0.245,0.129,2,1,0,1,1,87
1008,1,-1,0.8,398,0.157,0.116,2,0,-1,0,1,88
1008,1,1,0.75,589,0.519,0.403,2,1,0,1,1,89
1008,1,1,1,445,0.114,0.021,2,1,1,0,1,90
1008,1,-1,0.9,613,0.378,0.366,2,0,-1,0,1,91
1008,1,1,1,738,0.029,0.016,1,1,1,0,1,92
1008,-1,-1,0.95,626,0.295,0.306,1,1,1,0,1,93
1008,1,-1,0.95,594,0.379,0.338,2,0,-1,0,1,94
1008,1,1,0.7,1541,0.207,0.178,1,1,0,1,1,95
1008,1,1,0.75,694,0.245,0.181,2,1,1,0,1,96
1008,1,-1,0.85,654,0.222,0.116,2,0,0,1,2,1
1008,1,-1,0.8,567,0.503,0.45,3,0,0,-1,2,2
1008,-1,-1,0.75,452,0.448,0.47,3,1,0,1,2,3
1008,-1,-1,0.7,657,0.378,0.4,3,1,1,0,2,4
1008,1,1,0.9,579,0.445,0.317,2,1,0,1,2,5
1008,1,1,0.6,542,0.305,0.218,1,1,0,-1,2,6
1008,1,-1,0.75,999,0.476,0.442,2,0,-1,0,2,7
1008,1,1,0.55,1093,0.466,0.455,3,1,0,1,2,8
1008,1,-1,0.8,531,0.422,0.369,3,0,-1,0,2,9
1008,1,-1,0.85,684,0.355,0.321,1,0,-1,0,2,10
1008,1,-1,0.9,664,0.469,0.458,1,0,0,1,2,11
1008,1,-1,0.85,680,0.45,0.416,3,0,-1,0,2,12
1008,1,-1,0.8,758,0.211,0.177,1,0,-1,0,2,13
1008,1,-1,0.6,957,0.316,0.229,3,0,-1,0,2,14
1008,1,-1,0.95,661,0.443,0.39,1,0,-1,0,2,15
1008,1,-1,0.6,927,0.466,0.304,2,0,0,-1,2,16
1008,1,-1,0.9,533,0.303,0.291,3,0,-1,0,2,17
1008,-1,-1,0.9,519,0.055,0.078,2,1,1,0,2,18
1008,1,-1,0.9,567,0.489,0.403,3,0,-1,0,2,19
1008,1,1,0.95,519,0.104,0.017,3,1,1,0,2,20
1008,1,1,0.65,1300,0.425,0.32,1,1,0,1,2,21
1008,1,1,1,495,0.187,0.025,1,1,1,0,2,22
1008,1,1,0.8,686,0.283,0.197,2,1,0,1,2,23
1008,1,-1,0.85,604,0.347,0.312,3,0,-1,0,2,24
1008,1,1,1,445,0.102,0.015,1,1,1,0,2,25
1008,1,1,0.6,1539,0.227,0.174,1,1,1,0,2,26
1008,1,1,0.65,743,0.604,0.475,3,1,0,1,2,27
1008,1,-1,0.7,552,0.515,0.429,1,0,0,1,2,28
1008,1,-1,0.75,478,0.587,0.482,1,0,-1,0,2,29
1008,1,-1,0.6,509,0.324,0.218,1,0,0,1,2,30
1008,1,1,0.75,760,0.21,0.104,1,1,1,0,2,31
1008,1,1,0.7,1059,0.272,0.11,1,1,0,1,2,32
1008,1,-1,0.9,530,0.215,0.204,2,0,-1,0,2,33
1008,1,-1,0.65,513,0.48,0.427,3,0,0,1,2,34
1008,1,1,0.6,397,0.349,0.22,2,1,0,1,2,35
1008,1,-1,0.65,686,0.595,0.489,2,0,0,1,2,36
1008,1,1,0.9,362,0.139,0.034,3,1,1,0,2,37
1008,1,1,0.65,636,0.58,0.418,3,1,1,0,2,38
1008,1,1,0.95,404,0.074,0.022,2,1,1,0,2,39
1008,1,1,0.9,385,0.372,0.209,3,1,1,0,2,40
1008,1,1,0.95,504,0.243,0.081,1,1,1,0,2,41
1008,-1,-1,1,622,0.004,0.027,1,1,1,0,2,42
1008,1,1,0.7,712,0.325,0.291,3,1,0,-1,2,43
1008,1,1,0.9,397,0.356,0.227,1,1,1,0,2,44
1008,1,1,0.9,419,0.226,0.064,1,1,0,1,2,45
1008,1,1,0.85,315,0.15,0.064,2,1,0,-1,2,46
1008,1,1,0.9,364,0.184,0.097,3,1,0,1,2,47
1008,1,1,0.8,486,0.587,0.459,1,1,1,0,2,48
1008,1,1,0.7,320,0.415,0.309,3,1,1,0,2,49
1008,1,1,0.85,333,0.373,0.244,1,1,1,0,2,50
1008,1,1,0.8,354,0.195,0.089,2,1,0,1,2,51
1008,-1,-1,0.9,378,0.358,0.381,2,1,0,-1,2,52
1008,1,1,1,370,0.14,0.012,2,1,1,0,2,53
1008,1,1,0.9,273,0.21,0.104,2,1,1,0,2,54
1008,1,1,0.9,522,0.433,0.346,2,1,1,0,2,55
1008,-1,-1,0.85,471,0.062,0.085,2,1,0,-1,2,56
1008,1,-1,0.6,1538,0.415,0.381,1,0,0,1,2,57
1008,1,1,0.55,456,0.383,0.371,3,1,0,-1,2,58
1008,-1,-1,0.75,555,0.164,0.187,2,1,1,0,2,59
1008,1,1,1,499,0.053,0.001,1,1,1,0,2,60
1008,1,1,0.7,1495,0.375,0.364,1,1,0,1,2,61
1008,1,1,0.85,406,0.27,0.142,2,1,1,0,2,62
1008,1,1,0.85,349,0.317,0.231,1,1,0,1,2,63
1008,1,1,0.7,424,0.332,0.204,3,1,1,0,2,64
1008,1,-1,0.6,655,0.308,0.297,1,0,0,1,2,65
1008,1,1,0.7,553,0.483,0.377,3,1,0,-1,2,66
1008,-1,-1,0.95,465,0.046,0.068,1,1,1,0,2,67
1008,-1,-1,0.9,571,0.078,0.101,3,1,1,0,2,68
1008,-1,-1,0.9,497,0.343,0.365,3,1,1,0,2,69
1008,-1,-1,0.95,599,0.005,0.027,1,1,1,0,2,70
1008,1,1,0.75,477,0.327,0.274,2,1,0,1,2,71
1008,1,1,0.65,946,0.271,0.185,2,1,1,0,2,72
1008,1,-1,0.85,505,0.251,0.217,2,0,-1,0,2,73
1008,1,1,0.7,639,0.474,0.312,2,1,1,0,2,74
1008,1,1,0.95,370,0.153,0.025,1,1,0,1,2,75
1008,1,1,0.7,564,0.301,0.173,3,1,1,0,2,76
1008,1,1,0.75,337,0.229,0.067,2,1,0,1,2,77
1008,1,1,0.7,831,0.28,0.268,1,1,0,1,2,78
1008,1,-1,0.75,410,0.34,0.305,3,0,0,1,2,79
1008,1,1,0.7,651,0.155,0.121,1,1,0,1,2,80
1008,1,-1,0.85,570,0.473,0.421,1,0,-1,0,2,81
1008,-1,-1,0.95,379,0.113,0.136,1,1,1,0,2,82
1008,1,1,0.7,740,0.64,0.478,2,1,0,1,2,83
1008,1,-1,0.9,324,0.131,0.078,3,0,-1,0,2,84
1008,1,-1,0.85,477,0.413,0.401,2,0,-1,0,2,85
1008,1,-1,0.8,439,0.421,0.41,3,0,-1,0,2,86
1008,1,-1,0.9,440,0.463,0.428,2,0,-1,0,2,87
1008,1,1,0.7,1504,0.411,0.249,3,1,0,1,2,88
1008,1,-1,0.95,552,0.543,0.49,2,0,-1,0,2,89
1008,1,-1,0.75,373,0.548,0.443,3,0,-1,0,2,90
1008,1,-1,0.9,284,0.247,0.235,2,0,-1,0,2,91
1008,1,1,0.9,374,0.181,0.018,3,1,1,0,2,92
1008,1,-1,0.55,1205,0.495,0.442,2,0,0,1,2,93
1008,1,1,0.65,669,0.534,0.5,2,1,0,1,2,94
1008,1,-1,0.65,1359,0.3,0.289,2,0,0,1,2,95
1008,1,1,0.6,1205,0.594,0.466,3,1,0,1,2,96
1009,-1,-1,0.95,519,0.143,0.246,3,1,1,0,1,1
1009,1,1,0.6,1769,0.45,0.419,1,1,0,-1,1,2
1009,-1,-1,0.95,610,0.226,0.259,1,1,1,0,1,3
1009,-1,-1,0.9,557,0.177,0.238,2,1,1,0,1,4
1009,1,-1,0.9,955,0.451,0.419,3,0,-1,0,1,5
1009,1,1,0.9,974,0.105,0.024,3,1,0,1,1,6
1009,-1,1,0.6,1758,0.164,0.175,1,0,-1,0,1,7
1009,1,1,0.5,2895,0.234,0.18,1,1,0,1,1,8
1009,1,-1,0.95,557,0.165,0.134,2,0,-1,0,1,9
1009,1,1,0.9,527,0.199,0.076,2,1,1,0,1,10
1009,1,-1,0.9,777,0.368,0.245,2,0,-1,0,1,11
1009,1,1,0.55,1933,0.404,0.28,3,1,0,1,1,12
1009,1,-1,0.9,1381,0.124,0.042,2,0,-1,0,1,13
1009,-1,-1,0.9,760,0.276,0.379,1,1,1,0,1,14
1009,-1,-1,0.95,630,0.368,0.471,3,1,1,0,1,15
1009,-1,-1,0.9,509,0.272,0.306,3,1,0,1,1,16
1009,-1,-1,0.95,536,0.047,0.058,3,1,0,1,1,17
1009,-1,-1,1,595,0.331,0.393,1,1,1,0,1,18
1009,1,-1,0.95,665,0.559,0.477,1,0,-1,0,1,19
1009,1,-1,0.9,467,0.341,0.31,1,0,-1,0,1,20
1009,1,1,0.85,806,0.317,0.235,3,1,1,0,1,21
1009,-1,-1,0.9,462,0.439,0.45,3,1,1,0,1,22
1009,1,1,0.55,816,0.33,0.207,1,1,0,1,1,23
1009,1,1,0.7,559,0.222,0.141,1,1,1,0,1,24
1009,-1,-1,0.95,369,0.069,0.103,2,1,1,0,1,25
1009,1,-1,0.9,397,0.437,0.406,2,0,-1,0,1,26
1009,1,1,0.65,771,0.081,0.027,3,1,1,0,1,27
1009,-1,-1,0.9,472,0.225,0.258,2,1,0,1,1,28
1009,1,1,0.5,1191,0.295,0.171,3,1,0,-1,1,29
1009,-1,-1,0.9,372,0.293,0.396,2,1,1,0,1,30
1009,-1,-1,0.75,504,0.358,0.369,3,1,0,1,1,31
1009,-1,-1,0.75,475,0.492,0.526,3,1,0,1,1,32
1009,-1,-1,0.55,879,0.12,0.131,1,1,0,1,1,33
1009,1,1,0.9,615,0.247,0.166,2,1,0,1,1,34
1009,1,1,0.65,545,0.063,0.01,2,1,0,1,1,35
1009,1,-1,0.6,1849,0.322,0.291,3,0,0,1,1,36
1009,1,1,0.75,502,0.46,0.378,1,1,0,1,1,37
1009,1,1,0.7,479,0.176,0.095,2,1,1,0,1,38
1009,1,-1,0.65,2206,0.233,0.152,3,0,-1,0,1,39
1009,-1,-1,0.6,459,0.275,0.308,1,1,0,1,1,40
1009,1,-1,0.55,870,0.482,0.428,1,0,0,1,1,41
1009,1,1,0.55,746,0.454,0.33,1,1,0,1,1,42
1009,-1,-1,0.9,480,0.202,0.235,2,1,1,0,1,43
1009,1,-1,0.55,770,0.423,0.37,1,0,0,-1,1,44
1009,-1,-1,0.65,476,0.361,0.394,3,1,0,-1,1,45
1009,-1,-1,0.95,574,0.174,0.236,1,1,1,0,1,46
1009,-1,-1,0.85,398,0.294,0.305,2,1,0,1,1,47
1009,1,-1,0.9,372,0.387,0.356,1,0,-1,0,1,48
1009,-1,-1,0.9,1574,0.061,0.072,2,1,1,0,1,49
1009,-1,-1,0.5,500,0.36,0.421,3,1,0,1,1,50
1009,1,1,0.55,613,0.389,0.358,1,1,0,1,1,51
1009,-1,-1,0.55,445,0.165,0.176,1,1,0,1,1,52
1009,-1,-1,0.85,359,0.439,0.542,2,1,1,0,1,53
1009,1,1,0.5,608,0.253,0.2,3,1,0,1,1,54
1009,-1,-1,0.85,596,0.482,0.493,2,1,1,0,1,55
1009,1,1,0.7,416,0.333,0.252,2,1,1,0,1,56
1009,-1,-1,0.65,549,0.486,0.52,1,1,0,1,1,57
1009,1,1,0.6,354,0.496,0.465,3,1,1,0,1,58
1009,-1,1,0.55,879,0.272,0.333,3,0,0,1,1,59
1009,1,1,1,391,0.146,0.023,3,1,1,0,1,60
1009,1,1,0.55,889,0.089,0.035,3,1,0,1,1,61
1009,-1,-1,0.85,414,0.397,0.459,3,1,0,-1,1,62
1009,1,1,0.5,445,0.524,0.4,3,1,0,-1,1,63
1009,-1,-1,1,349,0.024,0.127,1,1,1,0,1,64
1009,-1,-1,0.95,513,0.49,0.551,1,1,1,0,1,65
1009,1,1,0.8,576,0.457,0.334,2,1,1,0,1,66
1009,-1,-1,0.9,396,0.061,0.122,3,1,1,0,1,67
1009,-1,1,0.5,569,0.347,0.409,1,0,0,-1,1,68
1009,1,1,0.8,476,0.611,0.487,2,1,1,0,1,69
1009,-1,-1,0.6,525,0.246,0.349,1,1,0,1,1,70
1009,-1,-1,0.9,419,0.141,0.174,1,1,1,0,1,71
1009,1,1,0.75,587,0.54,0.486,2,1,1,0,1,72
1009,1,1,0.55,604,0.27,0.217,3,1,0,1,1,73
1009,1,1,0.6,967,0.478,0.447,3,1,0,1,1,74
1009,-1,-1,0.9,414,0.069,0.172,2,1,0,1,1,75
1009,-1,-1,0.95,470,0.098,0.201,3,1,1,0,1,76
1009,-1,-1,0.75,525,0.418,0.48,2,1,1,0,1,77
1009,-1,-1,0.85,371,0.31,0.321,2,1,1,0,1,78
1009,1,-1,0.85,385,0.214,0.183,2,0,-1,0,1,79
1009,-1,-1,0.9,381,0.442,0.476,3,1,1,0,1,80
1009,-1,-1,0.8,310,0.326,0.429,2,1,1,0,1,81
1009,1,-1,0.65,530,0.366,0.312,1,0,0,1,1,82
1009,1,1,0.55,710,0.543,0.461,3,1,0,-1,1,83
1009,-1,1,0.55,570,0.115,0.126,1,0,-1,0,1,84
1009,-1,-1,0.7,398,0.343,0.354,3,1,0,1,1,85
1009,-1,-1,0.65,379,0.174,0.277,3,1,0,1,1,86
1009,1,1,0.85,373,0.183,0.129,2,1,0,1,1,87
1009,-1,-1,0.75,312,0.116,0.177,2,1,0,1,1,88
1009,1,1,0.75,444,0.457,0.403,2,1,1,0,1,89
1009,1,1,0.7,450,0.052,0.021,2,1,0,1,1,90
1009,1,1,0.75,634,0.489,0.366,1,1,0,1,1,91
1009,1,1,1,1073,0.139,0.016,1,1,1,0,1,92
1009,1,1,1,400,0.377,0.295,1,1,1,0,1,93
1009,-1,1,0.75,591,0.338,0.399,2,0,-1,0,1,94
1009,-1,-1,0.7,522,0.178,0.282,1,1,0,1,1,95
1009,-1,-1,0.75,339,0.181,0.214,2,1,1,0,1,96
1009,1,1,0.65,426,0.136,0.116,2,1,0,1,2,1
1009,-1,-1,0.55,865,0.45,0.467,3,1,0,1,2,2
1009,1,1,0.75,329,0.534,0.448,3,1,0,1,2,3
1009,1,1,0.85,393,0.464,0.378,3,1,1,0,2,4
1009,1,1,0.9,429,0.367,0.317,2,1,1,0,2,5
1009,1,-1,0.55,681,0.222,0.218,1,0,0,1,2,6
1009,-1,1,0.75,744,0.442,0.489,2,0,0,1,2,7
1009,1,1,0.75,368,0.572,0.455,2,1,1,0,2,8
1009,-1,1,0.65,484,0.369,0.386,3,0,0,1,2,9
1009,-1,-1,0.8,395,0.321,0.369,1,1,1,0,2,10
1009,-1,-1,0.6,379,0.416,0.463,3,1,0,1,2,11
1009,-1,-1,0.8,356,0.177,0.224,1,1,1,0,2,12
1009,1,-1,0.65,442,0.232,0.229,3,0,0,-1,2,13
1009,-1,1,0.55,441,0.39,0.407,1,0,0,-1,2,14
1009,1,1,0.7,518,0.37,0.304,2,1,0,1,2,15
1009,1,1,0.6,476,0.408,0.291,3,1,1,0,2,16
1009,1,1,0.9,566,0.142,0.055,2,1,1,0,2,17
1009,1,-1,0.75,422,0.406,0.403,3,0,-1,0,2,18
1009,1,1,0.55,1850,0.021,0.017,3,1,0,1,2,19
1009,1,-1,0.55,1227,0.339,0.32,1,0,0,1,2,20
1009,1,1,0.9,465,0.091,0.025,1,1,1,0,2,21
1009,1,-1,0.8,464,0.2,0.197,2,0,0,-1,2,22
1009,-1,-1,0.55,416,0.312,0.36,3,1,0,1,2,23
1009,1,-1,0.55,877,0.018,0.015,1,0,0,-1,2,24
1009,-1,1,0.6,506,0.174,0.191,1,0,0,1,2,25
1009,1,1,0.55,1402,0.525,0.475,3,1,0,1,2,26
1009,1,-1,0.7,406,0.432,0.429,1,0,-1,0,2,27
1009,1,1,0.6,1090,0.502,0.482,1,1,0,1,2,28
1009,1,-1,0.6,1571,0.238,0.218,1,0,0,-1,2,29
1009,1,-1,0.9,420,0.124,0.104,1,0,-1,0,2,30
1009,1,1,0.7,332,0.177,0.11,1,1,1,0,2,31
1009,1,1,0.75,521,0.321,0.204,2,1,0,1,2,32
1009,-1,-1,0.75,370,0.427,0.444,3,1,0,1,2,33
1009,1,1,0.8,376,0.271,0.22,2,1,0,-1,2,34
1009,1,-1,0.8,540,0.509,0.489,2,0,-1,0,2,35
1009,1,-1,0.85,417,0.053,0.034,3,0,-1,0,2,36
1009,1,-1,0.6,481,0.484,0.418,3,0,0,1,2,37
1009,-1,-1,0.75,450,0.022,0.039,2,1,1,0,2,38
1009,1,1,0.55,664,0.276,0.209,3,1,0,-1,2,39
1009,1,-1,0.55,400,0.147,0.081,1,0,0,1,2,40
1009,1,1,0.95,617,0.091,0.004,1,1,1,0,2,41
1009,-1,-1,0.8,441,0.291,0.339,3,1,1,0,2,42
1009,1,-1,0.55,672,0.278,0.227,1,0,0,1,2,43
1009,1,1,0.6,440,0.13,0.064,1,1,0,-1,2,44
1009,1,-1,0.85,424,0.067,0.064,2,0,0,1,2,45
1009,1,1,0.55,496,0.1,0.097,3,1,1,0,2,46
1009,1,-1,0.55,458,0.46,0.373,3,0,0,-1,2,47
1009,1,-1,0.6,474,0.509,0.459,1,0,0,1,2,48
1009,1,-1,0.8,290,0.329,0.309,3,0,0,1,2,49
1009,1,-1,0.65,406,0.295,0.244,1,0,0,1,2,50
1009,1,1,0.9,705,0.109,0.089,2,1,1,0,2,51
1009,1,1,0.55,739,0.445,0.358,1,1,0,1,2,52
1009,1,1,0.8,655,0.062,0.012,2,1,1,0,2,53
1009,1,1,0.75,469,0.124,0.104,2,1,0,-1,2,54
1009,1,-1,0.85,381,0.349,0.346,2,0,-1,0,2,55
1009,1,1,0.85,527,0.149,0.062,2,1,1,0,2,56
1009,-1,-1,0.55,452,0.381,0.428,1,1,0,1,2,57
1009,1,1,0.9,428,0.488,0.371,3,1,1,0,2,58
1009,1,1,0.8,295,0.251,0.164,2,1,0,1,2,59
1009,-1,-1,0.9,656,0.001,0.018,1,1,1,0,2,60
1009,1,1,0.9,419,0.481,0.364,1,1,0,1,2,61
1009,1,-1,0.7,496,0.192,0.142,2,0,-1,0,2,62
1009,1,1,0.55,528,0.234,0.231,1,1,0,1,2,63
1009,1,1,0.75,426,0.254,0.204,3,1,0,-1,2,64
1009,1,1,0.9,375,0.414,0.297,1,1,1,0,2,65
1009,1,-1,0.8,552,0.397,0.377,3,0,0,1,2,66
1009,1,1,0.95,415,0.132,0.046,1,1,1,0,2,67
1009,1,1,0.9,359,0.165,0.078,3,1,1,0,2,68
1009,1,1,0.7,663,0.429,0.343,2,1,0,1,2,69
1009,-1,-1,0.85,467,0.274,0.291,2,1,1,0,2,70
1009,1,-1,0.75,348,0.188,0.185,2,0,-1,0,2,71
1009,-1,-1,0.85,310,0.217,0.264,2,1,1,0,2,72
1009,1,-1,0.7,394,0.379,0.312,2,0,0,1,2,73
1009,1,1,0.65,628,0.075,0.025,1,1,1,0,2,74
1009,1,1,0.9,306,0.223,0.173,3,1,1,0,2,75
1009,1,1,0.65,473,0.134,0.067,2,1,0,1,2,76
1009,1,1,0.55,1022,0.386,0.268,1,1,0,1,2,77
1009,-1,-1,0.8,410,0.305,0.353,3,1,0,1,2,78
1009,-1,-1,0.7,328,0.121,0.168,1,1,1,0,2,79
1009,-1,-1,0.75,276,0.421,0.438,1,1,0,1,2,80
1009,1,1,0.7,475,0.2,0.113,1,1,0,1,2,81
1009,1,-1,0.65,294,0.545,0.478,2,0,0,1,2,82
1009,-1,-1,0.95,265,0.078,0.095,3,1,1,0,2,83
1009,1,-1,0.8,389,0.519,0.401,2,0,-1,0,2,84
1009,1,-1,0.7,345,0.527,0.41,3,0,0,1,2,85
1009,-1,-1,0.9,302,0.428,0.476,2,1,0,1,2,86
1009,1,1,0.6,398,0.315,0.249,3,1,0,1,2,87
1009,-1,-1,0.75,351,0.49,0.507,2,1,1,0,2,88
1009,1,-1,0.7,316,0.462,0.443,3,0,-1,0,2,89
1009,1,1,0.5,413,0.195,0.077,3,1,0,1,2,90
1009,1,-1,0.75,662,0.353,0.235,2,0,0,1,2,91
1009,1,1,0.9,491,0.085,0.018,3,1,1,0,2,92
1009,-1,-1,0.8,325,0.442,0.459,2,1,1,0,2,93
1009,-1,-1,0.85,192,0.5,0.547,2,1,0,1,2,94
1009,1,-1,0.55,706,0.406,0.289,1,0,0,-1,2,95
1009,1,1,0.55,642,0.516,0.466,3,1,0,1,2,96
1010,-1,-1,0.95,446,0.212,0.286,1,1,1,0,1,1
1010,-1,-1,0.85,424,0.209,0.283,2,1,1,0,1,2
1010,1,1,0.7,833,0.368,0.339,3,1,0,1,1,3
1010,-1,-1,0.85,780,0.371,0.53,2,1,0,1,1,4
1010,-1,-1,0.65,1323,0.183,0.201,1,1,1,0,1,5
1010,1,1,0.75,489,0.531,0.371,2,1,1,0,1,6
1010,1,1,0.7,1776,0.258,0.229,3,1,0,-1,1,7
1010,-1,-1,1,299,0.035,0.194,2,1,1,0,1,8
1010,1,-1,0.8,991,0.211,0.182,2,0,-1,0,1,9
1010,-1,-1,0.65,1004,0.251,0.268,3,1,0,1,1,10
1010,1,1,0.85,640,0.546,0.245,2,1,1,0,1,11
1010,1,1,1,740,0.489,0.188,2,1,1,0,1,12
1010,1,1,0.9,636,0.324,0.295,2,1,1,0,1,13
1010,-1,-1,0.8,747,0.389,0.406,1,1,0,1,1,14
1010,-1,-1,1,496,0.035,0.052,2,1,1,0,1,15
1010,1,1,0.75,629,0.452,0.338,2,1,0,1,1,16
1010,1,1,1,523,0.143,0.029,1,1,1,0,1,17
1010,1,1,1,508,0.132,0.018,3,1,1,0,1,18
1010,1,-1,0.9,619,0.492,0.464,3,0,-1,0,1,19
1010,1,1,0.85,486,0.645,0.428,1,1,1,0,1,20
1010,-1,-1,1,654,0.072,0.231,1,1,1,0,1,21
1010,-1,-1,1,558,0.246,0.405,2,1,1,0,1,22
1010,-1,-1,1,445,0.102,0.261,3,1,1,0,1,23
1010,-1,1,0.65,738,0.38,0.397,3,0,-1,0,1,24
1010,1,1,0.9,512,0.494,0.278,1,1,1,0,1,25
1010,1,1,1,414,0.218,0.058,1,1,1,0,1,26
1010,1,1,1,370,0.399,0.098,3,1,1,0,1,27
1010,-1,-1,0.75,746,0.376,0.393,2,1,1,0,1,28
1010,1,1,0.9,405,0.344,0.184,3,1,1,0,1,29
1010,1,1,0.8,612,0.433,0.32,1,1,1,0,1,30
1010,1,1,0.75,436,0.408,0.294,3,1,1,0,1,31
1010,-1,-1,1,460,0.148,0.222,1,1,1,0,1,32
1010,-1,-1,1,504,0.01,0.028,2,1,1,0,1,33
1010,1,1,0.9,454,0.472,0.17,1,1,1,0,1,34
1010,1,1,0.8,841,0.372,0.343,2,1,1,0,1,35
1010,1,-1,0.8,850,0.503,0.39,1,0,-1,0,1,36
1010,1,1,0.85,460,0.467,0.307,2,1,1,0,1,37
1010,1,1,0.9,396,0.471,0.169,3,1,1,0,1,38
1010,-1,-1,0.95,625,0.094,0.168,3,1,1,0,1,39
1010,1,1,0.7,2057,0.557,0.341,2,1,0,1,1,40
1010,1,1,0.9,463,0.372,0.071,3,1,1,0,1,41
1010,1,1,0.95,373,0.212,0.052,3,1,1,0,1,42
1010,1,1,0.95,487,0.486,0.326,2,1,1,0,1,43
1010,1,1,1,452,0.225,0.008,1,1,1,0,1,44
1010,1,1,1,421,0.465,0.164,2,1,1,0,1,45
1010,1,1,1,440,0.41,0.109,1,1,1,0,1,46
1010,1,1,0.9,649,0.432,0.272,3,1,1,0,1,47
1010,-1,-1,0.8,637,0.478,0.496,3,1,1,0,1,48
1010,1,1,0.95,486,0.151,0.122,2,1,1,0,1,49
1010,-1,1,0.75,1075,0.379,0.538,3,0,-1,0,1,50
1010,1,1,0.9,564,0.578,0.464,2,1,0,1,1,51
1010,1,1,0.85,691,0.545,0.431,2,1,0,1,1,52
1010,-1,-1,0.85,819,0.39,0.464,3,1,1,0,1,53
1010,1,1,0.95,490,0.367,0.151,3,1,1,0,1,54
1010,1,1,0.6,1901,0.036,0.007,3,1,0,1,1,55
1010,1,1,0.85,650,0.441,0.327,2,1,0,1,1,56
1010,1,1,0.9,501,0.584,0.282,1,1,1,0,1,57
1010,-1,-1,1,430,0.112,0.271,2,1,1,0,1,58
1010,1,1,1,384,0.462,0.161,2,1,0,-1,1,59
1010,-1,-1,0.9,961,0.058,0.132,3,1,1,0,1,60
1010,-1,1,0.9,562,0.322,0.339,3,0,-1,0,1,61
1010,1,1,0.85,461,0.652,0.435,3,1,1,0,1,62
1010,1,1,0.9,668,0.408,0.379,1,1,0,1,1,63
1010,1,1,1,412,0.609,0.308,1,1,1,0,1,64
1010,1,1,0.95,408,0.592,0.478,3,1,1,0,1,65
1010,-1,-1,0.85,679,0.355,0.429,2,1,0,1,1,66
1010,-1,-1,0.9,558,0.266,0.34,2,1,0,1,1,67
1010,-1,-1,0.9,512,0.383,0.542,1,1,1,0,1,68
1010,-1,-1,0.95,451,0.2,0.359,1,1,1,0,1,69
1010,-1,-1,1,737,0.045,0.063,2,1,1,0,1,70
1010,-1,-1,0.9,776,0.164,0.182,1,1,0,1,1,71
1010,1,-1,0.85,797,0.368,0.254,3,0,-1,0,1,72
1010,-1,-1,0.7,706,0.333,0.351,1,1,1,0,1,73
1010,1,-1,0.8,617,0.622,0.463,1,0,0,-1,1,74
1010,-1,-1,0.95,424,0.087,0.161,3,1,1,0,1,75
1010,1,-1,0.65,902,0.233,0.204,1,0,-1,0,1,76
1010,-1,-1,1,414,0.066,0.225,3,1,1,0,1,77
1010,1,1,1,345,0.385,0.169,2,1,1,0,1,78
1010,1,1,0.95,447,0.509,0.293,3,1,1,0,1,79
1010,-1,-1,0.95,561,0.038,0.112,1,1,1,0,1,80
1010,1,1,0.85,1004,0.206,0.177,1,1,1,0,1,81
1010,1,1,0.9,410,0.385,0.168,1,1,0,1,1,82
1010,-1,-1,0.85,434,0.234,0.308,2,1,0,1,1,83
1010,1,1,0.9,594,0.639,0.423,2,1,0,1,1,84
1010,-1,-1,1,412,0.371,0.53,1,1,1,0,1,85
1010,1,1,1,437,0.246,0.03,3,1,1,0,1,86
1010,1,1,1,420,0.286,0.126,3,1,1,0,1,87
1010,1,1,1,419,0.346,0.186,2,1,1,0,1,88
1010,1,1,0.85,943,0.141,0.112,1,1,1,0,1,89
1010,1,1,1,310,0.561,0.259,3,1,1,0,1,90
1010,-1,-1,1,333,0.112,0.186,1,1,1,0,1,91
1010,1,1,0.75,709,0.339,0.18,1,1,1,0,1,92
1010,1,1,0.7,463,0.559,0.399,1,1,0,1,1,93
1010,1,1,0.9,2127,0.566,0.35,2,1,1,0,1,94
1010,-1,-1,1,259,0.121,0.28,3,1,0,-1,1,95
1010,1,1,0.7,858,0.507,0.393,1,1,0,1,1,96
1010,1,-1,0.8,500,0.437,0.394,2,0,0,1,2,1
1010,1,1,0.75,524,0.408,0.283,2,1,1,0,2,2
1010,-1,-1,1,481,0.085,0.125,1,1,1,0,2,3
1010,1,1,0.9,567,0.195,0.108,2,1,1,0,2,4
1010,-1,-1,0.9,604,0.162,0.177,3,1,1,0,2,5
1010,1,-1,0.65,510,0.412,0.287,1,0,-1,0,2,6
1010,1,-1,0.8,2408,0.145,0.057,1,0,0,1,2,7
1010,1,1,0.8,493,0.175,0.05,1,1,1,0,2,8
1010,1,-1,0.95,492,0.337,0.332,3,0,0,1,2,9
1010,-1,-1,1,444,0.127,0.205,2,1,1,0,2,10
1010,1,-1,1,809,0.233,0.108,1,0,-1,0,2,11
1010,1,-1,1,364,0.231,0.226,3,0,-1,0,2,12
1010,-1,-1,0.9,583,0.411,0.451,2,1,0,1,2,13
1010,-1,-1,1,349,0.039,0.116,3,1,1,0,2,14
1010,1,1,0.85,436,0.401,0.276,3,1,0,1,2,15
1010,-1,-1,0.9,339,0.376,0.416,3,1,1,0,2,16
1010,-1,-1,1,229,0.058,0.098,2,1,1,0,2,17
1010,-1,-1,0.95,460,0.217,0.294,2,1,1,0,2,18
1010,1,-1,0.95,556,0.495,0.37,2,0,0,-1,2,19
1010,1,1,0.95,442,0.116,0.053,2,1,1,0,2,20
1010,-1,1,0.6,569,0.165,0.18,3,0,0,1,2,21
1010,1,1,0.6,968,0.462,0.374,3,1,1,0,2,22
1010,1,-1,0.9,807,0.385,0.322,1,0,-1,0,2,23
1010,1,1,0.9,424,0.446,0.441,1,1,0,-1,2,24
1010,-1,-1,1,465,0.121,0.136,2,1,1,0,2,25
1010,1,-1,0.9,466,0.507,0.444,3,0,-1,0,2,26
1010,-1,-1,0.8,827,0.374,0.414,2,1,1,0,2,27
1010,-1,-1,0.75,639,0.463,0.54,2,1,0,1,2,28
1010,-1,-1,0.95,483,0.222,0.237,1,1,1,0,2,29
1010,1,1,0.8,1217,0.381,0.256,3,1,0,1,2,30
1010,-1,-1,0.75,468,0.235,0.313,2,1,1,0,2,31
1010,1,-1,0.9,457,0.278,0.215,2,0,0,1,2,32
1010,-1,-1,0.9,406,0.45,0.49,1,1,1,0,2,33
1010,-1,1,0.9,662,0.166,0.181,2,0,-1,0,2,34
1010,1,1,0.95,318,0.372,0.309,1,1,1,0,2,35
1010,-1,-1,1,212,0.279,0.356,1,1,1,0,2,36
1010,1,1,0.7,512,0.34,0.278,1,1,0,1,2,37
1010,1,-1,0.85,436,0.341,0.298,3,0,-1,0,2,38
1010,-1,-1,0.95,427,0.316,0.356,1,1,1,0,2,39
1010,1,-1,0.9,341,0.338,0.295,1,0,-1,0,2,40
1010,1,-1,0.95,485,0.256,0.251,3,0,-1,0,2,41
1010,-1,1,0.85,523,0.224,0.264,1,0,0,1,2,42
1010,1,1,0.8,1985,0.44,0.398,1,1,1,0,2,43
1010,-1,-1,0.9,394,0.432,0.51,1,1,1,0,2,44
1010,-1,1,0.65,918,0.483,0.523,3,0,0,-1,2,45
1010,-1,-1,0.9,407,0.103,0.18,3,1,1,0,2,46
1010,1,-1,0.85,403,0.493,0.451,1,0,-1,0,2,47
1010,-1,-1,0.95,354,0.156,0.196,3,1,1,0,2,48
1010,-1,-1,0.75,1993,0.189,0.204,3,1,1,0,2,49
1010,1,-1,0.9,515,0.085,0.042,2,0,-1,0,2,50
1010,1,-1,0.8,969,0.384,0.341,3,0,-1,0,2,51
1010,1,-1,0.95,395,0.179,0.116,2,0,-1,0,2,52
1010,1,1,0.8,567,0.548,0.423,2,1,0,-1,2,53
1010,1,1,0.8,643,0.526,0.439,3,1,1,0,2,54
1010,-1,-1,0.9,272,0.271,0.286,1,1,1,0,2,55
1010,1,-1,0.8,436,0.54,0.452,3,0,-1,0,2,56
1010,1,-1,0.85,384,0.179,0.117,2,0,-1,0,2,57
1010,-1,-1,0.6,633,0.416,0.493,3,1,0,1,2,58
1010,-1,-1,1,437,0.012,0.089,3,1,1,0,2,59
1010,1,1,1,469,0.065,0.023,1,1,1,0,2,60
1010,1,1,0.9,460,0.454,0.329,2,1,1,0,2,61
1010,1,-1,0.85,604,0.5,0.375,3,0,0,1,2,62
1010,1,-1,0.85,1010,0.512,0.449,1,0,-1,0,2,63
1010,1,1,0.9,489,0.22,0.132,1,1,1,0,2,64
1010,1,1,0.9,538,0.059,0.017,3,1,1,0,2,65
1010,1,-1,0.8,832,0.479,0.474,2,0,-1,0,2,66
1010,1,1,0.9,936,0.22,0.178,2,1,1,0,2,67
1010,1,1,0.9,398,0.416,0.329,2,1,1,0,2,68
1010,1,1,0.95,294,0.219,0.131,1,1,0,1,2,69
1010,1,1,0.9,365,0.166,0.103,3,1,1,0,2,70
1010,1,-1,0.85,979,0.241,0.236,2,0,-1,0,2,71
1010,1,1,1,460,0.461,0.373,1,1,1,0,2,72
1010,1,-1,0.85,1260,0.244,0.238,1,0,-1,0,2,73
1010,1,-1,0.85,1154,0.488,0.363,1,0,-1,0,2,74
1010,-1,1,0.8,525,0.351,0.366,1,0,-1,0,2,75
1010,-1,-1,0.95,464,0.114,0.13,2,1,1,0,2,76
1010,1,-1,0.9,488,0.302,0.239,3,0,-1,0,2,77
1010,1,-1,0.8,767,0.351,0.288,3,0,-1,0,2,78
1010,-1,-1,0.9,493,0.495,0.572,1,1,1,0,2,79
1010,1,1,0.75,1095,0.53,0.487,3,1,1,0,2,80
1010,1,1,0.8,539,0.493,0.451,2,1,0,1,2,81
1010,1,-1,0.55,335,0.118,0.113,2,0,-1,0,2,82
1010,1,1,0.8,506,0.282,0.276,1,1,0,1,2,83
1010,1,1,0.95,505,0.365,0.36,1,1,0,-1,2,84
1010,1,1,0.95,454,0.499,0.411,2,1,1,0,2,85
1010,1,1,0.95,408,0.539,0.451,3,1,1,0,2,86
1010,-1,1,0.9,450,0.4,0.416,1,0,-1,0,2,87
1010,1,-1,0.85,923,0.14,0.135,3,0,0,-1,2,88
1010,-1,-1,0.8,420,0.111,0.152,2,1,1,0,2,89
1010,-1,-1,0.9,411,0.266,0.306,3,1,1,0,2,90
1010,1,-1,0.85,462,0.455,0.449,2,0,-1,0,2,91
1010,-1,-1,0.95,419,0.162,0.177,2,1,0,-1,2,92
1010,-1,-1,0.85,611,0.103,0.118,3,1,1,0,2,93
1010,1,1,0.7,1754,0.443,0.318,3,1,1,0,2,94
1010,-1,-1,0.85,421,0.218,0.295,1,1,1,0,2,95
1010,1,1,0.9,942,0.34,0.252,2,1,0,1,2,96
1011,-1,-1,0.6,711,0.175,0.262,3,1,0,1,1,1
1011,-1,-1,1,742,0.188,0.301,2,1,1,0,1,2
1011,-1,-1,1,216,0.145,0.299,2,1,1,0,1,3
1011,-1,-1,1,219,0.102,0.104,3,1,1,0,1,4
1011,-1,-1,0.5,493,0.384,0.387,3,1,0,-1,1,5
1011,-1,-1,0.9,492,0.33,0.484,1,1,1,0,1,6
1011,-1,-1,1,361,0.016,0.17,2,1,1,0,1,7
1011,1,-1,0.75,1835,0.216,0.192,1,0,0,1,1,8
1011,-1,-1,0.9,288,0.452,0.538,2,1,1,0,1,9
1011,-1,-1,0.85,268,0.4,0.553,1,1,1,0,1,10
1011,-1,-1,0.9,409,0.344,0.347,1,1,1,0,1,11
1011,-1,-1,0.95,240,0.13,0.216,3,1,0,-1,1,12
1011,-1,-1,0.5,1106,0.372,0.437,3,1,0,-1,1,13
1011,1,-1,0.9,518,0.46,0.436,2,0,-1,0,1,14
1011,-1,-1,0.9,341,0.438,0.462,3,1,0,1,1,15
1011,1,-1,0.7,388,0.524,0.46,2,0,-1,0,1,16
1011,-1,-1,1,299,0.192,0.306,1,1,1,0,1,17
1011,-1,-1,0.9,438,0.447,0.512,1,1,1,0,1,18
1011,1,-1,0.5,684,0.536,0.472,1,0,0,1,1,19
1011,1,-1,1,341,0.167,0.143,2,0,-1,0,1,20
1011,-1,-1,0.5,882,0.278,0.303,3,1,0,1,1,21
1011,-1,-1,1,370,0.128,0.13,2,1,1,0,1,22
1011,-1,-1,0.9,319,0.215,0.328,2,1,1,0,1,23
1011,-1,-1,1,284,0.201,0.354,3,1,1,0,1,24
1011,-1,-1,1,1138,0.258,0.371,1,1,1,0,1,25
1011,1,-1,0.5,293,0.403,0.338,3,0,0,1,1,26
1011,1,-1,0.85,253,0.246,0.222,2,0,-1,0,1,27
1011,-1,-1,1,280,0.129,0.283,1,1,1,0,1,28
1011,-1,-1,1,280,0.289,0.402,2,1,1,0,1,29
1011,1,1,0.8,754,0.085,0.061,2,1,1,0,1,30
1011,-1,-1,0.9,384,0.422,0.535,3,1,0,1,1,31
1011,-1,-1,1,507,0.072,0.097,2,1,1,0,1,32
1011,-1,-1,1,329,0.264,0.378,3,1,1,0,1,33
1011,-1,-1,1,254,0.302,0.415,3,1,1,0,1,34
1011,1,-1,1,518,0.327,0.303,3,0,-1,0,1,35
1011,-1,-1,1,407,0.368,0.433,2,1,1,0,1,36
1011,1,1,0.95,473,0.1,0.036,3,1,1,0,1,37
1011,-1,-1,0.9,552,0.341,0.405,2,1,0,1,1,38
1011,-1,-1,1,725,0.04,0.064,1,1,1,0,1,39
1011,1,-1,0.5,929,0.243,0.218,1,0,0,-1,1,40
1011,-1,-1,0.9,685,0.471,0.584,2,1,1,0,1,41
1011,-1,-1,0.9,623,0.325,0.328,2,1,1,0,1,42
1011,-1,-1,0.95,460,0.256,0.28,3,1,1,0,1,43
1011,-1,-1,0.95,639,0.424,0.427,1,1,1,0,1,44
1011,-1,-1,1,433,0.106,0.171,3,1,1,0,1,45
1011,-1,-1,0.5,901,0.477,0.48,3,1,0,-1,1,46
1011,1,1,0.5,3721,0.177,0.153,1,1,0,1,1,47
1011,-1,-1,0.95,536,0.178,0.202,1,1,1,0,1,48
1011,1,-1,0.6,672,0.405,0.381,3,0,0,1,1,49
1011,-1,1,0.55,952,0.412,0.436,1,0,0,-1,1,50
1011,-1,-1,0.7,918,0.097,0.184,1,1,0,-1,1,51
1011,-1,-1,0.85,591,0.188,0.274,3,1,1,0,1,52
1011,1,-1,0.75,472,0.377,0.313,2,0,0,1,1,53
1011,-1,-1,1,408,0.217,0.281,1,1,1,0,1,54
1011,-1,-1,0.8,1146,0.406,0.492,2,1,1,0,1,55
1011,-1,-1,1,328,0.119,0.232,1,1,1,0,1,56
1011,-1,-1,1,351,0.141,0.228,2,1,1,0,1,57
1011,1,-1,0.9,750,0.161,0.137,3,0,0,1,1,58
1011,1,-1,0.5,2367,0.244,0.18,3,0,0,1,1,59
1011,-1,-1,1,389,0.114,0.179,1,1,1,0,1,60
1011,-1,-1,0.5,1001,0.308,0.332,2,1,0,1,1,61
1011,1,-1,0.5,2102,0.485,0.461,3,0,0,1,1,62
1011,-1,-1,1,563,0.224,0.288,1,1,1,0,1,63
1011,1,1,0.9,444,0.06,0.036,1,1,1,0,1,64
1011,-1,1,0.5,1181,0.418,0.442,1,0,0,1,1,65
1011,-1,-1,0.85,419,0.303,0.368,2,1,1,0,1,66
1011,-1,-1,0.6,458,0.207,0.232,3,1,1,0,1,67
1011,-1,-1,0.7,584,0.361,0.364,2,1,1,0,1,68
1011,-1,-1,0.75,370,0.102,0.105,1,1,0,1,1,69
1011,-1,-1,1,499,0.011,0.076,3,1,1,0,1,70
1011,-1,-1,0.95,516,0.202,0.289,1,1,1,0,1,71
1011,-1,-1,1,339,0.251,0.405,3,1,1,0,1,72
1011,-1,-1,1,273,0.109,0.195,2,1,1,0,1,73
1011,-1,-1,1,374,0.339,0.364,2,1,1,0,1,74
1011,-1,-1,1,345,0.048,0.073,2,1,1,0,1,75
1011,1,-1,0.5,816,0.341,0.277,3,0,0,1,1,76
1011,-1,-1,1,331,0.238,0.392,3,1,1,0,1,77
1011,-1,-1,1,347,0.155,0.242,1,1,1,0,1,78
1011,1,1,1,463,0.139,0.075,1,1,1,0,1,79
1011,-1,-1,1,334,0.162,0.227,2,1,1,0,1,80
1011,-1,-1,1,346,0.091,0.244,2,1,1,0,1,81
1011,1,1,0.5,742,0.393,0.329,2,1,0,1,1,82
1011,-1,-1,1,480,0.175,0.178,3,1,1,0,1,83
1011,-1,-1,0.75,647,0.402,0.488,1,1,0,1,1,84
1011,1,1,1,540,0.45,0.385,1,1,1,0,1,85
1011,-1,-1,1,305,0.218,0.372,2,1,1,0,1,86
1011,-1,1,0.9,581,0.289,0.292,1,0,-1,0,1,87
1011,1,-1,0.5,737,0.343,0.279,1,0,0,1,1,88
1011,1,1,0.9,395,0.502,0.438,2,1,1,0,1,89
1011,-1,1,0.9,371,0.36,0.362,2,0,-1,0,1,90
1011,-1,-1,0.5,640,0.186,0.251,3,1,0,1,1,91
1011,-1,-1,1,352,0.253,0.367,1,1,1,0,1,92
1011,-1,-1,1,370,0.246,0.359,3,1,1,0,1,93
1011,-1,1,0.5,2252,0.245,0.331,3,0,0,1,1,94
1011,-1,-1,1,348,0.054,0.208,3,1,1,0,1,95
1011,-1,-1,1,262,0.045,0.198,1,1,1,0,1,96
1011,1,1,0.5,1264,0.194,0.185,2,1,0,1,2,1
1011,-1,1,0.5,701,0.162,0.193,1,0,0,1,2,2
1011,1,1,1,449,0.573,0.428,1,1,1,0,2,3
1011,1,1,1,1136,0.291,0.107,1,1,1,0,2,4
1011,-1,1,0.5,746,0.441,0.471,1,0,0,1,2,5
1011,1,1,1,418,0.315,0.171,1,1,1,0,2,6
1011,1,1,1,322,0.33,0.186,1,1,1,0,2,7
1011,1,1,1,715,0.532,0.348,3,1,1,0,2,8
1011,1,1,1,342,0.434,0.338,1,1,0,-1,2,9
1011,1,1,1,320,0.359,0.241,1,1,1,0,2,10
1011,1,1,0.5,1117,0.536,0.352,2,1,0,-1,2,11
1011,1,1,0.95,300,0.209,0.091,2,1,1,0,2,12
1011,1,-1,1,352,0.181,0.172,2,0,-1,0,2,13
1011,-1,1,0.85,1041,0.477,0.507,2,0,-1,0,2,14
1011,1,1,0.5,794,0.132,0.096,3,1,0,1,2,15
1011,1,1,1,335,0.165,0.02,3,1,1,0,2,16
1011,1,-1,0.5,784,0.21,0.175,3,0,0,-1,2,17
1011,1,1,1,425,0.089,0.032,3,1,0,-1,2,18
1011,1,1,0.75,1949,0.433,0.376,1,1,1,0,2,19
1011,1,1,0.95,473,0.484,0.449,3,1,1,0,2,20
1011,1,1,0.9,514,0.615,0.497,3,1,1,0,2,21
1011,1,1,0.9,530,0.468,0.35,1,1,1,0,2,22
1011,-1,1,0.8,501,0.282,0.312,2,0,-1,0,2,23
1011,1,1,0.5,428,0.438,0.403,3,1,0,1,2,24
1011,1,1,0.95,392,0.607,0.489,2,1,1,0,2,25
1011,1,1,1,333,0.45,0.306,2,1,1,0,2,26
1011,-1,-1,1,464,0.131,0.161,2,1,1,0,2,27
1011,1,1,0.9,461,0.505,0.387,1,1,1,0,2,28
1011,1,1,0.5,496,0.563,0.445,3,1,0,1,2,29
1011,1,1,0.85,696,0.233,0.176,1,1,1,0,2,30
1011,1,1,0.5,729,0.612,0.494,1,1,0,-1,2,31
1011,1,-1,0.85,505,0.432,0.375,3,0,0,-1,2,32
1011,1,1,0.55,2399,0.158,0.122,1,1,0,1,2,33
1011,1,1,0.55,510,0.154,0.145,2,1,0,1,2,34
1011,1,1,0.5,1679,0.061,0.052,3,1,0,-1,2,35
1011,1,1,1,402,0.517,0.373,1,1,1,0,2,36
1011,1,-1,1,522,0.366,0.357,1,0,-1,0,2,37
1011,1,-1,0.9,510,0.388,0.379,3,0,-1,0,2,38
1011,1,1,0.65,1867,0.151,0.115,1,1,0,1,2,39
1011,1,1,0.55,499,0.384,0.201,3,1,0,1,2,40
1011,1,1,0.65,470,0.408,0.312,1,1,0,1,2,41
1011,1,1,1,382,0.26,0.142,3,1,1,0,2,42
1011,1,1,0.5,821,0.289,0.192,1,1,0,1,2,43
1011,1,1,1,324,0.465,0.281,1,1,1,0,2,44
1011,1,1,1,391,0.483,0.299,1,1,1,0,2,45
1011,1,1,1,757,0.386,0.242,3,1,1,0,2,46
1011,1,1,0.85,391,0.487,0.303,3,1,1,0,2,47
1011,1,-1,0.8,520,0.233,0.224,2,0,-1,0,2,48
1011,1,1,0.7,803,0.538,0.42,2,1,1,0,2,49
1011,1,1,0.6,625,0.294,0.237,2,1,0,1,2,50
1011,1,1,0.85,1189,0.361,0.265,3,1,0,1,2,51
1011,1,-1,0.8,610,0.507,0.451,3,0,-1,0,2,52
1011,1,-1,0.8,2564,0.361,0.304,2,0,-1,0,2,53
1011,1,1,0.5,1073,0.567,0.471,3,1,0,1,2,54
1011,1,1,0.65,784,0.221,0.124,2,1,1,0,2,55
1011,1,1,0.65,367,0.495,0.351,2,1,0,1,2,56
1011,1,1,0.5,482,0.481,0.385,3,1,0,1,2,57
1011,1,1,0.6,813,0.59,0.494,2,1,0,1,2,58
1011,1,1,0.95,442,0.42,0.276,3,1,0,1,2,59
1011,1,1,0.5,1281,0.427,0.331,1,1,0,1,2,60
1011,1,1,0.9,434,0.497,0.4,2,1,1,0,2,61
1011,1,1,0.9,347,0.329,0.185,2,1,1,0,2,62
1011,1,-1,0.5,396,0.101,0.092,1,0,0,-1,2,63
1011,-1,-1,1,375,0.434,0.464,1,1,1,0,2,64
1011,1,1,0.5,531,0.54,0.356,3,1,0,1,2,65
1011,1,1,0.5,890,0.293,0.196,3,1,0,1,2,66
1011,1,-1,0.5,389,0.077,0.068,3,0,0,-1,2,67
1011,1,1,0.5,1226,0.294,0.259,1,1,0,1,2,68
1011,1,-1,0.75,756,0.462,0.453,1,0,-1,0,2,69
1011,1,-1,0.85,468,0.5,0.443,2,0,-1,0,2,70
1011,1,-1,0.6,661,0.373,0.338,2,0,0,1,2,71
1011,1,1,0.9,356,0.305,0.186,2,1,1,0,2,72
1011,1,1,0.5,722,0.345,0.309,2,1,0,-1,2,73
1011,1,1,0.5,418,0.479,0.335,3,1,0,1,2,74
1011,1,1,0.95,317,0.302,0.118,2,1,1,0,2,75
1011,-1,-1,0.5,344,0.314,0.344,2,1,0,1,2,76
1011,-1,-1,0.95,437,0.426,0.457,3,1,1,0,2,77
1011,1,1,1,304,0.333,0.149,1,1,1,0,2,78
1011,1,-1,0.5,980,0.192,0.135,1,0,0,1,2,79
1011,-1,-1,0.95,431,0.094,0.125,3,1,1,0,2,80
1011,1,-1,0.95,595,0.285,0.228,2,0,-1,0,2,81
1011,1,1,1,529,0.064,0.028,1,1,1,0,2,82
1011,1,1,1,445,0.474,0.29,2,1,1,0,2,83
1011,1,1,0.65,1182,0.566,0.382,2,1,0,1,2,84
1011,-1,-1,0.95,473,0.396,0.426,1,1,1,0,2,85
1011,1,-1,0.95,360,0.238,0.203,2,0,-1,0,2,86
1011,1,1,1,349,0.427,0.37,1,1,1,0,2,87
1011,1,1,1,418,0.39,0.293,2,1,1,0,2,88
1011,-1,-1,0.5,354,0.249,0.28,3,1,0,1,2,89
1011,1,-1,0.5,1102,0.192,0.135,3,0,0,-1,2,90
1011,1,-1,0.9,426,0.27,0.261,3,0,-1,0,2,91
1011,-1,-1,0.5,565,0.424,0.454,3,1,0,-1,2,92
1011,1,1,0.5,542,0.338,0.329,1,1,0,1,2,93
1011,1,1,0.9,391,0.568,0.45,3,1,1,0,2,94
1011,1,-1,0.65,494,0.418,0.382,2,0,0,1,2,95
1011,1,1,1,318,0.274,0.129,2,1,1,0,2,96
1012,1,1,0.7,508,0.24,0.116,3,1,0,1,1,1
1012,1,1,0.9,591,0.128,0.036,2,1,1,0,1,2
1012,1,1,0.9,540,0.452,0.232,2,1,1,0,1,3
1012,1,1,0.75,1149,0.163,0.128,1,1,0,1,1,4
1012,1,-1,0.6,1172,0.479,0.317,3,0,0,-1,1,5
1012,1,-1,0.6,518,0.516,0.392,1,0,0,1,1,6
1012,1,-1,0.7,827,0.311,0.218,2,0,0,-1,1,7
1012,1,1,0.6,728,0.445,0.442,3,1,0,1,1,8
1012,-1,-1,0.75,643,0.4,0.494,1,1,0,1,1,9
1012,1,1,0.85,438,0.36,0.139,1,1,0,1,1,10
1012,1,-1,0.7,684,0.324,0.321,2,0,-1,0,1,11
1012,-1,-1,0.7,522,0.458,0.493,2,1,1,0,1,12
1012,-1,-1,0.9,463,0.204,0.297,1,1,1,0,1,13
1012,1,-1,0.7,504,0.333,0.298,1,0,-1,0,1,14
1012,1,-1,0.65,1103,0.18,0.177,2,0,0,1,1,15
1012,1,-1,0.65,636,0.425,0.39,2,0,0,1,1,16
1012,1,1,0.7,718,0.328,0.236,1,1,0,1,1,17
1012,1,1,0.75,449,0.524,0.304,3,1,0,1,1,18
1012,-1,-1,0.95,670,0.055,0.149,3,1,1,0,1,19
1012,1,1,0.9,576,0.444,0.32,3,1,1,0,1,20
1012,1,1,0.95,470,0.245,0.025,2,1,0,1,1,21
1012,1,-1,0.6,662,0.289,0.197,3,0,0,1,1,22
1012,1,1,0.9,648,0.108,0.015,2,1,0,1,1,23
1012,1,-1,0.6,708,0.208,0.174,3,0,0,-1,1,24
1012,1,1,0.95,512,0.247,0.085,1,1,1,0,1,25
1012,1,1,0.8,1060,0.521,0.429,2,1,0,-1,1,26
1012,1,1,0.75,524,0.606,0.482,2,1,0,1,1,27
1012,1,1,0.7,723,0.342,0.218,2,1,1,0,1,28
1012,1,1,0.9,435,0.228,0.104,2,1,1,0,1,29
1012,1,1,0.9,475,0.33,0.11,2,1,0,1,1,30
1012,-1,1,0.65,551,0.204,0.239,3,0,0,-1,1,31
1012,1,1,0.8,488,0.383,0.22,3,1,0,-1,1,32
1012,1,1,0.9,418,0.252,0.09,1,1,0,1,1,33
1012,1,1,0.9,580,0.301,0.081,3,1,0,1,1,34
1012,-1,-1,0.95,784,0.004,0.098,2,1,1,0,1,35
1012,1,-1,0.6,899,0.39,0.227,2,0,-1,0,1,36
1012,1,1,1,448,0.284,0.064,2,1,1,0,1,37
1012,1,1,0.95,340,0.209,0.046,2,1,1,0,1,38
1012,1,1,0.65,704,0.156,0.064,3,1,0,1,1,39
1012,1,1,0.65,589,0.705,0.484,1,1,0,1,1,40
1012,1,-1,0.55,910,0.621,0.459,3,0,0,1,1,41
1012,1,-1,0.65,484,0.543,0.451,1,0,0,-1,1,42
1012,-1,-1,0.95,555,0.071,0.107,1,1,1,0,1,43
1012,1,1,0.9,541,0.627,0.407,1,1,1,0,1,44
1012,1,1,0.75,368,0.407,0.244,2,1,0,1,1,45
1012,1,1,0.6,354,0.213,0.089,3,1,0,-1,1,46
1012,-1,-1,0.65,395,0.358,0.451,3,1,1,0,1,47
1012,1,1,1,336,0.174,0.012,3,1,1,0,1,48
1012,1,1,0.85,1160,0.228,0.104,3,1,1,0,1,49
1012,1,-1,0.55,543,0.384,0.381,3,0,-1,0,1,50
1012,-1,-1,0.95,343,0.271,0.307,2,1,0,-1,1,51
1012,1,-1,0.8,428,0.273,0.27,2,0,-1,0,1,52
1012,-1,-1,0.75,287,0.164,0.257,3,1,1,0,1,53
1012,1,1,1,463,0.035,0.001,2,1,1,0,1,54
1012,-1,-1,0.6,1119,0.364,0.399,2,1,0,-1,1,55
1012,1,-1,0.55,490,0.166,0.163,1,0,0,-1,1,56
1012,1,-1,0.6,646,0.475,0.351,1,0,0,1,1,57
1012,1,-1,0.6,383,0.311,0.308,1,0,-1,0,1,58
1012,1,-1,0.7,417,0.323,0.231,3,0,-1,0,1,59
1012,-1,-1,1,328,0.099,0.192,1,1,1,0,1,60
1012,1,1,0.6,662,0.277,0.185,1,1,0,1,1,61
1012,-1,-1,0.65,420,0.297,0.332,2,1,0,1,1,62
1012,1,-1,0.55,351,0.223,0.188,1,0,0,1,1,63
1012,-1,-1,1,545,0.046,0.139,2,1,1,0,1,64
1012,-1,-1,0.9,284,0.215,0.25,1,1,1,0,1,65
1012,-1,-1,1,300,0.005,0.098,2,1,1,0,1,66
1012,1,1,0.55,1216,0.309,0.274,3,1,0,1,1,67
1012,1,-1,0.55,540,0.277,0.185,3,0,0,1,1,68
1012,1,-1,0.6,661,0.326,0.202,1,0,-1,0,1,69
1012,-1,-1,0.9,359,0.449,0.543,1,1,1,0,1,70
1012,1,-1,0.75,365,0.22,0.217,3,0,-1,0,1,71
1012,1,1,0.75,651,0.532,0.312,3,1,0,1,1,72
1012,1,1,1,555,0.187,0.025,2,1,1,0,1,73
1012,1,1,0.65,598,0.531,0.439,1,1,0,1,1,74
1012,-1,-1,0.8,497,0.268,0.304,3,1,0,-1,1,75
1012,-1,-1,0.9,319,0.422,0.458,1,1,1,0,1,76
1012,1,-1,0.85,332,0.124,0.121,2,0,-1,0,1,77
1012,1,-1,0.8,491,0.455,0.421,2,0,-1,0,1,78
1012,1,-1,0.75,605,0.17,0.167,1,0,0,1,1,79
1012,-1,-1,1,329,0.113,0.206,3,1,1,0,1,80
1012,1,-1,0.6,863,0.698,0.478,3,0,-1,0,1,81
1012,1,-1,0.6,413,0.588,0.367,1,0,0,1,1,82
1012,1,-1,0.65,630,0.19,0.156,2,0,0,-1,1,83
1012,1,-1,0.8,384,0.242,0.239,1,0,-1,0,1,84
1012,-1,-1,0.75,1034,0.401,0.437,3,1,0,1,1,85
1012,1,1,1,361,0.215,0.091,2,1,1,0,1,86
1012,-1,-1,0.9,395,0.477,0.57,2,1,0,1,1,87
1012,1,-1,0.75,498,0.475,0.44,1,0,-1,0,1,88
1012,-1,-1,0.9,272,0.098,0.133,1,1,1,0,1,89
1012,1,-1,0.8,281,0.525,0.49,3,0,-1,0,1,90
1012,1,1,0.75,550,0.351,0.189,1,1,0,1,1,91
1012,1,-1,0.6,330,0.395,0.232,1,0,0,1,1,92
1012,1,-1,0.7,514,0.455,0.331,1,0,0,-1,1,93
1012,1,-1,0.6,462,0.477,0.442,3,0,0,1,1,94
1012,1,-1,0.5,366,0.503,0.5,3,0,0,1,1,95
1012,-1,-1,0.85,343,0.289,0.324,3,1,0,-1,1,96
1012,1,1,0.55,291,0.108,0.028,1,1,0,-1,2,1
1012,1,1,0.65,389,0.429,0.304,1,1,0,1,2,2
1012,1,1,0.85,435,0.164,0.109,1,1,0,-1,2,3
1012,1,1,0.6,602,0.194,0.115,3,1,0,1,2,4
1012,1,1,1,472,0.435,0.254,2,1,1,0,2,5
1012,1,1,0.7,637,0.486,0.335,2,1,1,0,2,6
1012,1,1,1,302,0.223,0.042,3,1,1,0,2,7
1012,-1,-1,1,382,0.386,0.408,1,1,1,0,2,8
1012,-1,-1,0.7,1516,0.001,0.023,2,1,0,1,2,9
1012,-1,-1,0.6,629,0.352,0.374,2,1,0,1,2,10
1012,1,-1,0.7,501,0.385,0.306,2,0,-1,0,2,11
1012,1,-1,0.85,459,0.298,0.244,3,0,-1,0,2,12
1012,1,1,0.6,433,0.494,0.267,1,1,0,1,2,13
1012,1,1,1,432,0.23,0.003,1,1,1,0,2,14
1012,1,1,0.7,748,0.296,0.17,2,1,1,0,2,15
1012,1,-1,0.9,406,0.369,0.314,3,0,-1,0,2,16
1012,1,1,0.8,465,0.55,0.369,1,1,1,0,2,17
1012,1,1,1,337,0.238,0.087,1,1,1,0,2,18
1012,-1,-1,0.6,516,0.431,0.453,3,1,1,0,2,19
1012,1,-1,0.7,684,0.55,0.322,3,0,0,1,2,20
1012,1,-1,0.75,369,0.305,0.225,3,0,0,1,2,21
1012,1,1,0.7,554,0.549,0.469,3,1,1,0,2,22
1012,1,-1,0.7,654,0.344,0.219,3,0,-1,0,2,23
1012,1,-1,0.95,367,0.342,0.217,1,0,-1,0,2,24
1012,-1,-1,0.85,394,0.388,0.41,2,1,0,1,2,25
1012,1,-1,1,307,0.484,0.429,1,0,-1,0,2,26
1012,1,-1,0.75,828,0.265,0.211,1,0,-1,0,2,27
1012,-1,-1,0.8,500,0.463,0.485,2,1,1,0,2,28
1012,1,1,1,376,0.184,0.034,3,1,1,0,2,29
1012,1,1,0.85,442,0.658,0.43,3,1,0,1,2,30
1012,1,1,0.7,769,0.026,0.002,2,1,0,1,2,31
1012,1,1,1,328,0.344,0.117,3,1,1,0,2,32
1012,1,1,0.8,512,0.498,0.271,2,1,0,-1,2,33
1012,1,1,0.7,631,0.524,0.444,2,1,0,-1,2,34
1012,1,1,0.8,341,0.625,0.444,3,1,0,1,2,35
1012,1,-1,0.7,475,0.318,0.294,3,0,0,1,2,36
1012,1,-1,0.7,412,0.314,0.235,3,0,0,-1,2,37
1012,-1,-1,0.9,398,0.127,0.148,1,1,0,1,2,38
1012,1,-1,0.85,442,0.38,0.356,3,0,-1,0,2,39
1012,1,-1,0.6,276,0.273,0.249,3,0,-1,0,2,40
1012,1,-1,0.5,614,0.18,0.1,1,0,0,-1,2,41
1012,1,1,0.7,531,0.672,0.49,3,1,0,1,2,42
1012,1,1,1,412,0.242,0.092,1,1,1,0,2,43
1012,1,-1,0.6,680,0.092,0.068,1,0,0,-1,2,44
1012,1,1,0.65,422,0.348,0.197,3,1,0,1,2,45
1012,1,1,1,348,0.224,0.169,2,1,1,0,2,46
1012,1,1,0.55,527,0.135,0.111,1,1,0,1,2,47
1012,1,1,0.85,539,0.21,0.13,2,1,1,0,2,48
1012,1,1,1,327,0.168,0.043,3,1,1,0,2,49
1012,1,-1,0.75,541,0.372,0.348,3,0,0,-1,2,50
1012,1,1,0.8,443,0.521,0.371,1,1,0,1,2,51
1012,1,-1,0.75,764,0.215,0.191,2,0,-1,0,2,52
1012,1,1,0.85,322,0.352,0.171,2,1,1,0,2,53
1012,-1,-1,1,339,0.233,0.255,3,1,1,0,2,54
1012,1,-1,0.65,617,0.434,0.379,1,0,0,-1,2,55
1012,-1,-1,0.7,369,0.34,0.362,1,1,0,1,2,56
1012,1,-1,0.7,340,0.483,0.459,1,0,0,1,2,57
1012,1,1,0.85,306,0.6,0.449,2,1,1,0,2,58
1012,1,1,0.8,363,0.651,0.424,1,1,0,1,2,59
1012,1,1,0.75,262,0.422,0.272,1,1,0,1,2,60
1012,1,-1,0.65,525,0.341,0.261,1,0,0,-1,2,61
1012,1,1,0.75,429,0.493,0.439,3,1,0,1,2,62
1012,1,1,1,566,0.16,0.034,1,1,1,0,2,63
1012,1,1,0.8,476,0.275,0.251,2,1,0,1,2,64
1012,1,1,0.75,778,0.098,0.044,2,1,0,1,2,65
1012,1,1,1,412,0.196,0.07,3,1,1,0,2,66
1012,1,1,0.95,461,0.523,0.444,1,1,1,0,2,67
1012,1,-1,0.75,649,0.491,0.436,3,0,0,1,2,68
1012,1,1,0.7,363,0.362,0.237,3,1,1,0,2,69
1012,1,1,0.7,272,0.415,0.234,3,1,0,1,2,70
1012,1,1,1,288,0.217,0.035,1,1,1,0,2,71
1012,1,1,0.7,512,0.363,0.212,2,1,1,0,2,72
1012,1,1,0.75,370,0.576,0.348,1,1,0,1,2,73
1012,1,1,1,314,0.367,0.14,3,1,1,0,2,74
1012,1,1,0.6,541,0.524,0.373,3,1,0,1,2,75
1012,1,1,0.75,269,0.651,0.47,2,1,0,1,2,76
1012,1,1,0.7,268,0.635,0.408,2,1,1,0,2,77
1012,1,1,0.6,360,0.547,0.421,2,1,0,1,2,78
1012,1,1,0.85,299,0.419,0.293,1,1,0,1,2,79
1012,1,-1,0.6,370,0.509,0.43,2,0,0,1,2,80
1012,1,-1,0.7,427,0.626,0.475,3,0,0,1,2,81
1012,1,-1,0.7,377,0.443,0.262,2,0,-1,0,2,82
1012,1,1,0.95,292,0.377,0.149,2,1,0,1,2,83
1012,1,-1,0.9,411,0.267,0.213,2,0,0,1,2,84
1012,1,1,1,384,0.22,0.069,2,1,1,0,2,85
1012,1,1,0.9,328,0.546,0.364,1,1,1,0,2,86
1012,1,-1,0.7,397,0.406,0.382,1,0,-1,0,2,87
1012,1,-1,0.6,475,0.173,0.149,2,0,0,-1,2,88
1012,-1,-1,0.75,471,0.187,0.209,1,1,1,0,2,89
1012,1,1,0.65,381,0.656,0.428,2,1,0,1,2,90
1012,-1,-1,0.8,541,0.192,0.214,3,1,0,1,2,91
1012,1,-1,0.75,370,0.338,0.284,2,0,0,-1,2,92
1012,-1,-1,0.7,381,0.224,0.245,3,1,0,1,2,93
1012,1,1,0.75,244,0.262,0.081,1,1,0,-1,2,94
1012,1,1,0.7,176,0.554,0.428,2,1,1,0,2,95
1012,1,1,0.8,360,0.137,0.011,2,1,0,1,2,96
1013,-1,1,0.75,888,0.465,0.51,2,0,0,1,1,1
1013,-1,1,0.75,791,0.248,0.271,2,0,-1,0,1,2
1013,-1,1,0.75,475,0.165,0.17,1,0,0,1,1,3
1013,1,1,0.8,530,0.471,0.442,1,1,0,1,1,4
1013,1,1,0.85,734,0.166,0.096,3,1,1,0,1,5
1013,1,1,1,575,0.104,0,2,1,1,0,1,6
1013,-1,-1,0.7,801,0.33,0.376,3,1,0,1,1,7
1013,-1,1,0.5,624,0.203,0.283,2,0,0,1,1,8
1013,1,1,1,502,0.054,0.025,3,1,1,0,1,9
1013,1,1,0.8,391,0.486,0.417,1,1,1,0,1,10
1013,1,1,0.6,982,0.403,0.333,3,1,0,1,1,11
1013,-1,1,0.8,848,0.06,0.083,3,0,-1,0,1,12
1013,1,1,0.85,488,0.488,0.384,1,1,1,0,1,13
1013,1,1,0.85,466,0.269,0.24,2,1,0,1,1,14
