"Subj_idx","Stimulus","Response","RT_dec","Confidence","RT_conf","SOA","Accuracy","Trial"
1,1,1,0.616834999993443,0.934144881792552,1.80396499997005,48.6,1,1
1,2,2,0.581650000007357,0.356019377341472,1.34106000000611,48.6,1,2
1,2,1,0.596495000005234,0.24513657773059,1.20745500002522,43.74,0,3
1,1,1,0.487644999986514,1,1.22351999999955,48.6,1,4
1,2,2,0.559654999990016,0.871501341052466,1.99583999998868,48.6,1,5
1,1,1,0.625404999998864,1,1.99098999996204,43.74,1,6
1,1,1,0.704194999998435,0.800369022031431,0.866589999990538,43.74,1,7
1,2,2,1.12706999998773,0.017259895182854,1.39594499999657,39.366,1,8
1,2,2,0.685400000016671,0.358886773186007,1.00182000000495,39.366,1,9
1,1,1,0.559540000045672,0.748532970356445,0.780089999956544,35.4294,1,10
1,2,2,0.699840000015683,0.747052146972519,2.12328500003787,35.4294,1,11
1,1,1,0.513789999997243,0.688328483279973,1.84166499995627,31.88646,1,12
1,1,1,0.618705000029877,0.546067423193042,0.920924999983981,31.88646,1,13
1,2,2,0.58689500001492,0.791297906854743,0.781474999967031,28.697814,1,14
1,1,1,0.519334999960847,0.169327725322007,1.18153500003973,28.697814,1,15
1,2,2,0.958459999994375,0,1.56144999997923,25.8280326,1,16
1,1,1,0.566554999968503,0.850363432771223,1.12445499998285,25.8280326,1,17
1,2,2,1.85676500003319,0,1.56650499999523,23.24522934,1,18
1,1,1,0.573295000009239,0.885164342057569,1.29132999997819,23.24522934,1,19
1,2,2,0.599509999970905,0.306173981788006,1.20696500001941,20.920706406,1,20
1,1,1,0.610574999998789,0,1.83359499997459,20.920706406,1,21
1,2,2,0.769619999977294,0.598889054913724,0.909745000011753,18.8286357654,1,22
1,1,1,0.937045000027865,0,0.854814999969676,18.8286357654,1,23
1,2,2,1.10139999998501,0,1.75245000002906,16.94577218886,1,24
1,2,2,1.00991499994416,0,1.33869000000414,16.94577218886,1,25
1,1,2,0.820355000032578,0,1.54898500000127,15.251194969974,0,26
1,1,1,0.567890000005718,0,1.50792499998352,16.94577218886,1,27
1,2,2,0.893540000019129,0,2.40534499997739,16.94577218886,1,28
1,1,1,0.734725000045728,0.025432882678271,1.64291499997489,15.251194969974,1,29
1,2,2,0.871449999976903,0,1.42856500000926,15.251194969974,1,30
1,1,2,0.893764999986161,0,1.1378600000171,13.7260754729766,0,31
1,2,2,0.870055000006687,0,1.21309000003384,15.251194969974,1,32
1,2,2,1.26048500003526,0.113308440595411,1.69729999999981,15.251194969974,1,33
1,1,1,0.547159999958239,0.190684372030782,0.972119999991264,13.7260754729766,1,34
1,2,2,0.855379999964498,0.163265306122448,1.94426500005648,13.7260754729766,1,35
1,1,2,0.75052499998128,0.130015933607232,1.25007499998901,12.3534679256789,0,36
1,1,1,0.718789999955334,0.172718734822944,0.934210000035819,13.7260754729766,1,37
1,2,2,0.905319999961648,0.159232698111217,0.999445000023115,13.7260754729766,1,38
1,2,2,0.732689999975264,0.027754234067815,1.32805499999085,12.3534679256789,1,39
1,1,2,0.852484999981243,0,1.97950000001583,12.3534679256789,0,40
1,1,1,2.02136499999324,0,1.39656000002287,13.7260754729766,1,41
1,2,2,0.75767999998061,0,1.00345999997808,13.7260754729766,1,42
1,1,2,0.912045000004582,0.005716528352663,1.20494500000495,12.3534679256789,0,43
1,2,2,0.835510000004433,0.085313058928549,2.233515000029,13.7260754729766,1,44
1,1,2,1.02007000002777,0.046155700536732,1.09899999998743,13.7260754729766,0,45
1,2,1,0.373620000027586,0,0.963084999995772,15.251194969974,0,46
1,1,1,2.17528500000481,0,1.06719000003068,16.94577218886,1,47
1,2,2,0.625319999991916,0,1.31052499997895,16.94577218886,1,48
1,1,1,1.52789500000654,0,1.1547450000071,15.251194969974,1,49
1,2,2,0.78434000001289,0,0.989209999970626,15.251194969974,1,50
1,2,2,0.759000000020023,0,1.01362500002142,13.7260754729766,1,51
1,1,2,1.13743500004057,0,2.03643499995815,13.7260754729766,0,52
1,2,2,0.689205000002403,0.000646415712442,0.933614999987185,15.251194969974,1,53
1,1,1,0.752555000013672,0.532636276860212,2.00365000002785,15.251194969974,1,54
1,2,2,0.93405999999959,0.071940862637373,0.76058500004001,13.7260754729766,1,55
1,1,2,0.609029999992345,0.210098551593818,0.942964999994729,13.7260754729766,0,56
1,2,1,0.631394999974873,0.072263786406012,1.27241000003414,15.251194969974,0,57
1,1,1,0.634584999992512,0.723255090225944,1.32108500000322,16.94577218886,1,58
1,1,1,0.768465000030119,0.73070336693834,1.1543599999859,16.94577218886,1,59
1,2,2,0.715915000007953,0.137048171584231,1.45161499996902,15.251194969974,1,60
1,2,2,0.687510000017937,0.022799940978039,1.19790999998804,15.251194969974,1,61
1,1,1,0.568399999989197,0.397306327377015,1.61556499998551,13.7260754729766,1,62
1,2,2,0.668914999987464,0,1.35477999999421,13.7260754729766,1,63
1,1,1,0.587774999963585,0.397306327377015,1.17460500000743,12.3534679256789,1,64
1,1,1,0.624279999989085,0.904320076456808,1.03516500000842,12.3534679256789,1,65
1,2,1,1.23711500002537,0.316565823262667,0.867744999995921,11.1181211331111,0,66
1,2,2,0.784015000041109,0.128741017383362,1.29444500000682,12.3534679256789,1,67
1,1,1,0.489520000002813,1,1.41037500003586,12.3534679256789,1,68
1,2,1,0.60341999999946,0.116182758702854,0.966700000048149,11.1181211331111,0,69
1,1,1,0.588700000022072,0.628944468227637,1.45563499996206,12.3534679256789,1,70
1,2,2,0.51923999999417,0.073657557317544,1.62325000000419,12.3534679256789,1,71
1,1,1,0.90505999996094,0,0.983810000005178,11.1181211331111,1,72
1,1,1,0.756609999982174,0.902639426037449,1.03155999997398,11.1181211331111,1,73
1,2,2,0.606084999977611,0.487450850878829,1.77643000002718,10.0063090197999,1,74
1,1,1,0.542849999968894,0.598483413650355,0.93092000001343,10.0063090197999,1,75
1,2,2,1.26278500002809,0.685009138861295,1.09305500000482,9.00567811781995,1,76
1,1,1,0.554330000013579,0.419181022196866,0.869379999989178,9.00567811781995,1,77
1,2,2,0.552540000004228,0.863876629372862,0.905009999987669,8.10511030603796,1,78
1,2,2,0.522100000001956,0.52102709653093,1.39974000002258,8.10511030603796,1,79
1,1,1,0.50468000001274,0.679822219214137,1.23236499994528,7.29459927543416,1,80
1,2,1,1.09248999995179,0.753503008344753,1.49776500003645,7.29459927543416,0,81
1,1,1,0.582424999971408,0.764662565933112,1.22000500001013,8.10511030603796,1,82
1,1,1,0.603104999987409,0.71185271801518,1.1382900000317,8.10511030603796,1,83
1,2,2,0.608249999990221,0.38359612010737,0.841805000032764,7.29459927543416,1,84
1,2,2,0.751630000013392,0.165149154358415,0.90632499998901,7.29459927543416,1,85
1,1,1,0.795380000025034,0.44407223428906,0.899694999970961,6.56513934789075,1,86
1,1,1,0.935735000006389,1,1.17643500003032,6.56513934789075,1,87
1,2,2,0.568054999981541,0.662798739804921,1.35359499999322,5.90862541310167,1,88
1,1,1,0.494620000012219,0.659114143068661,1.59799500001827,5.90862541310167,1,89
1,2,2,0.688829999999143,0.457364945708275,2.35035999998217,5.3177628717915,1,90
1,1,1,0.723709999991115,0.316162732186049,1.28832499997225,5.3177628717915,1,91
1,2,2,0.700554999988526,0.296168783680613,0.934110000031069,4.78598658461235,1,92
1,2,2,1.81741999997757,0,0.888840000028722,4.78598658461235,1,93
1,1,2,1.88699500000803,0,1.1571549999644,4.30738792615112,0,94
1,2,1,0.861399999994319,0,1.32232500001555,4.78598658461235,0,95
1,1,1,0.585559999977704,0.788097164329578,2.25,5.3177628717915,1,96
2,2,2,1.69271500012837,0.100239025649056,2.38363499986008,60,1,1
2,1,1,1.70672499993816,0,1.22167499992065,54,1,2
2,2,2,0.823245000094175,0.773568115322389,1.74914499977604,54,1,3
2,1,1,1.00527500011958,0.394945180300744,1.70078499987721,48.6,1,4
2,2,2,1.30579499993473,0.85883054401792,2.22031000000425,48.6,1,5
2,1,1,0.807860000059009,1,1.4310899998527,43.74,1,6
2,2,2,0.937325000064448,0.514054691014556,1.815139999846,43.74,1,7
2,1,1,1.12436000001617,0.292357538822403,1.70258000004105,39.366,1,8
2,2,1,1.57695500017144,0.129336721411463,1.34352499991655,39.366,0,9
2,1,1,0.904369999887422,0.547711196558719,2.05254999990575,43.74,1,10
2,1,1,0.834574999986216,1,1.22007999988273,43.74,1,11
2,2,2,2.47142000007443,0.006957248609151,1.13947000005282,39.366,1,12
2,1,1,0.854284999892116,0.847633998541567,1.42345500015654,39.366,1,13
2,2,2,90.3966099999379,0,1.16553499992006,35.4294,1,14
2,1,1,1.6249700000044,0.785708056095322,1.35833000019193,35.4294,1,15
2,2,2,1.52140999981202,0,1.08890000008978,31.88646,1,16
2,2,2,1.19326999993064,0.696114481269161,1.54924000008032,31.88646,1,17
2,1,1,0.753229999914765,1,1.44233500002883,28.697814,1,18
2,1,1,0.869315000018105,1,1.13949500001036,28.697814,1,19
2,2,2,0.635544999968261,0.670544647230695,1.20346500002779,25.8280326,1,20
2,1,1,1.05101499985904,0.613102411909366,1.24481000006199,25.8280326,1,21
2,2,1,1.18965999991633,0.595637686122726,0.988575000083074,23.24522934,0,22
2,2,2,0.872509999899194,0.100999296992311,1.14781500003301,25.8280326,1,23
2,1,1,1.28452500002459,0.446825385925696,1.17789000016637,25.8280326,1,24
2,2,2,0.916294999886304,0.391102298045997,1.10318499989808,23.24522934,1,25
2,1,1,1.14048499986529,0.9932176461574,0.916315000038594,23.24522934,1,26
2,1,2,0.734345000004396,0.718298564705589,1.25921500008553,20.920706406,0,27
2,2,2,0.83655000012368,0.505260483779667,1.20004499983042,23.24522934,1,28
2,1,1,1.82862000004388,0.199516449854737,1.50738999992609,23.24522934,1,29
2,2,2,0.936914999969304,0.287922182285375,1.01964999991469,20.920706406,1,30
2,2,2,0.900930000003427,0.146558467839219,0.989300000015646,20.920706406,1,31
2,1,1,1.19622999988496,0.995069539546991,0.957110000075772,18.8286357654,1,32
2,2,1,1.05688500008546,0.169846120668332,1.59317500004545,18.8286357654,0,33
2,1,1,0.732480000006035,1,1.50247499998659,20.920706406,1,34
2,1,2,0.822524999966845,0.108935449296894,1.13292000000365,20.920706406,0,35
2,2,2,0.700930000049993,0.879816080161422,0.986419999971986,23.24522934,1,36
2,2,2,0.956779999891296,0.232773814755878,1.0652499999851,23.24522934,1,37
2,1,1,0.738985000178218,1,0.985514999832958,20.920706406,1,38
2,2,2,0.859704999951646,0.513102976431437,0.93659000005573,20.920706406,1,39
2,1,1,0.789730000076815,1,0.900374999968335,18.8286357654,1,40
2,1,2,1.47187999985181,0.164547578984898,0.883015000028536,18.8286357654,0,41
2,2,2,0.804125000024214,0.535814443701998,1.01854000007734,20.920706406,1,42
2,1,1,1.00507499999367,1,0.898159999866039,20.920706406,1,43
2,2,1,1.52253499999642,0.208587519811958,1.15731499996036,18.8286357654,0,44
2,1,1,1.07127999980003,0.585510683772744,1.11639500013553,20.920706406,1,45
2,2,2,0.609409999800846,0.383771897495562,1.05771500011906,20.920706406,1,46
2,1,1,1.05682499986142,1,0.768090000143275,18.8286357654,1,47
2,2,2,1.54147500009276,0.539079595973211,1.23105499986559,18.8286357654,1,48
2,1,1,1.21623499994166,1,1.12019000016153,16.94577218886,1,49
2,2,2,0.844254999887198,0.39666340296322,0.859090000158176,16.94577218886,1,50
2,2,1,0.939585000043735,0.789190125630146,1.3731549999211,15.251194969974,0,51
2,1,2,25.1150050000288,0,0.865505000110716,16.94577218886,0,52
2,1,2,1.53011499997228,0.029373998655403,1.20797000010498,18.8286357654,0,53
2,2,1,1.10920999990776,0.283060567142817,1.09846500004642,20.920706406,0,54
2,2,1,1.15688999998383,0.341284444861444,1.04098499985412,23.24522934,0,55
2,1,1,1.08935499982908,0.386270380479729,1.05049500009045,25.8280326,1,56
2,1,1,0.939645000034943,0.964315756617176,0.820529999909922,25.8280326,1,57
2,2,2,0.787569999927655,0.373433087374429,0.980960000073537,23.24522934,1,58
2,2,1,0.856314999982715,0.972664668685507,1.03804000001401,23.24522934,0,59
2,1,1,0.8719300001394,0.478131069098037,0.985694999806583,25.8280326,1,60
2,1,1,1.08172499993816,0.577878234708064,0.843140000011772,25.8280326,1,61
2,2,2,0.86985499993898,0.204014932897468,0.832530000014231,23.24522934,1,62
2,1,1,1.4182949999813,0.378073189634738,0.707040000008419,23.24522934,1,63
2,2,1,0.858765000011772,0.571460964603993,0.818320000078529,20.920706406,0,64
2,2,1,1.10896500013769,0.321425456619089,1.06625499995425,23.24522934,0,65
2,1,1,0.763004999840632,0.29257014981783,0.744984999997541,25.8280326,1,66
2,1,1,0.987499999813735,0.0149307959829,0.89841500017792,25.8280326,1,67
2,2,2,0.853920000139624,0.115646258503401,1.03859499981627,23.24522934,1,68
2,2,1,0.864754999987781,0.494133328474537,0.792679999954998,23.24522934,0,69
2,1,1,1.17159000015818,0.391275605236832,0.948875000001863,25.8280326,1,70
2,2,2,0.717554999981076,0.408205255811663,1.55609000008553,25.8280326,1,71
2,1,1,0.743574999971315,0.992708355420813,1.1431899999734,23.24522934,1,72
2,2,2,0.770149999996647,0.603894503404766,0.85422999993898,23.24522934,1,73
2,1,1,0.987059999955818,0.977032745491297,0.998394999885932,20.920706406,1,74
2,2,2,0.698185000102967,0.711500712545202,0.974504999816418,20.920706406,1,75
2,1,1,0.727244999958202,1,1.21362500009127,18.8286357654,1,76
2,2,1,1.08785999985412,0.984384737174377,0.974864999996498,18.8286357654,0,77
2,1,1,1.40541499992833,0.769240376271167,0.846815000055358,20.920706406,1,78
2,1,2,0.662895000074059,0.687882956614188,1.11425000010058,20.920706406,0,79
2,2,2,1.17364499997348,0.068027210884353,0.948639999842271,23.24522934,1,80
2,1,2,1.15446000010706,0.150843988366297,1.06494999979623,23.24522934,0,81
2,2,1,0.685844999970868,0.509211263473293,0.90707499999553,25.8280326,0,82
2,2,2,1.17445999989286,0.236634712407655,0.87745500006713,28.697814,1,83
2,1,1,0.720170000102371,1,0.867279999889433,28.697814,1,84
2,1,1,0.805685000028461,1,0.737440000055358,25.8280326,1,85
2,2,2,0.693810000084341,0.320377694863488,0.728750000009313,25.8280326,1,86
2,2,1,0.835015000076964,0.628284629166981,0.934264999814332,23.24522934,0,87
2,1,1,0.734230000060052,0.474056274762156,0.877534999977797,25.8280326,1,88
2,1,1,1.51043999986723,0.059058803804841,0.87652499997057,25.8280326,1,89
2,2,2,0.730405000038445,0.987807492421405,0.958600000012666,23.24522934,1,90
2,1,1,1.33706000004895,0.434733538697343,0.648674999829382,23.24522934,1,91
2,2,1,1.46873500011861,0.329674965627544,0.767519999993965,20.920706406,0,92
2,2,2,1.09410500014201,0.294902055597174,0.861719999928027,23.24522934,1,93
2,1,1,1.00456000003032,1,1.0243049999699,23.24522934,1,94
2,1,2,1.20225999993272,0.079977406179036,0.883459999924526,20.920706406,0,95
2,2,1,0.872230000095442,1,0.797774999868125,23.24522934,0,96
3,1,1,0.83,0.336095004464814,1.471,48.6,1,1
3,2,2,1.099,0.291239622681464,1.425,48.6,1,2
3,2,2,1.095,0.169846120668332,1.082,43.74,1,3
3,1,1,0.594,1,1.357,43.74,1,4
3,2,2,0.750999999999971,0.100999296992311,0.95,39.366,1,5
3,1,2,1.382,0.216336837617526,1.092,39.366,0,6
3,2,2,0.814999999999971,0.151473573507264,0.928,43.74,1,7
3,1,1,0.56,0.108107030553696,0.987,43.74,1,8
3,2,2,0.757,0.304315059307341,1.142,39.366,1,9
3,1,1,0.525,0.822769886206209,1.123,39.366,1,10
3,1,1,0.668,0.347882688350243,0.754,35.4294,1,11
3,2,1,1.065,0.219990077635226,0.915,35.4294,0,12
3,2,2,0.661,0.281591224212421,0.79,39.366,1,13
3,1,1,0.556,0.191100345813158,0.85,39.366,1,14
3,2,2,0.685,0.177376933222852,0.844,35.4294,1,15
3,1,1,0.639999999999971,0.177738004570018,0.988,35.4294,1,16
3,2,2,0.718000000000029,0.3401839585327,0.851999999999971,31.88646,1,17
3,1,1,0.497,0.911893738411662,1.052,31.88646,1,18
3,2,2,0.64,0.281809225442547,0.794,28.697814,1,19
3,1,1,0.525000000000029,0.679456502653691,1.15599999999997,28.697814,1,20
3,2,2,0.831999999999971,0.182324310278016,0.933,25.8280326,1,21
3,1,1,0.669,0.76295269474172,1.079,25.8280326,1,22
3,2,2,0.883,0.39071215105109,0.946,23.24522934,1,23
3,1,1,1.185,0.751901118228973,0.92,23.24522934,1,24
3,1,1,0.878,0.657959229903308,1.22700000000003,20.920706406,1,25
3,2,1,0.787,0.91638136165908,1.041,20.920706406,0,26
3,1,2,1.331,0.851387947890934,1.34000000000003,23.24522934,0,27
3,2,2,0.916,0.497647135774498,0.792,25.8280326,1,28
3,2,1,0.642000000000029,0.544722654067661,0.891999999999971,25.8280326,0,29
3,1,1,0.677,0.727519053146228,0.921,28.697814,1,30
3,1,1,0.668000000000029,0.814974683015559,1.27199999999997,28.697814,1,31
3,2,2,0.859999999999971,0.8449438717989,1.034,25.8280326,1,32
3,2,2,0.791,0.714015722513765,0.969,25.8280326,1,33
3,1,1,0.515999999999971,1,1.593,23.24522934,1,34
3,1,1,0.564000000000029,0.929839439713218,0.966999999999971,23.24522934,1,35
3,2,2,0.661,0.360406305800862,1.075,20.920706406,1,36
3,2,2,1.10400000000006,0.20274519172464,1.01499999999994,20.920706406,1,37
3,1,1,0.716,0.252637873571391,0.879,18.8286357654,1,38
3,2,2,0.978,0.040816326530612,0.715,18.8286357654,1,39
3,1,1,0.699,0.804505730350055,1.553,16.94577218886,1,40
3,1,1,0.797,0.681648368768744,0.946,16.94577218886,1,41
3,2,1,0.677,0.296326867797795,0.839,15.251194969974,0,42
3,2,2,0.849,0.13279999441299,0.714,16.94577218886,1,43
3,1,1,0.578,0.435734181631698,0.919,16.94577218886,1,44
3,2,1,0.906,0.688857236221927,0.768,15.251194969974,0,45
3,1,1,0.717999999999942,0.078727856801392,1.312,16.94577218886,1,46
3,2,2,0.715999999999942,0,0.826,16.94577218886,1,47
3,1,1,0.826,0.055241085422599,0.84,15.251194969974,1,48
3,2,2,0.881,0,0.816,15.251194969974,1,49
3,1,1,0.599,0.0545390221571,1.26,13.7260754729766,1,50
3,2,1,0.66,0.238702140472929,0.894000000000058,13.7260754729766,0,51
3,1,1,0.669,0.041319542458243,0.904,15.251194969974,1,52
3,1,1,1.148,0.142857142857142,1.06,15.251194969974,1,53
3,2,2,0.848,0.054890365357124,0.935,13.7260754729766,1,54
3,2,2,0.79,0,1.343,13.7260754729766,1,55
3,1,1,0.638,0.26314621255447,1.046,12.3534679256789,1,56
3,2,2,1.126,0.022799940978039,0.757,12.3534679256789,1,57
3,1,1,0.732000000000058,0.030578895020162,0.923999999999942,11.1181211331111,1,58
3,1,1,0.952,0,0.878,11.1181211331111,1,59
3,2,1,0.772,0,1.085,10.0063090197999,0,60
3,1,2,1.001,0,0.848,11.1181211331111,0,61
3,2,1,1.285,0.115646258503401,0.841,12.3534679256789,0,62
3,1,2,0.966000000000058,0.045296825659038,0.968999999999942,13.7260754729766,0,63
3,2,1,1.233,0.115646258503401,1.248,15.251194969974,0,64
3,1,1,0.645999999999942,0.564658554974069,1.716,16.94577218886,1,65
3,2,2,0.758,0.707482993197278,0.974,16.94577218886,1,66
3,2,1,0.775,0.186214601971369,0.952,15.251194969974,0,67
3,1,1,0.918,0.219990077635226,1.066,16.94577218886,1,68
3,2,1,0.629,0.090922996971967,0.896,16.94577218886,0,69
3,1,1,0.731,0.0545390221571,1.62,18.8286357654,1,70
3,1,2,1.048,0.06846564036747,0.974000000000058,18.8286357654,0,71
3,2,2,0.939,0.088535392540067,1.078,20.920706406,1,72
3,2,1,0.93,0.048104338062832,1.101,20.920706406,0,73
3,1,1,0.768,0.217943689963976,0.908,23.24522934,1,74
3,1,2,0.773,0.088835188652059,0.915000000000058,23.24522934,0,75
3,2,1,0.801000000000058,0.129591624414976,0.988,25.8280326,0,76
3,1,1,0.694,0.211145900170277,0.866,28.697814,1,77
3,2,1,0.915,0.279405021845945,0.832,28.697814,0,78
3,2,2,1.131,0.319727891156462,0.955,31.88646,1,79
3,1,1,1.532,0.068136903663548,1.17100000000006,31.88646,1,80
3,2,2,1.233,0,1.58600000000012,28.697814,1,81
3,1,1,0.585,0.914457300532119,0.896,28.697814,1,82
3,2,2,0.810000000000116,0.594132216460933,1.024,25.8280326,1,83
3,1,1,0.719,0.435374149659863,0.837,25.8280326,1,84
3,1,1,1.56799999999988,0.146158446071401,1.27300000000012,23.24522934,1,85
3,2,2,0.515000000000116,0.734904789293633,0.767999999999884,23.24522934,1,86
3,2,2,0.891999999999884,0.892453536631646,0.671,20.920706406,1,87
3,1,1,0.632,0.929839439713218,1.267,20.920706406,1,88
3,1,1,0.94,0.368615203719303,0.792,18.8286357654,1,89
3,2,2,0.499,0.645437057788896,0.717,18.8286357654,1,90
3,2,1,0.824999999999884,0.38231997457466,1.19,16.94577218886,0,91
3,1,2,1.064,0.243223499963611,0.8,18.8286357654,0,92
3,1,1,0.591,0.402931406354672,0.773,20.920706406,1,93
3,2,2,0.806000000000116,0.030578895020162,0.791999999999884,20.920706406,1,94
3,2,2,1.107,0.022660204906073,0.895,18.8286357654,1,95
3,1,1,0.565,0,0.874,18.8286357654,1,96
4,1,1,1.24183500005165,1,6.43280999996932,82.3045267489712,1,1
4,2,1,2.49558500002604,1,3.64006499998504,82.3045267489712,0,2
4,2,2,1.91417000000365,1,2.33600499999011,91.4494741655236,1,3
4,1,1,1.98509499995271,1,1.05592000001343,91.4494741655236,1,4
4,2,2,1.22354999999516,1,0.793475000013132,82.3045267489712,1,5
4,1,2,1.46276999998372,1,4.49687000003178,82.3045267489712,0,6
4,1,1,0.96882499998901,1,1.99219000001904,91.4494741655236,1,7
4,2,1,4.0671399999992,1,2.05606500001159,91.4494741655236,0,8
4,1,1,1.82217999995919,0,2.30464500002563,101.610526850582,1,9
4,2,2,1.75441999995383,0.410217050998036,1.24747000000207,101.610526850582,1,10
4,2,2,3.56956500001252,1,2.00016499997582,91.4494741655236,1,11
4,1,1,1.58793500001775,1,4.91209499997785,91.4494741655236,1,12
4,1,1,1.23262500000419,1,1.55155499995453,82.3045267489712,1,13
4,2,2,0.880550000001676,1,0.919945000030566,82.3045267489712,1,14
4,1,1,1.20853000000352,1,1.22440999996616,74.0740740740741,1,15
4,2,2,1.44705499999691,1,1.88790500001051,74.0740740740741,1,16
4,1,1,1.39915999997174,1,1.50448499998311,66.6666666666667,1,17
4,2,2,0.743780000018887,1,0.807099999976344,66.6666666666667,1,18
4,1,1,0.856970000022557,1,0.856380000011995,60,1,19
4,2,2,1.06076999998186,1,0.848380000039469,60,1,20
4,2,1,1.19307999999728,1,1.11968499998329,54,0,21
4,1,2,1.56468999997014,1,1.11222500004806,60,0,22
4,2,2,2.36965000000782,1,1.34392999997362,66.6666666666667,1,23
4,1,2,1.43760000000475,1,1.06381000002148,66.6666666666667,0,24
4,2,2,1.28935500001535,1,1.41583000001265,74.0740740740741,1,25
4,1,1,0.925625000032596,1,1.44038499996532,74.0740740740741,1,26
4,2,2,0.78241500002332,1,0.695829999982379,66.6666666666667,1,27
4,1,1,0.7719550000038,1,0.919920000014827,66.6666666666667,1,28
4,2,1,1.07194499997422,1,0.777660000021569,60,0,29
4,1,1,0.726395000005141,1,0.887494999973569,66.6666666666667,1,30
4,1,1,0.725854999967851,1,0.847669999988284,66.6666666666667,1,31
4,2,2,0.694450000009965,1,1.44775499997195,60,1,32
4,1,1,0.890504999959376,1,1.09569000004558,60,1,33
4,2,2,1.07100499997614,1,0.840030000021216,54,1,34
4,1,1,0.739274999999907,1,1.52044499997282,54,1,35
4,2,2,0.88890999997966,1,0.727935000031721,48.6,1,36
4,2,1,1.46422999998322,1,0.968685000028927,48.6,0,37
4,1,1,0.806489999988116,1,0.848109999962617,54,1,38
4,1,2,1.31632500002161,1,0.847790000028908,54,0,39
4,2,1,0.686240000010002,1,0.775995000032708,60,0,40
4,1,1,0.819190000009257,1,0.872249999956694,66.6666666666667,1,41
4,2,2,1.90476500004297,1,1.29583999997703,66.6666666666667,1,42
4,1,1,0.704254999989644,1,0.735809999983758,60,1,43
4,2,2,0.838274999987334,1,1.46385000000009,60,1,44
4,2,1,0.85847500001546,1,1.32822999998461,54,0,45
4,1,1,0.754684999992605,1,0.911895000026561,60,1,46
4,2,2,1.68038999999408,1,0.935720000008587,60,1,47
4,1,1,0.647010000015143,1,0.752399999997579,54,1,48
4,2,1,1.57639499998186,1,1.52006000000983,54,0,49
4,1,1,2.49612999998499,0.487487559652265,1.47170500003267,60,1,50
4,1,1,1.23303499998292,0.971315602323755,1.62404999998398,60,1,51
4,2,2,1.58324000000721,0.068136903663548,1.37653000000864,54,1,52
4,2,1,1.41730500000995,0.996431097439908,2.34394499997143,54,0,53
4,1,1,1.37975999998162,0.322172412536397,1.25526500004344,60,1,54
4,2,1,2.34623999998439,0,1.29582499997923,60,0,55
4,1,1,1.14430500002345,0.791570331085321,2.86451499996474,66.6666666666667,1,56
4,1,2,1.52841999998782,0,1.52845500002149,66.6666666666667,0,57
4,2,2,1.16687499999534,0.109577895445979,1.68775500002084,74.0740740740741,1,58
4,1,1,0.844485000008717,1,1.00005000003148,74.0740740740741,1,59
4,2,2,1.20279500004835,1,0.904234999965411,66.6666666666667,1,60
4,2,1,0.991505000041798,0.761674565365695,1.35946999996668,66.6666666666667,0,61
4,1,1,0.736529999994673,1,0.880270000023302,74.0740740740741,1,62
4,2,2,0.798650000011548,1,1.29593500000192,74.0740740740741,1,63
4,1,1,0.700264999992214,1,0.703715000010561,66.6666666666667,1,64
4,2,1,0.903400000010151,0,1.12861499999417,66.6666666666667,0,65
4,1,1,1.01547500002198,1,0.607389999961015,74.0740740740741,1,66
4,1,1,0.710565000015777,1,0.943939999968279,74.0740740740741,1,67
4,2,2,0.900655000004917,0.824995801333746,2.19198499998311,66.6666666666667,1,68
4,1,1,0.984370000020135,1,1.14418000000296,66.6666666666667,1,69
4,2,2,1.01253499998711,0.253339313702341,1.48000999999931,60,1,70
4,1,1,1.00918499997351,0.800000981633123,1.66338500002166,60,1,71
4,2,1,1.31777500000317,0,1.35216500004753,54,0,72
4,2,1,1.483174999943,0.776517462236801,1.16780000005383,60,0,73
4,1,2,1.52122500003316,0,1.63212500000373,66.6666666666667,0,74
4,1,1,1.25089500000468,0.232835408747866,0.960109999985434,74.0740740740741,1,75
4,2,1,1.72323499998311,0.482771330090798,1.4638650000561,74.0740740740741,0,76
4,2,1,1.06641000002855,0.835647544890303,1.5519000000204,82.3045267489712,0,77
4,1,1,0.850250000017695,1,0.65590000001248,91.4494741655236,1,78
4,1,1,1.1906650000019,1,1.03219499997795,91.4494741655236,1,79
4,2,2,0.76607499999227,0.609820216921019,1.06393000000389,82.3045267489712,1,80
4,2,1,1.59393999999156,1,1.62394499999937,82.3045267489712,0,81
4,1,1,0.770814999996219,1,0.759965000033844,91.4494741655236,1,82
4,1,1,0.806049999955576,1,0.543835000018589,91.4494741655236,1,83
4,2,2,0.848284999956377,1,1.14375500002643,82.3045267489712,1,84
4,2,2,1.55222499999218,1,0.847850000020117,82.3045267489712,1,85
4,1,1,0.720470000000205,0.303071472559792,0.896245000010822,74.0740740740741,1,86
4,1,1,0.974830000021029,1,0.848389999999199,74.0740740740741,1,87
4,2,2,1.81458499998553,0.225307731366933,0.823864999983925,66.6666666666667,1,88
4,2,1,1.03649999998743,0.432525998742598,1.00008999998681,66.6666666666667,0,89
4,1,1,0.779194999951869,1,0.70421500003431,74.0740740740741,1,90
4,2,2,1.00791500002379,0,2.07998499996029,74.0740740740741,1,91
4,1,1,0.772389999998268,0.893860588716202,1.27240999997593,66.6666666666667,1,92
4,2,2,1.47472499997821,0.021678729557113,1.36846500000684,66.6666666666667,1,93
4,1,1,0.641490000009071,0.986722352227908,1.08796999999322,60,1,94
4,2,2,0.749124999972992,0.949525156680349,1.22322000004351,60,1,95
4,1,2,1.35795000003418,0.606431010232074,1.55965000001015,54,0,96
5,2,1,1.70058500001323,0.185440231619419,5.74887999999919,48.6,0,1
5,1,2,1.86189499998,0.127973186903324,1.66330000001471,54,0,2
5,1,1,1.57423500000732,0.20274519172464,3.02874000000884,60,1,3
5,2,2,1.66922500001965,0.097655367750526,1.44850499997847,60,1,4
5,2,1,2.20303000000422,0.338984926992239,1.80744000000414,54,0,5
5,1,1,1.13365499998326,0.639307883091418,1.39312500000233,60,1,6
5,2,1,1.56551499999478,0.55225314000144,3.36978000000818,60,0,7
5,1,1,1.17508000001544,0.525646504251395,1.42965000000549,66.6666666666667,1,8
5,2,2,0.947214999992866,0.289530573661787,1.85167000000365,66.6666666666667,1,9
5,1,1,2.20808000001125,0.24160193608013,1.20856499997899,60,1,10
5,1,2,1.07565999997314,0,2.33832999999868,60,0,11
5,2,1,3.15442500001518,0.027346884397235,2.05892499999027,66.6666666666667,0,12
5,2,2,2.06424000000698,0,1.86640500000794,74.0740740740741,1,13
5,1,1,1.34786500001792,0.40407486373447,1.3185999999987,74.0740740740741,1,14
5,1,1,1.23875499999849,0.672249655648747,2.99158499998157,66.6666666666667,1,15
5,2,2,1.24023999998462,0.095335257143014,1.57479000001331,66.6666666666667,1,16
5,1,1,1.14035000000149,0.897670139047558,1.43705499998759,60,1,17
5,2,1,1.61022500001127,0.295324705175181,1.1427299999923,60,0,18
5,1,1,1.21024000001489,0.907717361325204,1.48949000000721,66.6666666666667,1,19
5,2,2,1.68082500001765,0.134723887933376,1.22407499997644,66.6666666666667,1,20
5,2,1,1.24055499999668,1,1.91635000001406,60,0,21
5,1,1,1.10060500001418,0.896913796294816,1.48345499997959,66.6666666666667,1,22
5,1,1,1.05504000000656,0.826309797024918,1.07792999999947,66.6666666666667,1,23
5,2,1,1.54135500002303,0.651227610544641,3.30794499997864,60,0,24
5,1,1,1.02591499997652,0.734351037813054,1.52790500002448,66.6666666666667,1,25
5,2,2,1.01865000001271,0.274111371992434,1.3388799999957,66.6666666666667,1,26
5,2,1,1.1608750000014,0.42078432344156,1.28628000000026,60,0,27
5,1,1,1.77328500000294,0,2.05525000000489,66.6666666666667,1,28
5,2,2,0.944315000000643,0.045296825659038,1.33127999998396,66.6666666666667,1,29
5,1,1,1.07453499999247,0.549885693502093,1.14203499999712,60,1,30
5,2,1,1.13401999999769,0.39071215105109,1.15188499999931,60,0,31
5,1,1,1.2721850000089,0.496055638608629,1.37090999999782,66.6666666666667,1,32
5,2,1,1.56622999999672,0.840247857493328,1.14582999999402,66.6666666666667,0,33
5,1,1,0.944555000023684,0.889723317606001,1.21778999999515,74.0740740740741,1,34
5,2,1,1.16490500001237,0.784336522416862,1.66120499998215,74.0740740740741,0,35
5,1,1,1.06441500000074,0.823057389297851,1.37201500000083,82.3045267489712,1,36
5,2,1,1.38170999998692,0.80154578747098,1.54919000001973,82.3045267489712,0,37
5,1,1,1.14697999999044,0.814491417684154,1.85062000001199,91.4494741655236,1,38
5,1,1,1.11520000000019,0.846932931230846,1.65306499999133,91.4494741655236,1,39
5,2,1,0.936819999973522,0.782412959777921,1.36614500000724,82.3045267489712,0,40
5,2,1,1.32570000001579,0.795425287051247,1.87721999999485,91.4494741655236,0,41
5,1,1,1.11492500000168,0.87947664112247,1.31754500002717,101.610526850582,1,42
5,2,1,0.979954999987967,0.98047790217513,1.35615500001586,101.610526850582,0,43
5,1,1,0.932270000019344,0.965485467586923,1.72011999998358,112.900585389535,1,44
5,1,1,0.821865000005346,0.933607643257277,1.17731999998796,112.900585389535,1,45
5,2,1,2.05265500000678,0.566226603508211,2.41029999998864,101.610526850582,0,46
5,2,2,1.25104000000283,0.437610720543995,1.27479999998468,112.900585389535,1,47
5,1,1,1.19870500001707,0.693877551020408,1.11878499999875,112.900585389535,1,48
5,1,1,1.44760499999393,1,3.07805000001099,101.610526850582,1,49
5,2,2,1.19943999999668,0.043939186635999,1.53998499998124,101.610526850582,1,50
5,2,1,1.29835500000627,0.201605140167949,1.07077500000014,91.4494741655236,0,51
5,1,1,1.04755499999737,0.941851613544351,1.42616499998257,101.610526850582,1,52
5,1,1,0.979454999993322,0.889768133493718,1.46361999999499,101.610526850582,1,53
5,2,2,1.06698000000324,0.446943090946087,1.1704150000005,91.4494741655236,1,54
5,1,1,0.986149999982445,0.923175050785414,1.31729000000632,91.4494741655236,1,55
5,2,2,1.11798499998986,0.603119462566711,1.03207499999553,82.3045267489712,1,56
5,1,1,0.966290000011213,0.909807621057586,1.1412399999972,82.3045267489712,1,57
5,2,2,1.18382999999449,0.768631329949315,1.08368499999051,74.0740740740741,1,58
5,2,2,0.824919999984559,0.691440508277114,1.43785000001662,74.0740740740741,1,59
5,1,1,0.896065000008093,0.776517462236801,1.20827999999165,66.6666666666667,1,60
5,2,2,0.825774999975692,0.629933170450351,2.79745000001276,66.6666666666667,1,61
5,1,1,0.814744999981485,0.760778799147866,1.05017999999109,60,1,62
5,2,2,1.44101000000956,0.216143532026088,1.06886499997927,60,1,63
5,1,1,0.981830000004265,0.706856912374551,1.15408499998739,54,1,64
5,1,2,3.31669999999576,0.027346884397235,1.47617999999784,54,0,65
5,2,2,1.03317999999854,0.695010570759301,1.2867649999971,60,1,66
5,2,1,1.08604999998352,0.715068209934709,1.37910499999998,60,0,67
5,1,1,0.899770000018179,1,1.19821000000229,66.6666666666667,1,68
5,1,1,0.588174999982584,1,1.27861999999732,66.6666666666667,1,69
5,2,2,1.58286000002408,0.646082551343074,1.10246999998344,60,1,70
5,2,1,0.943774999992456,0.944301972842066,1.23217000000295,60,0,71
5,1,1,0.786449999985052,0.859615620124552,1.63202499999898,66.6666666666667,1,72
5,1,2,1.06610500000534,0.399742492588007,1.27556000000914,66.6666666666667,0,73
5,2,2,1.11353999999119,0.308640639620275,2.38341499998933,74.0740740740741,1,74
5,2,1,1.57084999998915,0.467191829154975,1.20904500002507,74.0740740740741,0,75
5,1,1,0.749614999978803,0.609881697612139,1.24127500000759,82.3045267489712,1,76
5,1,2,0.987564999988535,0.337253060914119,1.26224999999977,82.3045267489712,0,77
5,2,2,0.849394999997457,0.452876373032147,1.52215000000433,91.4494741655236,1,78
5,1,1,0.641849999985425,0.909082001636881,1.29078500001924,91.4494741655236,1,79
5,2,2,0.799200000008568,0.84690955376833,1.43846999999369,82.3045267489712,1,80
5,2,1,0.970350000017788,0.894373798778009,1.33620999997947,82.3045267489712,0,81
5,1,1,0.992540000006557,0.948635163000358,1.42227999999886,91.4494741655236,1,82
5,1,1,0.832295000000158,1,2.42624499998055,91.4494741655236,1,83
5,2,2,1.23832999999286,0.40174306284695,3.10271000000648,82.3045267489712,1,84
5,2,2,0.748625000007451,0.886603833749304,1.47344000000157,82.3045267489712,1,85
5,1,1,0.811240000010002,0.914216546647647,2.28291999999783,74.0740740740741,1,86
5,1,1,0.615944999997737,0.907431002202722,2.31649000002653,74.0740740740741,1,87
5,2,2,0.712434999994002,0.723762533567358,1.53121499999543,66.6666666666667,1,88
5,2,1,0.558099999994738,0.839588624254865,1.34901499998523,66.6666666666667,0,89
5,1,1,0.553790000005392,0.954934278124012,1.36309999998775,74.0740740740741,1,90
5,2,2,1.04007000001729,0.879386105009648,1.09302999998908,74.0740740740741,1,91
5,1,2,1.65320999998949,0.769341844456944,1.30137000000104,66.6666666666667,0,92
5,2,2,2.70465500000864,1,1.59901000000536,74.0740740740741,1,93
5,1,1,1.56517499999609,0.973804913366128,1.26723500000662,74.0740740740741,1,94
5,2,2,1.12055500000133,0.844686171331774,1.13562000001548,66.6666666666667,1,95
5,1,1,0.821265000005951,1,1.3999049999984,66.6666666666667,1,96
6,2,2,0.778020000085235,0.165149154358415,0.926809999858961,60,1,1
6,1,1,1.21032999991439,0,1.01557500008494,54,1,2
6,1,1,0.818805000046268,0.816712422978259,0.79217499983497,54,1,3
6,2,2,1.83151500020176,0.035706187053152,1.54990999982692,48.6,1,4
6,2,2,1.85480500012636,0,1.74362999992445,48.6,1,5
6,1,2,1.10476999985985,0.020691364356072,0.761060000164434,43.74,0,6
6,2,2,1.05046999990009,0,1.35535500012338,48.6,1,7
6,1,1,1.5916150000412,0,1.27938999980688,48.6,1,8
6,2,2,1.31758500006981,0,0.535584999946877,43.74,1,9
6,1,1,0.684445000020787,0.2680745118514,1.3429199999664,43.74,1,10
6,1,1,0.636700000148267,0.252988749006153,0.823549999855459,39.366,1,11
6,2,1,0.692495000082999,0.25339771099893,0.550799999851733,39.366,0,12
6,2,2,0.995305000105873,0.0149307959829,0.526454999810085,43.74,1,13
6,1,1,1.06267000013031,0.27676654457935,0.894989999942482,43.74,1,14
6,1,1,0.712685000151396,0.427314782797286,0.728204999817535,39.366,1,15
6,2,2,0.816150000086054,0.470029897565944,0.880090000107884,39.366,1,16
6,1,1,0.779229999985546,0.65616581551162,0.783634999999776,35.4294,1,17
6,2,2,0.942694999976084,0.128996478948137,0.734935000073165,35.4294,1,18
6,1,1,1.11690000002272,0.063703761233863,0.666104999836534,31.88646,1,19
6,2,2,1.33342000003904,0.143180898525559,0.591424999991432,31.88646,1,20
6,2,2,1.22461000015028,0.031377530270281,0.479244999820367,28.697814,1,21
6,1,2,0.95069000008516,0.428571428571428,1.00820000004023,28.697814,0,22
6,1,1,0.667325000045821,0.661879172225856,0.68623000010848,31.88646,1,23
6,2,2,0.692495000082999,0,0.657069999957457,31.88646,1,24
6,2,1,1.25093000009656,0.314749117247405,0.491494999965653,28.697814,0,25
6,1,1,1.05092000006698,0.441266496236953,0.447275000158697,31.88646,1,26
6,2,2,0.641309999860823,0,0.766975000035018,31.88646,1,27
6,1,2,1.08262500003912,0,0.536764999851584,28.697814,0,28
6,1,1,0.682235000189394,0.469727796726678,0.60772499977611,31.88646,1,29
6,2,2,1.07867499999702,0.320377694863488,1.1032300000079,31.88646,1,30
6,2,2,0.864045000169426,0.68877377126538,0.575169999850914,28.697814,1,31
6,1,1,0.8384350000415,0.966174183839627,0.664695000043139,28.697814,1,32
6,2,2,0.747324999887496,0.161369792857114,0.687200000043958,25.8280326,1,33
6,1,1,1.32009999989532,0.305142199347672,0.750944999977946,25.8280326,1,34
6,1,1,0.632424999959767,0.69993932786631,0.829125000163913,23.24522934,1,35
6,2,2,0.699430000036955,0.261661734620911,0.899875000119209,23.24522934,1,36
6,1,2,1.29359499993734,0.66072823297114,0.647150000091642,20.920706406,0,37
6,2,1,1.53682500007562,0.207334358536972,0.487484999932349,23.24522934,0,38
6,2,2,0.785350000020117,0.459366204698063,0.464124999940395,25.8280326,1,39
6,1,1,1.53203000011854,0.23961068835022,0.482434999896213,25.8280326,1,40
6,2,2,0.702010000124574,0.427639343475714,0.503284999867901,23.24522934,1,41
6,1,1,0.683199999853969,0.449643852732426,0.832700000144541,23.24522934,1,42
6,1,1,0.973370000021532,0.130947099285688,1.15158500010148,20.920706406,1,43
6,2,2,0.826379999984056,0.348118383014044,0.599415000062436,20.920706406,1,44
6,1,2,1.10704000014812,0.198094260847392,1.01556999981403,18.8286357654,0,45
6,2,1,1.58286500000395,0.377006072776674,0.719564999919385,20.920706406,0,46
6,1,2,1.17087499983609,0.013753257594848,0.639610000187531,23.24522934,0,47
6,2,1,2.57247500005178,0.182324310278016,0.825180000159889,25.8280326,0,48
6,2,2,0.826160000171512,0.717250030182237,0.752209999831393,28.697814,1,49
6,1,1,1.4157600000035,0,0.478420000057667,28.697814,1,50
6,2,2,1.00400499999523,0.170732804669826,1.20760499988683,25.8280326,1,51
6,1,1,0.805954999988899,0.124447383733176,0.49817999987863,25.8280326,1,52
6,1,1,0.850769999902695,0.225307731366933,0.703350000083447,23.24522934,1,53
6,2,2,0.948575000045821,0.262176208070862,0.554174999939278,23.24522934,1,54
6,1,1,1.0032900001388,0.087332303614811,0.526509999996051,20.920706406,1,55
6,2,2,0.766139999963343,0.187127424098908,0.686914999969304,20.920706406,1,56
6,1,2,0.965210000053048,0.006957248609151,0.407145000062883,18.8286357654,0,57
6,2,2,0.766464999876916,0.186846824926602,0.463875000132248,20.920706406,1,58
6,2,2,0.843054999830201,0.295113431369248,0.551545000169426,20.920706406,1,59
6,1,2,0.740579999983311,0,0.423204999882728,18.8286357654,0,60
6,2,2,0.721244999906048,0.344001015920622,0.67140999995172,20.920706406,1,61
6,1,2,1.17845999985002,0,1.3512800000608,20.920706406,0,62
6,2,2,1.09397499985062,0,0.536625000182539,23.24522934,1,63
6,1,2,0.838324999902397,0,1.50352000002749,23.24522934,0,64
6,2,2,0.761915000155568,0.221771245802922,0.710184999974445,25.8280326,1,65
6,1,2,1.07532999990508,0,0.857470000162721,25.8280326,0,66
6,1,1,1.22172500006855,0.050751693479696,0.631550000049174,28.697814,1,67
6,2,2,0.972309999866411,0,0.518950000172481,28.697814,1,68
6,1,1,0.738529999973252,0.27566226980332,0.599580000154674,25.8280326,1,69
6,2,2,0.926375000039116,0,0.535105000017211,25.8280326,1,70
6,2,2,0.819780000019819,0,0.59963500010781,23.24522934,1,71
6,1,1,0.717835000017658,0,0.502460000105202,23.24522934,1,72
6,1,1,0.761225000023842,0.216401249700976,0.527500000083819,20.920706406,1,73
6,2,2,0.692915000021458,0.030578895020162,0.496000000042841,20.920706406,1,74
6,1,1,0.994435000000522,0,0.831439999863505,18.8286357654,1,75
6,2,2,0.749275000067428,0.001450363507458,0.620399999897927,18.8286357654,1,76
6,1,1,0.628729999996722,0,0.863870000001043,16.94577218886,1,77
6,2,2,0.96830500010401,0,0.63158500008285,16.94577218886,1,78
6,2,2,0.683530000038445,0,1.2935399999842,15.251194969974,1,79
6,1,2,5.37327500013635,0,2.27911000000313,15.251194969974,0,80
6,2,2,1.1305299999658,0,1.12767000007443,16.94577218886,1,81
6,1,2,1.44495499995537,0,0.895120000001043,16.94577218886,0,82
6,1,2,0.856565000023693,0,0.879419999895617,18.8286357654,0,83
6,2,2,0.596075000008568,0.081529557856743,0.671384999994189,20.920706406,1,84
6,2,2,1.05612499988638,0.371007278041394,0.534710000036284,20.920706406,1,85
6,1,2,1.0100149998907,0,0.463209999958053,18.8286357654,0,86
6,2,2,0.839900000020862,0,0.511315000010654,20.920706406,1,87
6,1,1,0.626480000093579,0.212059794850219,0.52743999985978,20.920706406,1,88
6,1,2,0.783774999901652,0.321525120159891,0.518830000190064,18.8286357654,0,89
6,2,2,0.826880000066012,0.671312342877669,0.415435000089929,20.920706406,1,90
6,2,2,0.887834999943152,0.170363658046839,0.399905000114813,20.920706406,1,91
6,1,2,1.62082500010729,0,0.815334999933839,18.8286357654,0,92
6,2,2,0.725024999817833,0.388147421683987,0.615209999959916,20.920706406,1,93
6,1,1,0.942169999936596,0.255261901725157,0.583444999996573,20.920706406,1,94
6,1,2,0.691645000129938,0.414177308732905,0.487879999913275,18.8286357654,0,95
6,2,2,0.688689999980852,0.350750474385625,0.479164999909699,20.920706406,1,96
7,2,1,1.11763999999993,0.531573559766209,1.69543000000023,60,0,1
7,1,1,1.0583499999998,0.412304918723895,0.685880000000005,66.6666666666667,1,2
7,2,2,1.7221599999998,0.675875139875755,1.90290500000038,66.6666666666667,1,3
7,1,1,1.41931500000009,0.200596069696988,0.552044999999896,60,1,4
7,2,2,1.02804500000004,0.558120272506851,0.752120000000083,60,1,5
7,1,1,1.08725000000003,0.331434503770159,1.08260000000021,54,1,6
7,1,2,1.13997999999992,0.775535398999318,0.740040000000125,54,0,7
7,2,1,1.29246000000014,0.422792285877208,0.683079999999783,60,0,8
7,1,2,0.636354999999632,0.367528312432726,0.927070000000182,66.6666666666667,0,9
7,2,2,1.07312000000002,0.020974075901935,0.914694999999949,74.0740740740741,1,10
7,1,1,1.66242499999999,0.456593451702318,0.732945000000211,74.0740740740741,1,11
7,2,2,0.975689999999769,0.429744503714801,0.892620000000083,66.6666666666667,1,12
7,2,2,0.921135000000038,0.321525120159891,0.815750000000233,66.6666666666667,1,13
7,1,1,0.481649999999732,0.059173366053299,0.774620000000141,60,1,14
7,2,2,0.862160000000149,0.119731415858758,0.974869999999995,60,1,15
7,1,1,0.778839999999938,0.083275784198566,0.660284999999945,54,1,16
7,1,1,0.630569999999803,0.619077987732961,1.09933000000002,54,1,17
7,2,2,1.03774500000008,0.032040273907244,0.77181999999992,48.6,1,18
7,2,2,0.891505000000063,0.407869242122696,1.19851500000004,48.6,1,19
7,1,2,1.44608999999991,0.519002522392124,1.30727000000025,43.74,0,20
7,1,1,1.49024000000008,0.361187307560345,0.597579999999667,48.6,1,21
7,2,1,1.06028500000003,0.109210983859168,0.694034999999974,48.6,0,22
7,2,2,0.869849999999598,0.651081904245427,0.8404650000002,54,1,23
7,1,2,0.953445000000094,0.479024684927092,0.560629999999946,54,0,24
7,2,2,0.759555000000109,0.42938070326022,0.543464999999735,60,1,25
7,1,1,0.936419999999984,0.431318308734944,0.384560000000434,60,1,26
7,2,2,0.694530000000203,0.224741662206974,0.975889999999723,54,1,27
7,1,1,0.778850000000151,0.346986014350875,0.524150000000198,54,1,28
7,2,2,0.692284999999625,0.183744323378443,0.795035000000091,48.6,1,29
7,1,2,0.706149999999965,0.219224037610102,0.614064999999769,48.6,0,30
7,1,1,1.06352500000002,0.157465851083593,0.963255000000121,54,1,31
7,2,1,0.92034999999986,0,0.637280000000377,54,0,32
7,1,2,0.699505000000063,0.157465851083593,0.964429999999993,60,0,33
7,2,1,0.959874999999593,0,0.918130000000005,66.6666666666667,0,34
7,1,2,0.790030000000086,0.113308440595411,0.933424999999697,74.0740740740741,0,35
7,2,2,0.796565000000119,0.284362407295444,0.74073499999987,82.3045267489712,1,36
7,2,2,0.901859999999928,0.480214179049817,0.705380000000354,82.3045267489712,1,37
7,1,1,0.939594999999856,0.219798719326852,0.763650000000314,74.0740740740741,1,38
7,2,2,0.909645000000135,0.491257181571031,1.08412499999988,74.0740740740741,1,39
7,1,2,0.841915000000445,0.182324310278016,1.48110499999981,66.6666666666667,0,40
7,1,1,0.462970000000088,0.36511985585291,1.00972499999986,74.0740740740741,1,41
7,2,2,0.702664999999746,0.182893058335044,0.634080000000307,74.0740740740741,1,42
7,2,2,0.61077999999997,0.189433326308022,0.54638499999966,66.6666666666667,1,43
7,1,1,0.655665000000212,0.388844164072629,4.73492999999964,66.6666666666667,1,44
7,2,2,0.692859999999695,0.441266496236953,0.450035000000265,60,1,45
7,1,2,0.713870000000054,0.095335257143014,2.24442999999976,60,0,46
7,2,1,0.695635000000009,1,2.99571999999991,66.6666666666667,0,47
7,1,1,0.708614999999991,0.164472299267388,7.64943500000029,74.0740740740741,1,48
7,1,2,0.792184999999765,0.243882187851752,2.54853499999992,74.0740740740741,0,49
7,2,2,1.27919000000018,0,4.66035999999987,82.3045267489712,1,50
7,1,2,5.0200500000001,0.951450993197625,2.38399500000011,82.3045267489712,0,51
7,2,2,0.944989999999991,0.173962748903265,2.07840000000031,91.4494741655236,1,52
7,1,2,0.674539999999979,0,4.33589000000031,91.4494741655236,0,53
7,2,1,0.870034999999916,0.219990077635226,1.16622000000003,101.610526850582,0,54
7,2,2,0.977144999999844,0.370241223758723,0.92175499999983,112.900585389535,1,55
7,1,2,0.861785000000033,0.159232698111217,1.09908499999985,112.900585389535,0,56
7,1,1,0.956279999999853,0.249701715544313,1.09716500000015,125.445094877261,1,57
7,2,2,0.928194999999949,0.3067919148207,0.780369999999937,125.445094877261,1,58
7,2,2,0.815180000000051,0.119907590691536,0.746595000000088,112.900585389535,1,59
7,1,1,0.961080000000075,0.051943143718045,0.912499999999884,112.900585389535,1,60
7,1,1,0.653479999999923,0.838481058604805,1.23711000000004,101.610526850582,1,61
7,2,2,1.43751999999996,0,1.0664700000002,101.610526850582,1,62
7,2,1,0.708139999999723,0.165149154358415,0.6320799999999,91.4494741655236,0,63
7,1,1,0.780794999999634,1,0.991530000000261,101.610526850582,1,64
7,1,1,0.825284999999916,0.411554192130862,0.963259999999951,101.610526850582,1,65
7,2,2,0.753900000000198,0.647313392964985,0.966295000000158,91.4494741655236,1,66
7,1,1,0.970339999999851,0.995659070439481,0.637679999999818,91.4494741655236,1,67
7,2,2,1.32117999999993,0.001450363507458,0.731754999999772,82.3045267489712,1,68
7,1,1,0.94237000000017,0.72501651340501,0.952624999999942,82.3045267489712,1,69
7,2,2,0.710224999999802,0.583251680158281,1.24740999999997,74.0740740740741,1,70
7,2,2,0.673429999999818,0.837985784603836,0.738780000000144,74.0740740740741,1,71
7,1,1,0.953125,0.47112376705014,0.771239999999991,66.6666666666667,1,72
7,2,2,0.793499999999767,0.192138020469255,0.553014999999956,66.6666666666667,1,73
7,1,1,0.760954999999783,0.612275540225233,0.975720000000321,60,1,74
7,1,1,0.720244999999995,0.828503780109911,0.9504899999997,60,1,75
7,2,2,0.795764999999839,0.372580863660261,0.592510000000417,54,1,76
7,2,2,0.842874999999825,0.366302786426237,0.681515000000189,54,1,77
7,1,1,0.597555000000284,0.783162874883571,0.724839999999851,48.6,1,78
7,2,2,0.838350000000035,0.322620010736217,0.381574999999837,48.6,1,79
7,1,2,0.94327999999997,0.197278911564625,0.978000000000058,43.74,0,80
7,2,2,1.0436599999998,0.15653987870293,1.31442500000005,48.6,1,81
7,1,1,0.802680000000284,0.643026456416439,0.859104999999981,48.6,1,82
7,1,2,0.753354999999807,0.228499158202889,0.500419999999867,43.74,0,83
7,2,2,0.811865000000107,0.081529557856743,0.824219999999972,48.6,1,84
7,1,2,0.936379999999655,0.492132325390928,1.33662000000005,48.6,0,85
7,2,2,0.787864999999758,0.452215720506912,1.38461499999993,54,1,86
7,2,2,0.785574999999895,0.332360522355727,0.539990000000224,54,1,87
7,1,2,0.828779999999795,0.37882774340239,1.11920000000013,48.6,0,88
7,2,2,0.789864999999758,0.628284629166981,0.998180000000051,54,1,89
7,1,1,0.75392499999993,0.879635060030255,0.734309999999823,54,1,90
7,2,2,0.853279999999853,0.218712442610022,0.450330000000075,48.6,1,91
7,1,2,0.653844999999797,0.271606699638852,0.702780000000086,48.6,0,92
7,1,2,0.636924999999756,0.373657123067434,0.633780000000144,54,0,93
7,2,1,0.72002999999997,0.398803516663792,0.606129999999655,60,0,94
7,1,2,0.854740000000224,0.33411015354988,0.882790000000095,66.6666666666667,0,95
7,2,2,0.674469999999914,0.260056949522744,0.579600000000035,74.0740740740741,1,96
8,1,2,0.51896499999566,0.03026129047569,1.41230500000529,48.6,0,1
8,2,1,0.217769999988377,0.202081060428495,1.33681000000797,54,0,2
8,2,2,0.919735000003129,1,1.42042000003858,60,1,3
8,1,1,0.688880000030622,1,1.26542000001064,60,1,4
8,2,2,0.538685000035912,1,1.2960449999664,54,1,5
8,1,1,0.515619999961928,1,1.31930000003194,54,1,6
8,2,2,0.707240000017919,1,1.32788999995682,48.6,1,7
8,1,1,0.422500000044238,1,1.2618149999762,48.6,1,8
8,1,2,0.537215000018477,0.040473907008645,1.51575500000035,43.74,0,9
8,2,2,0.674850000010338,1,1.1264450000017,48.6,1,10
8,1,1,0.213820000004489,1,1.36751000001095,48.6,1,11
8,2,2,1.49893500003964,1,1.22247500001686,43.74,1,12
8,2,2,0.700460000021849,1,1.47081999998773,43.74,1,13
8,1,1,1.23764999996638,0.302474825942449,1.48102000000654,39.366,1,14
8,1,1,0.702554999967106,1,1.16354000003776,39.366,1,15
8,2,2,0.549144999997225,1,1.16845499997726,35.4294,1,16
8,1,1,1.19098000001395,1,1.50196500000311,35.4294,1,17
8,2,2,0.659860000014305,1,1.14066500001354,31.88646,1,18
8,1,1,1.21027999999933,1,1.19074499997078,31.88646,1,19
8,2,2,0.607015000015963,1,1.14581499999622,28.697814,1,20
8,2,2,0.768075000029057,1,3.01584999996703,28.697814,1,21
8,1,1,0.627665000036359,1,1.18997999996645,25.8280326,1,22
8,1,1,1.40045000001555,1,1.13446999998996,25.8280326,1,23
8,2,2,0.566225000016857,0.141806996267867,1.45496499998262,23.24522934,1,24
8,1,1,0.823865000042133,1,1.55955499998527,23.24522934,1,25
8,2,2,2.19517000002088,0,2.01120999996783,20.920706406,1,26
8,2,1,1.25708499999018,1,1.56127999996534,20.920706406,0,27
8,1,1,0.565204999991693,1,1.18555999995442,23.24522934,1,28
8,2,2,0.648419999983162,1,1.10243999998784,23.24522934,1,29
8,1,1,0.63387000001967,1,1.26824499998474,20.920706406,1,30
8,2,2,0.651710000005551,1,1.13618000003044,20.920706406,1,31
8,1,2,0.172389999963343,0,1.97896999999648,18.8286357654,0,32
8,1,2,0.261159999994561,1,1.27906999998959,20.920706406,0,33
8,2,1,0.282654999988154,1,1.25142500002403,23.24522934,0,34
8,1,1,0.365349999978207,1,1.16985000000568,25.8280326,1,35
8,2,2,0.485734999994747,1,1.13133499998366,25.8280326,1,36
8,2,2,0.495530000014696,1,2.64225999999326,23.24522934,1,37
8,1,1,1.04626999999164,1,1.18489000003319,23.24522934,1,38
8,1,2,0.683900000003632,0.167212744864065,1.56784999999218,20.920706406,0,39
8,2,1,0.255379999987781,1,2.59578000003239,23.24522934,0,40
8,2,2,0.815965000016149,1,2.48465999995824,25.8280326,1,41
8,1,1,0.549960000033025,1,1.21678499999689,25.8280326,1,42
8,2,2,0.532260000007227,1,1.13368000002811,23.24522934,1,43
8,1,1,0.813419999962207,1,1.18464500003029,23.24522934,1,44
8,2,1,0.654779999982566,1,1.44812499999534,20.920706406,0,45
8,1,2,0.633919999992941,0,1.27078500000061,23.24522934,0,46
8,2,1,0.982910000020638,1,1.40561000001617,25.8280326,0,47
8,1,1,0.786870000010822,1,2.96418999996968,28.697814,1,48
8,2,1,1.14764999999898,1,1.27299500000663,28.697814,0,49
8,1,1,0.588114999991376,1,1.18200999998953,31.88646,1,50
8,1,1,0.784150000021327,1,1.21818499994697,31.88646,1,51
8,2,2,1.3817599999602,1,1.09006499999668,28.697814,1,52
8,1,1,1.01568499999121,1,1.15652000001865,28.697814,1,53
8,2,2,0.551250000018626,1,1.28784999996424,25.8280326,1,54
8,1,2,2.06671500002267,1,1.15085500001442,25.8280326,0,55
8,2,1,2.83906500000739,1,1.23242000001483,28.697814,0,56
8,1,2,3.15035499999067,1,1.11818500002846,31.88646,0,57
8,2,1,0.750040000013541,1,1.70437999995193,35.4294,0,58
8,1,1,0.933400000038091,1,1.21714500000235,39.366,1,59
8,2,2,1.25834499998018,1,1.16314000001876,39.366,1,60
8,1,1,0.56195000000298,1,1.25407500000438,35.4294,1,61
8,2,2,0.799104999983683,1,1.13574499997776,35.4294,1,62
8,1,1,1.09888999996474,1,1.28890500002308,31.88646,1,63
8,2,2,0.538390000001527,1,1.15040499996394,31.88646,1,64
8,1,1,0.848769999982323,1,1.55817999999272,28.697814,1,65
8,2,2,0.240259999991395,1,2.39191000000574,28.697814,1,66
8,2,1,0.681920000002719,1,3.15676500002155,25.8280326,0,67
8,1,1,0.692225000006147,1,3.44690499996068,28.697814,1,68
8,1,1,0.600505000038538,1,1.21107499999925,28.697814,1,69
8,2,1,0.744370000029448,1,1.16161000001011,25.8280326,0,70
8,2,2,0.650889999989886,1,1.15169500000775,28.697814,1,71
8,1,1,1.06790999998339,1,1.42102000000887,28.697814,1,72
8,1,1,0.548605000018142,1,1.18974000000162,25.8280326,1,73
8,2,1,0.698134999955073,1,1.17349500005366,25.8280326,0,74
8,2,2,0.787660000030883,1,2.42625000001863,28.697814,1,75
8,1,1,0.502470000006724,1,1.2520750000258,28.697814,1,76
8,1,1,0.682384999992792,1,2.55625000002328,25.8280326,1,77
8,2,1,0.563970000017434,1,2.48614499997348,25.8280326,0,78
8,1,1,0.702354999957606,1,2.59918499999912,28.697814,1,79
8,2,1,0.715039999980945,1,1.20198999997228,28.697814,0,80
8,2,2,0.743529999977909,1,1.14856000000145,31.88646,1,81
8,1,1,0.766399999964051,1,1.17204999999376,31.88646,1,82
8,1,1,0.625829999975394,1,1.19242500001565,28.697814,1,83
8,2,1,0.633734999981243,1,1.25544500001706,28.697814,0,84
8,1,1,0.649589999986347,1,1.25267499999609,31.88646,1,85
8,2,2,0.700084999960382,1,1.11664500000188,31.88646,1,86
8,2,1,0.772935000015423,1,1.11512999999104,28.697814,0,87
8,1,2,0.765484999981709,1,2.71818500000518,31.88646,0,88
8,2,1,0.625659999961499,1,1.20644500001799,35.4294,0,89
8,1,1,0.829410000005737,1,2.51488999999128,39.366,1,90
8,1,1,0.559249999991152,1,1.19602999999188,39.366,1,91
8,2,2,0.806744999950752,1,1.12797000003047,35.4294,1,92
8,2,1,0.785050000005867,1,1.21608500002185,35.4294,0,93
8,1,1,0.757924999983516,1,2.39240000001155,39.366,1,94
8,2,2,0.667390000016894,1,1.14512499998091,39.366,1,95
8,1,1,0.874394999991637,1,1.17687500000466,35.4294,1,96
9,1,1,0.810959999915212,0.083275784198566,1.84849500004202,60,1,1
9,2,2,0.650085000088438,1,1.3550999998115,54,1,2
9,1,1,0.588595000095665,1,1.6865149999503,54,1,3
9,2,2,1.459559999872,0.497502617659249,1.292679999955,48.6,1,4
9,1,2,1.26873999997042,0,1.16896499996074,48.6,0,5
9,2,2,0.953955000033602,0.495330918795681,1.6462299998384,54,1,6
9,2,2,1.26533000008203,1,1.35117499995977,54,1,7
9,1,1,0.521009999793023,1,0.678485000040382,48.6,1,8
9,1,1,0.627554999897256,0.751513133129679,1.02227500011213,48.6,1,9
9,2,2,0.936304999981076,0.042821007672873,0.801290000090376,43.74,1,10
9,1,1,1.28261999995448,0.092894196614468,0.753685000119731,43.74,1,11
9,2,2,0.626179999904707,0.664806643790793,1.04316500015557,39.366,1,12
9,2,2,0.659020000137389,0.410342545276516,0.748514999868348,39.366,1,13
9,1,1,0.58845500019379,1,0.818609999958426,35.4294,1,14
9,2,2,0.649994999868795,0.285282149049239,0.716890000039712,35.4294,1,15
9,1,1,0.821375000057742,0.434372882601263,0.929479999933392,31.88646,1,16
9,1,2,0.965060000075027,0,1.0517599999439,31.88646,0,17
9,2,2,0.710905000101775,0.705985075227976,0.780455000000075,35.4294,1,18
9,1,1,0.54020499996841,0.913669174698692,0.843385000014678,35.4294,1,19
9,2,2,1.00681999977678,0,0.965890000108629,31.88646,1,20
9,1,1,0.532529999967664,1,0.908114999998361,31.88646,1,21
9,2,2,0.833309999899939,0,0.888305000029504,28.697814,1,22
9,1,1,0.69120500003919,1,0.803934999974445,28.697814,1,23
9,2,2,0.975319999968633,0,0.979709999868646,25.8280326,1,24
9,2,2,0.802979999920353,0.085819541686688,0.773495000088587,25.8280326,1,25
9,1,1,0.770690000150353,0.877097404843064,0.635914999991655,23.24522934,1,26
9,1,1,1.10312999994494,0.040311728133826,0.668164999922737,23.24522934,1,27
9,2,2,1.3859550000634,0,0.619184999959543,20.920706406,1,28
9,1,1,0.756895000115037,0.695065800825187,0.908830000087619,20.920706406,1,29
9,2,2,1.04138000006787,0.776215400700307,0.765970000065863,18.8286357654,1,30
9,2,1,1.53842000011355,0,1.06212999997661,18.8286357654,0,31
9,1,1,0.693585000000894,0.633070659733816,1.47329000011086,20.920706406,1,32
9,2,2,1.498799999943,0,0.996035000076517,20.920706406,1,33
9,1,1,0.801499999826774,1,0.849370000185445,18.8286357654,1,34
9,1,1,0.882964999880642,1,0.674485000083223,18.8286357654,1,35
9,2,2,0.736675000051036,0.525923346026223,1.0294049999211,16.94577218886,1,36
9,1,1,0.658564999932423,1,0.733495000051335,16.94577218886,1,37
9,2,2,0.733985000057146,0.140988381564966,0.834465000079945,15.251194969974,1,38
9,2,2,0.778135000029579,0.785608376507364,0.673174999887124,15.251194969974,1,39
9,1,1,0.974835000000894,0.038662096110562,1.27498500002548,13.7260754729766,1,40
9,1,1,0.966239999979734,0,0.894320000195876,13.7260754729766,1,41
9,2,1,1.94469500007108,0,0.848465000046417,12.3534679256789,0,42
9,1,2,1.43860999983735,0,1.04984000022523,13.7260754729766,0,43
9,2,1,1.85766500001773,0,0.784220000030473,15.251194969974,0,44
9,2,2,2.38942999998108,0,0.837234999984503,16.94577218886,1,45
9,1,1,0.92574999993667,0.61576064541228,1.18285500002094,16.94577218886,1,46
9,2,2,0.784089999971911,0,0.971524999942631,15.251194969974,1,47
9,1,1,0.852174999890849,0.492751489893772,0.720600000116974,15.251194969974,1,48
9,1,1,0.605854999972507,0.593881005764476,1.07793499995023,13.7260754729766,1,49
9,2,2,0.802174999844283,0.064820918673112,1.04465500009246,13.7260754729766,1,50
9,2,2,0.6978100000415,0.448823186777266,0.632385000120848,12.3534679256789,1,51
9,1,1,0.749455000041053,0.704866723517501,0.603905000025406,12.3534679256789,1,52
9,2,1,1.35805499996059,0,1.04165000002831,11.1181211331111,0,53
9,1,1,0.670764999929816,0,0.869200000073761,12.3534679256789,1,54
9,2,2,1.18824500008486,0,0.902694999938831,12.3534679256789,1,55
9,1,2,1.29220000002533,0,0.847004999872297,11.1181211331111,0,56
9,1,2,1.46662999992259,0,0.63893000013195,12.3534679256789,0,57
9,2,1,0.840259999968112,0,0.694370000157505,13.7260754729766,0,58
9,2,1,1.3216099999845,0,0.910344999982044,15.251194969974,0,59
9,1,2,0.955119999824092,0,0.929500000085682,16.94577218886,0,60
9,1,1,0.898684999905527,0,0.805785000091419,18.8286357654,1,61
9,2,1,1.45221500005573,0,0.570039999904111,18.8286357654,0,62
9,2,2,1.18870499986224,0,0.878185000037774,20.920706406,1,63
9,1,1,0.757319999858737,0.204681354406661,0.679510000161827,20.920706406,1,64
9,1,1,0.882105000084266,0,0.635384999914095,18.8286357654,1,65
9,2,2,1.00474000000395,0,0.769134999951348,18.8286357654,1,66
9,1,1,0.637510000029579,0.466850373190657,0.803330000024289,16.94577218886,1,67
9,2,1,1.20494500012137,0.287384715669167,0.995230000000447,16.94577218886,0,68
9,2,2,0.672960000112653,0,0.827324999962002,18.8286357654,1,69
9,1,1,0.754609999945387,0,0.701740000164136,18.8286357654,1,70
9,1,2,1.50566999986768,0,0.795060000149533,16.94577218886,0,71
9,2,1,0.866189999971539,0,0.71877000015229,18.8286357654,0,72
9,1,1,0.738025000086054,0.01595397999903,0.879324999870732,20.920706406,1,73
9,2,2,0.6289800000377,0,0.80445499997586,20.920706406,1,74
9,2,2,1.15906500001438,0,0.498299999861047,18.8286357654,1,75
9,1,1,0.790365000022575,0.108843537414965,0.761609999928623,18.8286357654,1,76
9,2,2,1.3167699999176,0.292729539961418,1.03417499992065,16.94577218886,1,77
9,1,1,1.05801499984227,0,0.625320000108331,16.94577218886,1,78
9,2,1,1.15986499981955,0,0.82316999998875,15.251194969974,0,79
9,1,1,0.881814999971539,0.386532692744046,0.83487999998033,16.94577218886,1,80
9,2,2,1.07369500002824,0,0.979770000092685,16.94577218886,1,81
9,1,1,1.35563499992713,0.649681760813963,1.05631999997422,15.251194969974,1,82
9,2,1,0.712104999925941,0.103641781387665,0.787615000037476,15.251194969974,0,83
9,1,1,1.01444999990053,0.386357832347665,0.685185000067577,16.94577218886,1,84
9,1,1,0.837174999993294,0.008187777627037,0.584975000005215,16.94577218886,1,85
9,2,2,0.507085000164807,0.021678729557113,0.69840499991551,15.251194969974,1,86
9,1,2,0.785810000030324,0.055474554246438,0.614219999872148,15.251194969974,0,87
9,2,2,0.782624999992549,0,0.567629999946803,16.94577218886,1,88
9,2,1,1.36867499980144,0,0.5471700001508,16.94577218886,0,89
9,1,1,0.606540000066161,0,0.643485000124201,18.8286357654,1,90
9,1,2,0.676380000077188,0,0.541690000100061,18.8286357654,0,91
9,2,2,0.558255000039935,0,0.508019999833778,20.920706406,1,92
9,1,1,0.75497500016354,0,0.502744999947026,20.920706406,1,93
9,2,1,0.606205000076443,0,1.07838999992236,18.8286357654,0,94
9,1,1,0.605935000116006,0,0.627644999884069,20.920706406,1,95
9,2,2,0.623455000109971,0,0.594349999912083,20.920706406,1,96
10,1,1,0.715005000000034,1,1.17886500000008,48.6,1,1
10,2,2,0.556354999999952,1,0.422234999999986,43.74,1,2
10,2,2,0.724719999999914,0.480177041733622,0.86402999999997,43.74,1,3
10,1,1,0.569145000000164,1,0.399930000000051,39.366,1,4
10,1,2,1.76226500000007,0,0.783209999999817,39.366,0,5
10,2,1,0.793764999999868,0.708570732863011,0.411129999999976,43.74,0,6
10,2,2,0.789765000000014,0.413886461649255,0.623765000000043,48.6,1,7
10,1,1,1.03570999999988,1,0.557675000000017,48.6,1,8
10,1,1,1.08909500000003,1,0.522744999999995,43.74,1,9
10,2,2,0.761679999999847,0.273000046682392,0.612285000000149,43.74,1,10
10,2,1,0.97933999999988,1,0.511960000000021,39.366,0,11
10,1,1,0.938065000000031,0.839800568883912,0.419180000000109,43.74,1,12
10,1,1,0.87754999999993,1,0.445389999999868,43.74,1,13
10,2,1,1.33707000000004,0.06846564036747,0.550089999999967,39.366,0,14
10,2,1,1.10641000000009,1,0.505119999999792,43.74,0,15
10,1,1,0.859989999999932,1,0.384489999999903,48.6,1,16
10,2,1,0.925369999999937,0.938112148440183,0.403780000000086,48.6,0,17
10,1,2,1.54116500000007,0,0.730814999999915,54,0,18
10,2,2,0.891149999999936,1,0.797925000000076,60,1,19
10,1,1,0.890364999999991,1,0.351319999999978,60,1,20
10,2,2,0.878899999999936,0.366575380322423,0.78431500000009,54,1,21
10,1,1,0.813985000000015,1,0.376089999999967,54,1,22
10,1,1,0.771905000000057,1,0.368424999999901,48.6,1,23
10,2,2,1.09388000000012,1,0.649124999999913,48.6,1,24
10,2,1,0.861244999999821,0.131369311166617,0.704245000000141,43.74,0,25
10,1,2,1.10637500000009,0,0.605839999999938,48.6,0,26
10,1,1,2.02565000000002,0,0.487675000000105,54,1,27
10,2,2,2.19452499999988,0.003203473153631,0.561889999999956,54,1,28
10,2,2,0.873600000000122,0,0.505384999999922,48.6,1,29
10,1,1,0.955959999999992,1,0.423710000000021,48.6,1,30
10,2,2,1.0290550000002,0.064039541846878,0.415774999999936,43.74,1,31
10,1,1,0.809774999999936,1,0.455709999999963,43.74,1,32
10,1,1,0.83827999999997,1,0.560750000000116,39.366,1,33
10,2,1,0.905864999999932,1,0.372919999999984,39.366,0,34
10,1,1,0.869944999999891,1,0.400625,43.74,1,35
10,2,2,0.739515000000247,0.570488529464943,0.63289499999996,43.74,1,36
10,2,2,1.02898500000016,0,0.528274999999907,39.366,1,37
10,1,2,0.958280000000086,0,0.439785000000033,39.366,0,38
10,2,2,1.05668000000017,0.446315059106792,0.633884999999951,43.74,1,39
10,1,1,0.857749999999884,1,0.400190000000119,43.74,1,40
10,1,1,0.773989999999932,1,0.38259999999986,39.366,1,41
10,2,2,0.909795000000042,0.383771897495562,0.496940000000002,39.366,1,42
10,1,1,0.744114999999991,1,0.382164999999979,35.4294,1,43
10,2,2,0.722844999999972,0.221771245802922,0.618175000000105,35.4294,1,44
10,2,2,0.858469999999914,0,0.719364999999932,31.88646,1,45
10,1,1,0.843274999999907,1,0.416345000000088,31.88646,1,46
10,1,1,0.789954999999958,1,0.367460000000196,28.697814,1,47
10,2,2,0.973894999999844,0.25578463466622,0.661240000000165,28.697814,1,48
10,1,1,0.729319999999891,1,0.503205000000016,25.8280326,1,49
10,2,1,0.908720000000147,0,0.798434999999881,25.8280326,0,50
10,2,2,0.859114999999991,0.353788088393033,0.516785000000033,28.697814,1,51
10,1,2,0.958989999999874,0.052061888189039,0.520044999999984,28.697814,0,52
10,1,1,0.755815000000002,1,0.389994999999995,31.88646,1,53
10,2,2,0.754384999999951,0.182324310278016,0.467464999999909,31.88646,1,54
10,2,2,0.79392499999993,0.761469897027693,0.575250000000116,28.697814,1,55
10,1,1,0.72087999999983,1,0.367465000000026,28.697814,1,56
10,1,1,0.587974999999919,1,0.391299999999988,25.8280326,1,57
10,2,2,0.740905000000086,0.639485358802044,0.56942499999993,25.8280326,1,58
10,2,2,0.840959999999963,0.230053607446686,0.455895000000077,23.24522934,1,59
10,1,1,0.689210000000021,1,0.373104999999865,23.24522934,1,60
10,2,2,0.743645000000019,0.230735516129142,0.431779999999853,20.920706406,1,61
10,1,1,0.768755000000063,1,0.358774999999907,20.920706406,1,62
10,2,2,0.652745000000112,0.426339990360787,0.404444999999891,18.8286357654,1,63
10,1,1,0.823250000000116,1,0.350044999999925,18.8286357654,1,64
10,1,1,0.730604999999981,1,0.335864999999991,16.94577218886,1,65
10,2,2,0.613429999999877,0.102418454113196,0.379330000000191,16.94577218886,1,66
10,2,2,1.02428999999986,0.608805059500932,0.552765000000363,15.251194969974,1,67
10,1,1,0.639724999999977,1,0.305059999999707,15.251194969974,1,68
10,2,2,0.640965000000026,0.315961053848088,0.315990000000107,13.7260754729766,1,69
10,1,1,0.6613299999999,0.816736536098564,0.29559500000003,13.7260754729766,1,70
10,2,2,0.63600499999983,0.531470627295034,0.367835000000021,12.3534679256789,1,71
10,1,1,0.699169999999867,1,0.312875000000058,12.3534679256789,1,72
10,1,1,0.709470000000205,1,0.380199999999604,11.1181211331111,1,73
10,2,2,0.69034999999986,0.425363525653376,0.359554999999993,11.1181211331111,1,74
10,2,2,0.893935000000056,0.158388977217476,0.532524999999616,10.0063090197999,1,75
10,1,1,0.628064999999828,1,0.34717499999993,10.0063090197999,1,76
10,2,2,0.625650000000431,0.256248711397894,0.45191499999963,9.00567811781995,1,77
10,1,1,0.678330000000191,1,0.464184999999823,9.00567811781995,1,78
10,1,1,0.818994999999588,0.934574479745276,0.560650000000373,8.10511030603796,1,79
10,2,2,1.22803999999998,0.195505581372677,0.43217499999993,8.10511030603796,1,80
10,2,1,0.836095000000147,0.13279999441299,0.444619999999763,7.29459927543416,0,81
10,1,1,1.02404999999999,1,0.353419999999925,8.10511030603796,1,82
10,1,1,0.686410000000207,1,0.318199999999721,8.10511030603796,1,83
10,2,2,0.704949999999837,0.281809225442547,0.37359500000003,7.29459927543416,1,84
10,2,2,1.0965799999999,0.121750344745261,0.408960000000196,7.29459927543416,1,85
10,1,2,1.0245,0.472290924823308,0.370229999999981,6.56513934789075,0,86
10,2,2,0.673095000000088,0.255261901725157,0.591989999999932,7.29459927543416,1,87
10,1,1,0.622869999999704,1,0.266129999999946,7.29459927543416,1,88
10,1,1,0.663680000000109,1,0.225914999999979,6.56513934789075,1,89
10,2,2,0.706584999999905,0.516305118190871,0.499705000000191,6.56513934789075,1,90
10,1,1,0.689464999999909,1,0.319065000000119,5.90862541310167,1,91
10,2,2,0.695320000000298,0.381658680985067,0.427234999999637,5.90862541310167,1,92
10,1,1,0.70729000000027,1,0.3501149999997,5.3177628717915,1,93
10,2,2,1.10674500000005,0.128058608867209,0.522694999999658,5.3177628717915,1,94
10,2,2,0.705130000000237,0.31094095456212,0.386794999999925,4.78598658461235,1,95
10,1,1,0.62584500000003,1,0.328489999999874,4.78598658461235,1,96
11,1,2,1.22441999998409,1,2.601384999929,66.6666666666667,0,1
11,2,2,1.25027499999851,1,4.23728999996092,74.0740740740741,1,2
11,1,1,1.9899049999658,1,1.84905499999877,74.0740740740741,1,3
11,2,2,0.971404999960214,1,2.61918500007596,66.6666666666667,1,4
11,2,2,1.45419499999844,1,4.15315500006545,66.6666666666667,1,5
11,1,1,0.893520000041462,1,2.17588999995496,60,1,6
11,2,2,1.19045500003267,1,3.08440499997232,60,1,7
11,1,1,1.63709499989636,1,2.00830500002485,54,1,8
11,1,2,1.72068999998737,1,1.93614000000525,54,0,9
11,2,2,2.55563999991864,1,2.6598000000231,60,1,10
11,1,1,1.10211500001606,1,1.74670500005595,60,1,11
11,2,2,0.787520000012591,1,1.55579499993473,54,1,12
11,2,2,0.86390500003472,1,2.17211000004318,54,1,13
11,1,1,0.724914999911562,1,2.62522500008345,48.6,1,14
11,2,2,0.974775000009686,1,2.03567500005011,48.6,1,15
11,1,1,0.998765000025742,1,1.94862999999896,43.74,1,16
11,1,2,0.877494999906048,1,2.7225000000326,43.74,0,17
11,2,2,1.25161000003573,1,1.82927500002552,48.6,1,18
11,2,1,1.4645399999572,1,4.45195000001695,48.6,0,19
11,1,1,1.49902999994811,1,1.83980499999598,54,1,20
11,1,1,0.881359999999404,1,1.94958499993663,54,1,21
11,2,2,0.794594999984838,1,4.21191000007093,48.6,1,22
11,2,1,1.35074999998324,1,1.6104200000409,48.6,0,23
11,1,1,0.888720000046305,1,2.26001999992877,54,1,24
11,2,2,0.720685000065714,1,2.32535499997903,54,1,25
11,1,1,0.976009999983944,1,2.13858000002801,48.6,1,26
11,1,1,0.825579999946058,1,2.0910000000149,48.6,1,27
11,2,1,0.890015000011772,1,1.79662999999709,43.74,0,28
11,1,1,1.06703000003472,1,1.64335000002757,48.6,1,29
11,2,2,0.681854999973439,1,1.58003499999177,48.6,1,30
11,1,2,1.05511499999557,1,9.31788500002585,43.74,0,31
11,2,1,1.14705999998841,1,2.16246499994304,48.6,0,32
11,1,2,2.28804999997374,1,2.32270000001881,54,0,33
11,2,2,8.65871500002686,1,5.37402999994811,60,1,34
11,1,2,1.38046999997459,1,4.58059500006493,60,0,35
11,2,2,1.28181000007316,1,1.47950499993749,66.6666666666667,1,36
11,1,1,1.22383000003174,1,2.56047499994747,66.6666666666667,1,37
11,2,2,0.910210000001825,1,4.18232000002172,60,1,38
11,2,1,1.004195000045,1,1.92070499993861,60,0,39
11,1,1,1.18144000007305,1,1.83921499992721,66.6666666666667,1,40
11,1,2,1.18887499999255,1,3.34677500010002,66.6666666666667,0,41
11,2,1,0.749180000042543,1,1.88307499990333,74.0740740740741,0,42
11,1,1,1.18545999994967,1,4.61891499999911,82.3045267489712,1,43
11,2,1,1.78528499999084,1,1.82244999997783,82.3045267489712,0,44
11,1,2,2.09155999997165,0,4.99756499996874,91.4494741655236,0,45
11,2,2,2.14159999997355,0,2.78017499996349,101.610526850582,1,46
11,1,2,1.98699000000488,0.394945180300744,3.42631499993149,101.610526850582,0,47
11,2,1,1.80686000001151,0.604328175115427,2.93559500004631,112.900585389535,0,48
11,1,1,1.0806599999778,0.978271744861617,2.44838999991771,125.445094877261,1,49
11,2,2,1.1891300000716,0.970068858839068,2.4318000000203,125.445094877261,1,50
11,1,1,1.44473500002641,0.73054442697709,2.51740999997128,112.900585389535,1,51
11,2,2,0.755710000055842,0.700268716806996,4.49887499993201,112.900585389535,1,52
11,2,2,0.935925000114366,0.82082699684162,1.76846499997191,101.610526850582,1,53
11,1,1,1.10732499998994,1,2.06150499999058,101.610526850582,1,54
11,2,2,0.866599999950267,1,1.4810099999886,91.4494741655236,1,55
11,1,1,1.00138500006869,0.987807492421405,1.76679999998305,91.4494741655236,1,56
11,2,2,0.791909999912605,0.994520391272879,1.80590500007384,82.3045267489712,1,57
11,1,1,0.981604999979027,0.987807492421405,3.0078799999319,82.3045267489712,1,58
11,1,1,1.07863500004169,1,4.83366000000387,74.0740740740741,1,59
11,2,2,0.708950000000186,0.978766961385661,3.75806500006001,74.0740740740741,1,60
11,2,2,0.94609500002116,0.830027111089161,2.43531500000972,66.6666666666667,1,61
11,1,1,0.837119999923743,1,1.92105000000447,66.6666666666667,1,62
11,1,1,1.17654500005301,0.978766961385661,2.2363099999493,60,1,63
11,2,2,0.750170000013895,0.981054499486442,2.83944999997038,60,1,64
11,2,2,2.09961499995552,0.606585397589344,4.60240500001237,54,1,65
11,1,1,0.805025000008754,0.98047790217513,2.58187999995425,54,1,66
11,2,2,0.869779999949969,0.988932481256349,1.58559000003152,48.6,1,67
11,1,1,0.899569999892265,0.9755234453095,2.91623000008985,48.6,1,68
11,1,2,0.817140000057407,0.981898269389423,1.47710000001825,43.74,0,69
11,2,2,1.04264999995939,0.989341290958723,2.74555500003044,48.6,1,70
11,1,1,0.72226499998942,1,4.34999000001699,48.6,1,71
11,2,2,0.7305949999718,1,1.73321500001475,43.74,1,72
11,2,2,0.89496499998495,0.91176210571178,1.88815500005148,43.74,1,73
11,1,1,0.715864999918267,1,2.05769000004511,39.366,1,74
11,2,2,0.788414999959059,1,2.24538500001654,39.366,1,75
11,1,1,0.821564999991097,1,2.10701499995776,35.4294,1,76
11,2,2,0.764804999926127,1,2.69629500003066,35.4294,1,77
11,1,1,0.856005000066943,1,2.39321000000928,31.88646,1,78
11,2,2,0.822584999958053,1,1.96591500006616,31.88646,1,79
11,1,2,0.977699999930337,1,2.28147500008345,28.697814,0,80
11,1,2,1.53541000001132,0.858276001982316,2.91570000001229,31.88646,0,81
11,2,2,0.683409999939613,1,2.07441500003915,35.4294,1,82
11,1,1,0.861370000056922,1,2.29064000002109,35.4294,1,83
11,2,2,0.860435000038706,0.811950261742734,4.37740999995731,31.88646,1,84
11,2,2,1.04170499998145,0.783912183179668,2.4378850000212,31.88646,1,85
11,1,2,1.88365999993403,0.790703250776417,2.36024500010535,28.697814,0,86
11,1,1,1.24321500002407,0.539588364842691,1.66363999992609,31.88646,1,87
11,2,2,0.858084999956191,0.832805802139171,3.03873000002932,31.88646,1,88
11,1,1,0.863475000020117,1,2.63769499992486,28.697814,1,89
11,2,2,0.862919999985024,1,2.69822000002023,28.697814,1,90
11,2,2,0.94825499993749,0.815723262792301,1.66528000007384,25.8280326,1,91
11,1,1,0.823379999957979,1,2.57399000006262,25.8280326,1,92
11,1,1,0.966184999910183,1,5.59678999998141,23.24522934,1,93
11,2,2,1.10728999995627,0.960799185418823,1.95897000003606,23.24522934,1,94
11,1,1,0.857844999991357,1,1.78362000000197,20.920706406,1,95
11,2,2,0.893730000010692,0.875008169483977,1.31054999993648,20.920706406,1,96
12,2,2,0.925185000000056,1,2.41977499999985,48.6,1,1
12,1,1,1.04173999999989,0.741496598639455,2.06168500000013,43.74,1,2
12,1,1,0.85050999999998,0.975771689311263,2.0285100000001,43.74,1,3
12,2,1,1.05481999999983,0.982556381956101,2.06039500000019,39.366,0,4
12,1,1,0.791570000000094,0.978085982261005,2.29142999999999,43.74,1,5
12,2,2,0.581815000000002,1,1.97582499999998,43.74,1,6
12,1,1,0.893074999999953,0.955819169154961,2.40694000000006,39.366,1,7
12,2,2,0.547095000000118,0.99718230558524,2.01797499999998,39.366,1,8
12,2,2,0.651410000000149,0.957755015845261,1.85846999999991,35.4294,1,9
12,1,1,0.915119999999879,0.951028023123052,2.36599000000002,35.4294,1,10
12,2,2,0.704314999999944,1,1.56952500000011,31.88646,1,11
12,1,1,0.719755000000063,0.906174504827278,1.78517499999999,31.88646,1,12
12,2,1,1.98585000000003,0.733955286925653,1.52997000000006,28.697814,0,13
12,1,1,0.80589499999996,0.939117731340763,2.01153499999986,31.88646,1,14
12,2,2,0.989649999999994,0.716819492213557,1.99244999999995,31.88646,1,15
12,1,1,0.681010000000009,0.919783635424052,2.09710500000007,28.697814,1,16
12,1,1,1.40606000000003,0.226813011406626,2.09239999999999,28.697814,1,17
12,2,1,0.887659999999887,0.425485675488582,2.19558000000005,25.8280326,0,18
12,2,2,2.52248499999996,0.144149974282027,1.95063000000006,28.697814,1,19
12,1,1,0.875399999999907,0.951704696787445,2.86547500000006,28.697814,1,20
12,1,1,0.655494999999995,0.687437190883805,1.75689499999996,25.8280326,1,21
12,2,2,2.64929000000007,0.266212146350283,1.88083999999982,25.8280326,1,22
12,2,2,1.52804999999987,0.236268701852864,1.88916999999993,23.24522934,1,23
12,1,1,1.98784999999998,0.417531845622284,2.01568999999994,23.24522934,1,24
12,1,1,1.46397499999989,0,2.10738500000004,20.920706406,1,25
12,2,2,2.2999850000001,0,1.85979999999996,20.920706406,1,26
12,1,1,0.898329999999987,0.354114108648404,2.41951500000004,18.8286357654,1,27
12,2,1,0.86710500000004,0.290439345286916,2.54323000000001,18.8286357654,0,28
12,1,1,0.927805000000022,0.092894196614468,1.96576000000004,20.920706406,1,29
12,2,2,1.25633500000002,0,1.96557000000009,20.920706406,1,30
12,1,2,1.63322500000006,0,1.61753999999992,18.8286357654,0,31
12,2,2,1.14727999999991,0,2.38650000000006,20.920706406,1,32
12,2,2,1.50053999999998,0,1.99125000000006,20.920706406,1,33
12,1,1,1.0780199999999,0,1.41622499999998,18.8286357654,1,34
12,1,1,0.79475,0,1.78050000000006,18.8286357654,1,35
12,2,2,0.848150000000023,0,1.53356000000011,16.94577218886,1,36
12,2,2,1.00855499999988,0,1.42394500000001,16.94577218886,1,37
12,1,2,0.859390000000072,0,1.54495499999984,15.251194969974,0,38
12,1,1,0.668755000000179,0.095335257143014,2.73694499999983,16.94577218886,1,39
12,2,2,0.836,0,1.49088000000006,16.94577218886,1,40
12,2,2,0.728589999999909,0.018841691483057,2.35462000000005,15.251194969974,1,41
12,1,1,1.02887500000017,0,1.44786499999987,15.251194969974,1,42
12,1,2,0.885919999999925,0,1.57178500000009,13.7260754729766,0,43
12,2,2,0.8320799999999,0,3.4968000000001,15.251194969974,1,44
12,1,1,1.37456999999995,0,1.42899999999988,15.251194969974,1,45
12,2,2,0.8415349999998,0,1.44893500000011,13.7260754729766,1,46
12,1,2,0.742310000000114,0,1.49741999999993,13.7260754729766,0,47
12,2,2,0.705729999999923,0,1.4824599999999,15.251194969974,1,48
12,1,2,0.834879999999888,0.034013605442176,1.82785500000004,15.251194969974,0,49
12,2,2,0.859214999999909,0,1.74713,16.94577218886,1,50
12,1,1,1.25551499999978,0,1.49446500000003,16.94577218886,1,51
12,2,2,0.819600000000035,0,1.46861499999999,15.251194969974,1,52
12,1,2,1.84114000000001,0,1.39402499999985,15.251194969974,0,53
12,2,1,1.23483500000002,0,1.50183500000002,16.94577218886,0,54
12,2,2,0.742110000000161,0,1.50801999999996,18.8286357654,1,55
12,1,2,0.798684999999939,0,1.82670000000007,18.8286357654,0,56
12,1,1,0.678580000000016,0,1.3876399999999,20.920706406,1,57
12,2,2,0.810619999999937,0,1.49153999999998,20.920706406,1,58
12,2,2,0.681875,0,1.62391000000003,18.8286357654,1,59
12,1,1,0.669114999999932,0,1.66649499999994,18.8286357654,1,60
12,2,1,1.03940000000014,0,1.55870000000001,16.94577218886,0,61
12,1,1,0.928369999999879,0,1.53828999999992,18.8286357654,1,62
12,1,1,0.882419999999925,0,1.73253500000009,18.8286357654,1,63
12,2,2,0.793629999999888,0,1.57747500000003,16.94577218886,1,64
12,2,2,0.986130000000005,0,1.50579999999987,16.94577218886,1,65
12,1,2,0.986834999999963,0.01226876531961,1.51277000000002,15.251194969974,0,66
12,1,1,0.762244999999879,0,1.61513500000001,16.94577218886,1,67
12,2,2,0.909955000000075,0,1.41718999999989,16.94577218886,1,68
12,2,1,0.624274999999907,0,1.45345500000007,15.251194969974,0,69
12,1,1,0.777945000000007,0,1.53830999999994,16.94577218886,1,70
12,2,1,1.29280499999999,0,1.68022999999998,16.94577218886,0,71
12,1,1,0.606440000000002,0,1.70213500000007,18.8286357654,1,72
12,1,1,0.625600000000093,0,1.57936999999988,18.8286357654,1,73
12,2,2,0.651280000000028,0,1.66385999999987,16.94577218886,1,74
12,1,1,0.664905000000028,0,1.40853999999992,16.94577218886,1,75
12,2,1,0.64542499999993,0,1.43404499999993,15.251194969974,0,76
12,2,1,0.857925000000047,0,1.67650499999989,16.94577218886,0,77
12,1,1,0.971739999999874,0,1.46854000000015,18.8286357654,1,78
12,1,1,0.829369999999879,0.147993990835808,2.07913500000001,18.8286357654,1,79
12,2,1,0.890724999999977,0.111313492411828,1.98295000000007,16.94577218886,0,80
12,1,1,2.37461500000022,0,1.6233550000001,18.8286357654,1,81
12,2,1,0.86504999999993,0,1.17675499999989,18.8286357654,0,82
12,2,2,1.20592000000039,0,1.61922999999975,20.920706406,1,83
12,1,1,0.549565000000293,0.238641493681903,1.76010499999986,20.920706406,1,84
12,1,1,0.890924999999697,0.328939888010876,1.64990500000014,18.8286357654,1,85
12,2,1,0.733690000000061,0.15653987870293,3.05070999999996,18.8286357654,0,86
12,1,1,0.747464999999967,0.210884353741496,1.60816000000027,20.920706406,1,87
12,2,1,0.643139999999665,0.217687074829931,1.7569600000002,20.920706406,0,88
12,2,1,0.731819999999949,0.103547894915303,1.62608999999973,23.24522934,0,89
12,1,2,1.02415500000003,0,1.64732000000007,25.8280326,0,90
12,2,2,0.528459999999963,0,1.53379000000004,28.697814,1,91
12,1,1,0.844535000000149,0,1.50723999999987,28.697814,1,92
12,2,1,0.727690000000177,0.029239600553381,2.17102999999991,25.8280326,0,93
12,1,1,0.631789999999921,0.175783358602186,1.68765500000014,28.697814,1,94
12,2,1,0.739585000000196,0.202007941649974,1.69654499999981,28.697814,0,95
12,1,1,0.681419999999925,0.274776747705328,1.43553500000003,31.88646,1,96
13,1,2,1.02587499999936,0.57967382344787,1.19122000000061,60,0,1
13,2,2,2.03740000000107,0.651460685029673,1.07076999999845,66.6666666666667,1,2
13,2,2,2.45290000000023,0.872846296990147,1.98406999999861,66.6666666666667,1,3
13,1,1,0.953660000002856,0.547845209433921,1.3681949999991,60,1,4
13,1,1,1.94364499999938,0.858067969510551,1.59024000000136,60,1,5
13,2,2,0.959280000002764,0.661160028264338,0.982124999998632,54,1,6
13,2,2,1.55963999999949,0.51034578961403,1.52522999999928,54,1,7
13,1,1,0.856049999998504,0.879137089344276,0.907074999999168,48.6,1,8
13,1,2,0.94542999999976,0.880811118692608,1.42522000000099,48.6,0,9
13,2,2,0.744894999999815,0.606431010232074,1.11408500000107,54,1,10
13,1,1,0.851764999999432,0.827860407866968,1.01915000000008,54,1,11
13,2,2,1.2442149999988,0.904320076456808,1.39912999999797,48.6,1,12
13,1,2,1.23155499999848,0.598920248899808,0.966885000001639,48.6,0,13
13,2,2,0.843844999999419,0.888759305111469,1.06194500000129,54,1,14
13,1,1,0.773769999999786,0.693656295065227,1.10014500000034,54,1,15
13,2,2,1.17950500000006,0.474731029871619,1.15823499999897,48.6,1,16
13,2,2,0.768015000001469,0.89775908440669,0.888019999998505,48.6,1,17
13,1,1,0.755219999999099,0.836285800398497,1.11806499999875,43.74,1,18
13,1,1,1.03698000000077,0.513102976431437,1.43002500000148,43.74,1,19
13,2,2,1.1797149999984,0.942534008142672,1.3389700000007,39.366,1,20
13,1,1,0.858609999999317,0.895377171700346,0.956035000002885,39.366,1,21
13,2,2,0.834774999999354,0.829265743984861,1.11789499999941,35.4294,1,22
13,1,1,0.904109999999491,0.810131001776999,1.16424000000188,35.4294,1,23
13,2,2,0.802319999998872,0.553084830795054,1.11321500000122,31.88646,1,24
13,2,1,1.78875499999776,0.38359612010737,1.5170500000022,31.88646,0,25
13,1,1,1.21927500000311,0.763310247910025,1.04800999999861,35.4294,1,26
13,2,2,0.874155000001338,0.7623138556485,0.983065000000352,35.4294,1,27
13,1,2,0.974275000000489,0.385176010076871,1.22575499999948,31.88646,0,28
13,2,2,1.06626499999766,0.612490001281654,1.2089100000012,35.4294,1,29
13,1,1,0.826204999997572,0.751849396603386,0.945990000000165,35.4294,1,30
13,1,1,1.22205000000031,0.307614506969885,0.986969999998109,31.88646,1,31
13,2,2,1.04407500000161,0.858414666284304,1.15112500000032,31.88646,1,32
13,2,2,0.891044999996666,0.510522881370698,0.832690000002913,28.697814,1,33
13,1,2,1.10278000000108,0.579257388283842,1.27500000000148,28.697814,0,34
13,1,2,1.34325499999977,0.502003500743078,1.08997499999893,31.88646,0,35
13,2,1,0.775894999998854,0.772355377351953,0.787130000000587,35.4294,0,36
13,2,2,0.926134999997914,0.329674965627544,0.873504999999539,39.366,1,37
13,1,2,0.851314999999886,0.564756659806576,0.720180000000226,39.366,0,38
13,1,1,0.853504999999073,0.554778405560134,0.702900000000256,43.74,1,39
13,2,1,1.12285999999952,0.735984917535709,0.765980000000098,43.74,0,40
13,1,2,0.968264999999548,0.87473534428926,0.82794500000088,48.6,0,41
13,2,2,0.896534999999858,0.867478632704112,0.638944999998785,54,1,42
13,2,2,0.922990000002785,0.759241130520462,0.700119999997667,54,1,43
13,1,2,1.10940000000119,0.816423018256938,0.754899999999907,48.6,0,44
13,1,1,0.775219999999565,0.824493623039397,0.904019999998098,54,1,45
13,2,1,1.28844499999832,0.521201339792477,1.08788500000082,54,0,46
13,1,2,0.833210000000719,0.934381181867622,1.4880650000014,60,0,47
13,2,2,0.716240000001504,0.855011843880571,0.981719999999797,66.6666666666667,1,48
13,2,2,0.748250000000524,0.906174504827278,0.651330000000598,66.6666666666667,1,49
13,1,1,0.674539999999979,0.857513004751887,1.15092499999813,60,1,50
13,1,1,0.723614999998943,0.99083219535338,1.00701000000117,60,1,51
13,2,2,0.884079999999783,0.793475081384037,0.613010000000941,54,1,52
13,1,1,1.25961999999708,0.937127054283871,0.633060000000114,54,1,53
13,2,2,0.949870000000345,0.834132977376668,0.724130000002333,48.6,1,54
13,1,1,0.779435000000405,1,0.733014999997918,48.6,1,55
13,2,2,0.933055000001332,0.553184566908541,1.26472999999899,43.74,1,56
13,1,1,0.848019999997632,0.9751302795757,0.813960000003164,43.74,1,57
13,2,2,0.901640000000072,0.914544833808484,0.764815000002272,39.366,1,58
13,1,2,1.11677499999863,0.66963384642426,0.782970000000205,39.366,0,59
13,2,1,0.848019999997632,0.90224098139466,1.03104000000167,43.74,0,60
13,2,1,0.979565000001458,0.957523735169774,1.02999999999884,48.6,0,61
13,1,1,0.78863999999885,0.980601483654265,0.900980000002135,54,1,62
13,2,2,0.664174999998068,0.956766476485328,0.803050000002258,54,1,63
13,1,1,0.859775000000838,0.970235171987035,0.731025000000955,48.6,1,64
13,1,1,0.747319999998552,0.998399429898184,1.10219000000146,48.6,1,65
13,2,2,0.662329999999201,0.990097200027318,0.528205000002345,43.74,1,66
13,2,1,0.968805000000459,0.927961169473254,0.781914999999572,43.74,0,67
13,1,1,0.765090000000782,0.971066365258855,0.676789999997709,48.6,1,68
13,2,2,0.628124999999302,0.938283377538564,0.872119999999995,48.6,1,69
13,1,1,0.769075000000128,0.739400970714202,0.722040000000619,43.74,1,70
13,2,2,0.798579999998794,0.913756773265922,0.684014999998908,43.74,1,71
13,1,1,0.656019999998505,1,0.690080000000307,39.366,1,72
13,2,2,0.675729999998992,1,0.656000000002678,39.366,1,73
13,1,1,0.669310000001104,0.974219259226852,0.705920000000333,35.4294,1,74
13,1,1,0.770779999998922,1,0.767055000000284,35.4294,1,75
13,2,2,0.775014999999199,0.63530397856898,0.657204999999551,31.88646,1,76
13,1,1,0.749755000000703,0.980148285077355,0.704259999998612,31.88646,1,77
13,2,2,1.61779000000027,0.30182440803821,0.848135000000184,28.697814,1,78
13,1,2,1.58233499999915,0.873096854562964,0.956090000003285,28.697814,0,79
13,2,1,0.808164999998524,0.929688436201707,0.625970000000962,31.88646,0,80
13,1,1,1.37005499999941,0.640874194764421,0.844795000000857,35.4294,1,81
13,2,2,0.948489999998885,0.782712998731697,0.740969999998924,35.4294,1,82
13,1,1,0.796619999997318,0.767183211330103,1.50233500000101,31.88646,1,83
13,2,2,0.796935000002151,0.706856912374551,0.771010000000359,31.88646,1,84
13,2,2,1.63383500000054,0.679822219214137,0.66690000000014,28.697814,1,85
13,1,1,0.697664999999688,0.85883054401792,0.911994999998598,28.697814,1,86
13,2,2,1.07889000000065,0.429744503714801,1.12316500000091,25.8280326,1,87
13,1,2,1.09369000000157,0.651227610544641,0.597069999999774,25.8280326,0,88
13,2,1,0.964165000001201,0.605596768199683,0.807074999997043,28.697814,0,89
13,1,2,0.976074999998673,0.745673026789425,0.955890000001062,31.88646,0,90
13,1,1,1.37161000000197,0.788122018608738,1.90908999999735,35.4294,1,91
13,2,2,0.782224999998987,0.633070659733816,1.10602500000095,35.4294,1,92
13,1,2,0.87978999999899,0.310481825348194,1.58208500000183,31.88646,0,93
13,2,1,1.11411500000034,0.333381921719377,0.7677349999976,35.4294,0,94
13,2,2,0.97609999999986,0.478838620886849,0.92214999999851,39.366,1,95
13,1,2,1.07647999999975,0.44584359554612,0.910084999999497,39.366,0,96
14,1,2,1.5019999999986,0.155300775521239,1.74899999999977,74.0740740740741,0,1
14,2,2,1.09799999999997,0.199516449854737,1.65499999999884,82.3045267489712,1,2
14,2,2,1.59500000000116,0.185510704384957,1.47999999999959,82.3045267489712,1,3
14,1,1,1.43499999999948,0.047740486069685,1.86999999999901,74.0740740740741,1,4
14,1,1,1.42299999999886,0,1.29300000000148,74.0740740740741,1,5
14,2,1,2.91800000000146,0,1.53699999999846,66.6666666666667,0,6
14,1,1,1.39399999999843,0.079249356698156,1.30600000000049,74.0740740740741,1,7
14,2,1,2.30299999999988,0,3.77200000000087,74.0740740740741,0,8
14,2,2,1.13800000000081,0.225056252598366,2.31199999999994,82.3045267489712,1,9
14,1,1,1.96399999999994,0,2.82800000000134,82.3045267489712,1,10
14,2,2,1.10299999999913,0,1.94700000000012,74.0740740740741,1,11
14,1,1,1.35200000000076,0.11185911873264,3.26699999999988,74.0740740740741,1,12
14,1,1,2.84799999999994,0,1.28000000000064,66.6666666666667,1,13
14,2,2,0.929000000000058,0.128058608867209,2.44200000000093,66.6666666666667,1,14
14,2,2,1.30099999999948,0.186495739779869,1.76000000000023,60,1,15
14,1,1,2.46199999999953,0,1.37900000000081,60,1,16
14,1,1,3.30799999999907,0.237426526785678,2.223,54,1,17
14,2,2,3.49400000000058,0,2.11999999999895,54,1,18
14,1,1,1.86499999999977,0,1.55799999999907,48.6,1,19
14,2,2,2.12700000000035,0,1.3359999999993,48.6,1,20
14,1,1,2.46500000000012,0.157157511172788,1.87600000000023,43.74,1,21
14,2,2,2.29600000000035,0,1.3179999999993,43.74,1,22
14,2,1,3.58300000000047,0,1.78299999999953,39.366,0,23
14,1,1,2.06599999999895,0,1.29000000000081,43.74,1,24
14,2,2,2.29100000000105,0,1.45799999999872,43.74,1,25
14,1,1,1.70100000000093,0,1.92699999999965,39.366,1,26
14,2,2,3.15599999999907,0,2.7800000000007,39.366,1,27
14,1,1,1.59399999999907,0,1.45400000000163,35.4294,1,28
14,2,2,3.03300000000128,0,1.35899999999849,35.4294,1,29
14,1,1,3.29500000000012,0,1.24899999999977,31.88646,1,30
14,1,1,2.9050000000007,0,1.28199999999919,31.88646,1,31
14,2,2,3.47500000000035,0,1.78700000000023,28.697814,1,32
14,2,2,1.875,0,2.4569999999986,28.697814,1,33
14,1,1,2.41299999999872,0,0.992000000000116,25.8280326,1,34
14,1,1,2.42100000000023,0,1.03999999999907,25.8280326,1,35
14,2,2,2.21199999999953,0,1.03200000000105,23.24522934,1,36
14,1,1,1.87799999999884,0,1.33800000000151,23.24522934,1,37
14,2,1,2.30299999999977,0,1.06600000000081,20.920706406,0,38
14,2,2,2.04199999999953,0,1.23199999999988,23.24522934,1,39
14,1,1,1.902,0,1.60100000000058,23.24522934,1,40
14,1,1,3.60499999999953,0,1.05999999999953,20.920706406,1,41
14,2,2,2.60499999999953,0.002568423989332,1.26499999999942,20.920706406,1,42
14,1,1,1.66600000000105,0,1.28399999999965,18.8286357654,1,43
14,2,1,1.87099999999919,0,1.66300000000047,18.8286357654,0,44
14,2,2,3.36000000000058,0,1.25699999999965,20.920706406,1,45
14,1,1,1.87700000000047,0.058139955138696,4.08899999999977,20.920706406,1,46
14,2,1,2.84100000000047,0,1.08799999999953,18.8286357654,0,47
14,1,1,2.321,0,1.161,20.920706406,1,48
14,1,1,1.5660000000007,0,3.34299999999884,20.920706406,1,49
14,2,2,1.741,0,1.2180000000007,18.8286357654,1,50
14,1,1,1.73800000000116,0,1.08699999999953,18.8286357654,1,51
14,2,1,2.28999999999907,0,1.196,16.94577218886,0,52
14,1,2,1.70600000000023,0,1.34400000000093,18.8286357654,0,53
14,2,2,1.75100000000023,0,2.40999999999977,20.920706406,1,54
14,2,2,3.134,0,1.53200000000116,20.920706406,1,55
14,1,1,1.9530000000014,0,1.44599999999977,18.8286357654,1,56
14,1,1,1.8520000000007,0,2.24899999999977,18.8286357654,1,57
14,2,1,13.4879999999993,0,1.95200000000116,16.94577218886,0,58
14,2,2,2.276,0,1.26699999999977,18.8286357654,1,59
14,1,2,1.48300000000023,0,1.10900000000047,18.8286357654,0,60
14,2,1,2.85299999999907,0,1.42000000000023,20.920706406,0,61
14,1,1,2.34200000000047,0,1.19000000000047,23.24522934,1,62
14,2,2,1.64400000000023,0,1.18499999999953,23.24522934,1,63
14,1,2,2.1200000000007,0,1.53699999999837,20.920706406,0,64
14,2,1,1.4680000000007,0,1.9929999999986,23.24522934,0,65
14,1,1,1.8979999999993,0,1.1290000000007,25.8280326,1,66
14,1,2,1.56000000000116,0,1.3359999999993,25.8280326,0,67
14,2,2,1.51599999999953,0,1.1770000000014,28.697814,1,68
14,2,2,1.6479999999993,0,1.1460000000007,28.697814,1,69
14,1,1,1.70800000000047,0,1.41200000000047,25.8280326,1,70
14,1,1,1.419,0,1.21299999999953,25.8280326,1,71
14,2,1,2.32799999999953,0,1.02499999999953,23.24522934,0,72
14,1,2,2.01100000000047,0,3.32899999999953,25.8280326,0,73
14,2,2,1.95600000000023,0,1.286,28.697814,1,74
14,2,2,1.937,0,1.12600000000023,28.697814,1,75
14,1,1,2.77399999999953,0,1.23300000000023,25.8280326,1,76
14,2,2,1.52800000000023,0,1.26400000000093,25.8280326,1,77
14,1,2,1.93300000000093,0,1.17799999999977,23.24522934,0,78
14,1,2,1.7829999999993,0,1.178,25.8280326,0,79
14,2,2,1.483,0,1.1550000000007,28.697814,1,80
14,1,2,1.607,0,1.46100000000093,28.697814,0,81
14,2,1,2.20700000000047,0,1.04299999999953,31.88646,0,82
14,1,1,1.90700000000093,0,1.6979999999986,35.4294,1,83
14,2,2,1.643,0,1.10900000000047,35.4294,1,84
14,1,1,1.58699999999953,0,1.14599999999884,31.88646,1,85
14,2,2,1.62399999999977,0,0.938,31.88646,1,86
14,2,1,2.11899999999884,0,0.907000000001164,28.697814,0,87
14,1,1,1.66399999999884,0,0.947000000000233,31.88646,1,88
14,1,1,1.52200000000093,0,1.17299999999884,31.88646,1,89
14,2,2,1.35100000000047,0,0.965000000000233,28.697814,1,90
14,1,1,3.16499999999907,0,0.842000000000698,28.697814,1,91
14,2,2,1.90899999999953,0,1.26000000000023,25.8280326,1,92
14,1,1,1.0750000000007,0,1.10499999999953,25.8280326,1,93
14,2,2,1.4609999999993,0,1.08500000000116,23.24522934,1,94
14,2,2,2.69000000000047,0,1.26499999999953,23.24522934,1,95
14,1,2,2.741,0,0.897000000000931,20.920706406,0,96
15,2,1,1.73729499999899,1,1.41516999993473,60,0,1
15,1,1,1.81036000000313,1,2.11260500003118,66.6666666666667,1,2
15,2,2,1.08735499996692,1,1.14830500003882,66.6666666666667,1,3
15,1,2,0.959569999948144,1,1.84963499999139,60,0,4
15,2,2,0.790359999984503,1,0.692760000005364,66.6666666666667,1,5
15,1,2,0.830294999992475,1,0.614980000071228,66.6666666666667,0,6
15,2,1,0.927809999906458,1,0.638910000096075,74.0740740740741,0,7
15,1,1,1.25786000001244,1,0.676549999974668,82.3045267489712,1,8
15,1,1,1.01403500000015,1,1.22336499998346,82.3045267489712,1,9
15,2,2,0.875400000018999,1,1.33854999998584,74.0740740740741,1,10
15,2,2,0.90234499995131,1,0.739315000013448,74.0740740740741,1,11
15,1,1,0.991585000068881,1,0.608494999934919,66.6666666666667,1,12
15,1,1,1.23225000000093,1,1.86804500001017,66.6666666666667,1,13
15,2,2,1.08562500006519,1,1.30420499993488,60,1,14
15,2,2,0.595819999929518,1,0.453165000071749,60,1,15
15,1,2,0.907314999960363,1,0.593349999981001,54,0,16
15,2,2,0.921900000073947,1,1.3124850000022,60,1,17
15,1,1,1.31460499996319,1,2.67564499995206,60,1,18
15,2,2,0.746165000018664,1,0.733344999956898,54,1,19
15,1,1,1.1068250000244,1,0.78098499996122,54,1,20
15,2,2,0.971354999928735,1,1.19877000001725,48.6,1,21
15,1,2,0.70609999995213,1,0.72796000004746,48.6,0,22
15,2,2,0.735680000041611,1,1.21474500000477,54,1,23
15,1,2,0.950715000042692,1,2.37747499998659,54,0,24
15,1,2,0.835915000061505,1,1.23193999996874,60,0,25
15,2,2,0.929015000001527,1,1.52168499992695,66.6666666666667,1,26
15,1,1,0.902379999984987,1,1.20806500001345,66.6666666666667,1,27
15,2,1,0.754315000027418,1,1.90367999998853,60,0,28
15,2,2,0.655165000003763,1,1.24397499999031,66.6666666666667,1,29
15,1,2,0.633430000045337,1,0.950865000020713,66.6666666666667,0,30
15,1,2,0.957750000059605,1,0.698534999974072,74.0740740740741,0,31
15,2,2,0.672204999951646,1,0.861154999933206,82.3045267489712,1,32
15,2,2,0.92777000006754,0.905048993263326,6.35527499997988,82.3045267489712,1,33
15,1,2,0.815709999995306,0.998095270543227,0.892224999959581,74.0740740740741,0,34
15,1,2,0.814270000089891,0.666752410710848,1.42667499999516,82.3045267489712,0,35
15,2,2,1.37580500007607,0.642054247134344,1.57663499994669,91.4494741655236,1,36
15,1,1,0.871765000047162,0.960883043509384,1.09505999996327,91.4494741655236,1,37
15,2,2,0.738654999993742,0.975978517237995,1.51424000004772,82.3045267489712,1,38
15,1,1,0.773150000022724,0.792387127655821,1.05275499995332,82.3045267489712,1,39
15,2,2,1.02604500006419,1,0.96132999996189,74.0740740740741,1,40
15,1,2,1.36650000000373,0.496019422142796,1.98375499993563,74.0740740740741,0,41
15,2,2,1.63563499995507,1,1.54615499998908,82.3045267489712,1,42
15,2,2,1.30582999996841,0.965485467586923,0.925790000008419,82.3045267489712,1,43
15,1,1,0.740929999970831,0.868211224679685,1.30429000000004,74.0740740740741,1,44
15,2,2,1.27639499993529,0.942043580408327,0.844060000032187,74.0740740740741,1,45
15,1,1,0.88691000000108,0.67714591593492,1.08619499998167,66.6666666666667,1,46
15,1,1,0.73789999994915,0.742673209947519,1.11454500001855,66.6666666666667,1,47
15,2,2,0.711545000085607,0.845224922927877,0.972459999960847,60,1,48
15,2,2,0.612659999984317,1,1.16544999997132,60,1,49
15,1,1,0.756359999999404,0.856425305982814,1.37022500007879,54,1,50
15,1,1,0.741844999953173,0.772987212097704,0.932329999981448,54,1,51
15,2,2,0.592874999972992,0.894596854401248,0.874384999973699,48.6,1,52
15,2,2,0.622639999957755,0.963165729216027,1.05048500001431,48.6,1,53
15,1,2,1.04317000007723,0.654919628169356,1.18028999993112,43.74,0,54
15,1,1,0.673150000046007,0.790703250776417,1.07723499997519,48.6,1,55
15,2,2,0.934309999924153,0.926296039773006,1.3502800000133,48.6,1,56
15,2,2,1.38951999996789,0.834132977376668,1.21377500006929,43.74,1,57
15,1,2,0.923554999986663,0.383815832676079,0.844425000017509,43.74,0,58
15,1,1,0.861909999977797,0.564691258096314,0.816229999996722,48.6,1,59
15,2,2,0.988880000077188,0.304521987685915,0.76743499992881,48.6,1,60
15,1,2,1.22142000007443,0.149343287005639,0.816229999996722,43.74,0,61
15,2,1,1.04012500005774,0.081735700941757,1.23328499996569,48.6,0,62
15,1,1,0.671620000037365,0.65189751545694,1.26383499999065,54,1,63
15,2,2,0.626924999989569,1,0.860774999950081,54,1,64
15,1,2,0.737205000012182,0.880381561666076,1.13765499996953,48.6,0,65
15,2,2,0.707715000025928,1,1.16110499994829,54,1,66
15,1,1,0.735104999970645,1,1.13263999996707,54,1,67
15,2,2,0.684320000000298,0.83918815959829,1.60622000007425,48.6,1,68
15,1,1,0.621344999992289,1,1.06874000001699,48.6,1,69
15,2,2,0.583920000004582,0.91288046051627,0.936425000079907,43.74,1,70
15,2,2,1.12043000000995,0.875008169483977,1.22601999994367,43.74,1,71
15,1,1,0.721400000038557,0.96581944404874,1.06350499996915,39.366,1,72
15,1,2,0.801794999977574,0.916490578394383,1.45081499998923,39.366,0,73
15,2,2,0.548070000018924,0.952887870182724,1.05774499999825,43.74,1,74
15,2,2,0.712605000007898,0.919848957016517,1.12824999995064,43.74,1,75
15,1,1,0.6978100000415,0.962307657508167,1.03541999997105,39.366,1,76
15,2,2,0.520995000028051,0.928544433306393,1.02263000002131,39.366,1,77
15,1,1,1.30416999990121,0.532636276860212,1.57240500010084,35.4294,1,78
15,2,2,0.685559999896213,0.483879880613933,1.23231500003021,35.4294,1,79
15,1,2,0.704155000043102,0.614722905847778,0.821319999988191,31.88646,0,80
15,2,2,0.799635000061244,0.947977797134103,1.44705999991857,35.4294,1,81
15,1,1,0.92179000005126,0.092894196614468,0.886079999967478,35.4294,1,82
15,2,2,0.505630000028759,0.868211224679685,1.4968050000025,31.88646,1,83
15,1,1,0.577619999996386,0.778126783930343,1.19237499998417,31.88646,1,84
15,2,2,0.64984500000719,0.076524020361865,2.01165500003844,28.697814,1,85
15,1,1,1.19923000002746,0.900601332724572,0.993170000030659,28.697814,1,86
15,2,1,0.870084999944083,0.156771640075445,1.09979000000749,25.8280326,0,87
15,1,1,0.808689999976195,0.450580367008554,0.926815000013448,28.697814,1,88
15,2,1,0.922045000013895,0.578520029472424,0.883509999956004,28.697814,0,89
15,1,1,0.517845000023954,0.343905954285668,0.871279999963008,31.88646,1,90
15,1,1,0.622139999992214,0.039679018571411,0.772920000017621,31.88646,1,91
15,2,2,0.418925000005402,0.188457024813222,0.81854500004556,28.697814,1,92
15,1,2,0.910754999960773,0.333576225711377,1.00620500009973,28.697814,0,93
15,2,2,0.494695000001229,0.591616243053813,0.790199999930337,31.88646,1,94
15,1,2,0.738964999909513,0.718701507427894,0.883265000069514,31.88646,0,95
15,2,2,0.460384999983944,0.268974445378647,0.785754999960773,35.4294,1,96
16,2,1,1,1,1.865,48.6,0,1
16,1,1,0.885,0.964670978037261,1.317,54,1,2
16,2,1,1.219,0.924845047819782,1.896,54,0,3
16,1,1,1.003,0.91314343069721,1.097,60,1,4
16,1,1,2.037,1,3.05,60,1,5
16,2,2,0.64,0.773593363631685,1.864,54,1,6
16,1,1,0.702,1,1.818,54,1,7
16,2,2,0.835,0.961155538313281,1.302,48.6,1,8
16,2,2,0.637,0.951768113497179,1.553,48.6,1,9
16,1,1,1.235,0.921198038789712,1.097,43.74,1,10
16,2,2,0.639,1,2.598,43.74,1,11
16,1,1,0.969,0.906836006720247,1.102,39.366,1,12
16,2,2,0.89,0,1.161,39.366,1,13
16,1,1,1.103,1,1.416,35.4294,1,14
16,2,2,0.728,1,1.283,35.4294,1,15
16,1,1,0.912,1,1.827,31.88646,1,16
16,2,1,1.158,1,1.341,31.88646,0,17
16,1,1,0.642,1,1.462,35.4294,1,18
16,2,2,0.65,1,1.516,35.4294,1,19
16,1,1,1.007,1,1.634,31.88646,1,20
16,2,2,0.768,1,1.554,31.88646,1,21
16,1,1,0.87,1,1.55,28.697814,1,22
16,2,2,0.918,0.374954618611838,1.587,28.697814,1,23
16,1,1,0.906,1,1.516,25.8280326,1,24
16,1,1,0.777,0.436373685915863,1.526,25.8280326,1,25
16,2,1,1.458,0.128741017383362,1.379,23.24522934,0,26
16,1,1,0.802,1,1.402,25.8280326,1,27
16,2,2,0.844,1,1.461,25.8280326,1,28
16,1,1,0.92,1,1.218,23.24522934,1,29
16,2,2,1.042,0.254563854938191,1.461,23.24522934,1,30
16,1,1,1.006,1,1.371,20.920706406,1,31
16,2,2,0.791,0.444426933961813,1.397,20.920706406,1,32
16,1,1,1.728,0.475330193895854,1.253,18.8286357654,1,33
16,2,2,0.757,0.462737884855947,1.899,18.8286357654,1,34
16,1,1,0.738,1,1.536,16.94577218886,1,35
16,2,2,2.275,0.465938887668853,1.347,16.94577218886,1,36
16,1,1,0.785,1,1.55,15.251194969974,1,37
16,2,2,0.787,0.393566639556906,1.39,15.251194969974,1,38
16,1,1,0.793,0.566096065262192,1.379,13.7260754729766,1,39
16,2,2,0.774,0.812459033692329,1.333,13.7260754729766,1,40
16,1,1,0.673,1,1.53,12.3534679256789,1,41
16,2,2,1.383,0.469576690424532,1.487,12.3534679256789,1,42
16,2,1,0.852,0.638271804449168,1.304,11.1181211331111,0,43
16,1,1,1.306,1,1.417,12.3534679256789,1,44
16,1,1,1.204,0.293843642059973,1.418,12.3534679256789,1,45
16,2,2,1.185,0.415131881752649,1.109,11.1181211331111,1,46
16,1,2,0.785,0.42377318157711,1.734,11.1181211331111,0,47
16,2,2,0.835,0.328301893086334,1.242,12.3534679256789,1,48
16,1,2,1.461,0.16746924429815,1.146,12.3534679256789,0,49
16,2,2,0.683,0.418810379658993,1.842,13.7260754729766,1,50
16,1,1,0.676,0.45334227522736,1.115,13.7260754729766,1,51
16,2,2,1.152,0.657352233233176,1.422,12.3534679256789,1,52
16,2,2,0.719,0,1.384,12.3534679256789,1,53
16,1,2,0.801,0.273500510152363,1.673,11.1181211331111,0,54
16,2,2,0.738,0.410509826710074,1.316,12.3534679256789,1,55
16,1,1,0.891,0.469123147656858,1.463,12.3534679256789,1,56
16,1,1,0.643,0.424385380038992,1.262,11.1181211331111,1,57
16,2,2,0.617,0.189433326308022,1.283,11.1181211331111,1,58
16,1,1,1.367,0.31701887839879,1.291,10.0063090197999,1,59
16,2,1,1.008,0.561807573473663,1.497,10.0063090197999,0,60
16,2,2,0.761,0.298900900545693,1.228,11.1181211331111,1,61
16,1,1,1.319,0.717250030182237,1.171,11.1181211331111,1,62
16,2,2,0.738,0.455550357040795,1.415,10.0063090197999,1,63
16,1,1,1.166,0.014195869124016,2.834,10.0063090197999,1,64
16,1,2,1.183,0.067257757979326,1.119,9.00567811781995,0,65
16,2,1,1.105,0.629304142784365,1.151,10.0063090197999,0,66
16,1,1,0.906,0.176943109484167,1.733,11.1181211331111,1,67
16,2,2,0.742,0.479210693314521,1.231,11.1181211331111,1,68
16,2,1,0.739,0.445371754109049,2.049,10.0063090197999,0,69
16,1,2,0.856,0.225370574223792,1.332,11.1181211331111,0,70
16,2,1,1.087,0.268130815428386,3.586,12.3534679256789,0,71
16,1,2,0.926,0.596483165670395,1.495,13.7260754729766,0,72
