Subj_idx,Block,Trial_in_block,Trial,Stimulus,RT_start,Response,Confidence,RT_conf,ErrorDirection,RT_error
1,1,1,1,3,2.5049,3.444,1,3.9595,1,2.9173
1,1,2,2,3,1.1593,3.002,3,1.4883,0,3.9093
1,1,3,3,3,1.0281,5.3547,1,2.3386,1,1.2441
1,1,4,4,3,0.66439,2.5594,3,1.4216,0,1.4089
1,1,5,5,3,0.83462,3.7453,3,2.3335,0,1.0649
1,1,6,6,3,2.8252,3.5592,2,2.6822,0,1.5658
1,1,7,7,3,0.88346,2.2172,3,1.1283,0,3.8283
1,1,8,8,3,0.81472,3.6588,3,1.6928,0,0.87504
1,1,9,9,3,0.67569,2.8772,2,1.7736,0,0.83433
1,1,10,10,3,1.1828,2.3801,1,2.5982,0,0.66408
1,1,11,11,3,1.1437,3.178,3,1.6227,1,1.6468
1,1,12,12,3,0.57321,4.1011,3,1.751,0,0.74206
1,1,13,13,3,0.66549,3.2294,3,1.3622,0,1.378
1,1,14,14,3,0.48185,3.4431,3,1.8078,0,2.9236
1,1,15,15,3,0.59137,1.8891,3,1.2208,0,0.80863
1,1,16,16,3,0.72995,3.0447,3,1.6725,0,0.90964
1,1,17,17,3,0.54253,2.5522,3,1.5288,0,1.7534
1,1,18,18,3,0.83665,2.6718,2,3.143,0,0.76987
1,1,19,19,3,0.68302,2.2797,3,1.1484,0,0.72856
1,1,20,20,3,0.71803,3.0962,2,1.411,0,0.84012
1,1,21,21,3,0.70543,1.9749,3,1.6228,0,1.9717
1,1,22,22,3,0.39313,2.0668,3,1.2903,0,0.57419
1,1,23,23,3,0.57841,2.9427,2,1.8591,1,0.68758
1,1,24,24,3,1.9846,2.3703,1,1.918,0,0.82914
1,1,25,25,3,0.77075,3.3356,2,1.575,1,0.93679
1,1,26,26,3,1.6671,3.608,2,2.0805,0,0.59083
1,1,27,27,3,0.86158,2.0919,3,1.2489,0,0.54091
1,1,28,28,3,1.2733,2.6362,3,1.2911,0,0.78768
1,1,29,29,3,0.68872,2.9371,2,1.6911,0,0.51131
1,1,30,30,3,0.78581,2.6329,3,1.8747,0,0.87435
1,1,31,31,3,0.63535,3.7457,3,8.7347,0,0.71739
1,1,32,32,3,1.0276,3.2152,2,1.5522,0,0.55614
1,1,33,33,3,0.65899,3.3022,2,4.9389,0,0.74076
1,1,34,34,3,0.79412,3.1049,3,2.0419,0,0.26005
1,1,35,35,3,0.68246,1.9423,2,1.9735,0,0.78537
1,1,36,36,3,0.70485,2.7865,3,1.6777,0,0.4646
1,1,37,37,3,0.96757,2.0559,3,2.4077,0,0.92171
1,1,38,38,3,1.2755,3.35,3,1.6365,0,1.6692
1,1,39,39,3,0.73933,2.9505,2,1.4245,1,1.4495
1,1,40,40,3,1.0317,3.7446,1,2.4209,1,1.1426
1,1,41,41,3,0.67787,2.6172,2,1.3888,0,1.2349
1,1,42,42,3,0.8294,3.369,2,1.8376,0,0.58257
1,1,43,43,3,0.68184,2.8303,3,1.738,0,0.68247
1,1,44,44,3,0.70519,3.4615,1,1.7592,1,0.97478
1,1,45,45,3,0.66404,3.1717,3,1.1407,0,0.67558
1,1,46,46,3,0.73301,3.2056,2,1.5789,0,0.54132
1,2,1,47,6,2.8862,5.6953,2,1.6654,1,1.6273
1,2,2,48,6,0.85918,5.9652,2,1.7682,1,0.69235
1,2,3,49,6,0.89843,5.791,2,1.2778,1,0.57903
1,2,4,50,6,0.78483,6.7321,2,4.8914,0,1.7645
1,2,5,51,6,0.74003,7.475,2,3.6484,1,1.2878
1,2,6,52,6,0.93483,6.407,3,1.2131,0,1.3248
1,2,7,53,6,1.3526,6.5949,3,1.8505,0,1.2399
1,2,8,54,6,0.87964,5.531,3,1.4824,0,2.7896
1,2,9,55,6,1.0518,5.1949,2,1.2036,0,0.57183
1,2,10,56,6,0.76552,6.0301,2,1.0538,1,0.65925
1,2,11,57,6,0.77841,6.242,2,1.4615,1,0.57687
1,2,12,58,6,1.3266,5.7272,2,1.4653,1,0.61448
1,2,13,59,6,0.88663,5.759,2,1.4375,1,0.80774
1,2,14,60,6,1.136,7.6328,3,1.9137,1,0.89167
1,2,15,61,6,1.3254,5.5384,3,4.0634,0,1.5856
1,2,16,62,6,0.96355,5.0945,2,1.4913,0,0.61273
1,2,17,63,6,0.88981,5.0368,3,1.7389,0,1.1701
1,2,18,64,6,2.3831,6.8808,2,4.3765,0,1.1795
1,2,19,65,6,0.86605,4.1177,1,2.0266,0,0.83761
1,2,20,66,6,2.7541,6.9289,2,2.4619,1,1.5134
1,2,21,67,6,1.2284,5.2781,2,1.3556,0,0.78421
1,2,22,68,6,0.77636,5.8414,1,1.3356,1,0.7443
1,2,23,69,6,1.1275,6.4537,2,1.7601,1,1.5384
1,2,24,70,6,1.0622,6.1049,2,1.5362,0,0.85662
1,2,25,71,6,0.91689,4.5808,2,1.722,0,0.95768
1,2,26,72,6,0.74998,4.2807,3,1.2351,0,0.53084
1,2,27,73,6,0.84678,6.87,2,1.9945,0,1.3646
1,2,28,74,6,1.0265,4.8656,2,1.7464,0,6.7421
1,2,29,75,6,1.1781,6.5529,3,1.6971,0,1.8175
1,2,30,76,6,0.59379,6.3915,1,2.4646,1,0.69081
1,2,31,77,6,1.0351,6.7453,3,1.374,0,0.64984
1,2,32,78,6,0.67331,4.7258,2,1.2415,0,0.61288
1,2,33,79,6,1.4118,6.2272,2,4.9763,0,0.56628
1,2,34,80,6,0.79398,5.5404,2,1.737,0,0.59406
1,2,35,81,6,0.68501,5.2961,3,1.0298,1,1.289
1,2,36,82,6,0.65034,3.9564,3,1.4777,0,0.5895
1,2,37,83,6,0.71832,5.4582,2,1.112,1,0.98007
1,2,38,84,6,1.5651,6.319,3,2.2467,1,2.9757
1,2,39,85,6,0.87386,5.5767,2,1.5137,1,0.63755
1,2,40,86,6,0.72491,5.9025,2,4.1221,0,0.61433
1,2,41,87,6,0.55444,5.1743,2,1.4371,1,0.59535
1,2,42,88,6,1.8361,5.1183,3,1.474,1,2.8622
1,2,43,89,6,1.5738,4.8481,3,1.5844,0,3.9419
1,2,44,90,6,0.53583,5.2344,2,4.8975,0,0.63327
1,2,45,91,6,0.93182,4.7467,3,1.2067,0,0.88714
1,2,46,92,6,2.1754,7.2361,2,1.157,1,0.59897
1,3,1,93,6,0.70638,4.9374,2,3.7141,0,2.1752
1,3,2,94,6,0.61856,5.3342,3,1.2479,0,0.51373
1,3,3,95,3,0.71808,3.97,3,1.5122,0,0.5417
1,3,4,96,6,0.49204,5.2772,2,1.4411,0,0.47363
1,3,5,97,3,0.80509,3.498,2,3.6506,0,0.53893
1,3,6,98,3,0.63994,1.9258,3,1.1989,0,0.81612
1,3,7,99,3,0.56087,3.0303,3,1.1627,0,1.1007
1,3,8,100,3,1.2087,4.2259,3,1.2541,1,3.3843
1,3,9,101,3,0.84864,4.2545,3,1.6116,1,1.4653
1,3,10,102,6,0.55896,4.7268,2,1.9428,0,1.9124
1,3,11,103,3,0.74438,3.4551,2,1.7659,0,0.48893
1,3,12,104,6,0.70998,4.9776,2,10.843,0,1.8276
1,3,13,105,3,0.76866,3.6963,2,1.5479,0,0.51409
1,3,14,106,3,0.60496,3.1867,3,1.0904,0,0.61145
1,3,15,107,6,0.60278,6.7717,3,1.4599,1,0.51385
1,3,16,108,3,0.66086,4.017,3,4.9756,0,0.74007
1,3,17,109,6,0.63874,6.3369,2,1.8983,1,0.6872
1,3,18,110,3,0.67953,2.8936,2,1.9484,0,0.77495
1,3,19,111,6,0.62882,4.5438,2,1.2561,1,0.5598
1,3,20,112,3,0.60511,4.737,2,2.1726,0,0.54454
1,3,21,113,6,0.56253,5.0685,3,2.6989,0,0.50385
1,3,22,114,6,1.578,5.8909,3,1.2507,1,0.81893
1,3,23,115,3,0.85559,2.8739,3,1.1818,0,0.70296
1,3,24,116,3,0.65139,2.5576,3,1.9838,0,1.3391
1,3,25,117,6,0.62942,5.02,3,1.5249,1,0.96195
1,3,26,118,3,0.68097,2.8539,3,1.2655,0,0.4542
1,3,27,119,3,0.77103,3.5234,2,1.1921,1,0.66401
1,3,28,120,6,0.77216,4.8983,2,2.2088,1,0.59841
1,3,29,121,3,0.56509,3.2429,3,1.1326,0,0.52953
1,3,30,122,3,0.50398,3.5496,3,2.4507,0,0.71473
1,3,31,123,3,0.57267,3.5378,3,1.1772,0,0.56409
1,3,32,124,6,0.58578,5.3713,3,2.2144,1,1.4653
1,3,33,125,6,0.54347,4.8047,3,2.1976,0,0.50457
1,3,34,126,6,0.36185,4.5942,2,1.6192,1,0.85442
1,3,35,127,3,0.63644,2.6973,3,1.8903,0,0.62093
1,3,36,128,3,0.62147,2.7869,2,1.3163,0,0.5912
1,3,37,129,3,0.84148,2.5888,2,9.7072,0,0.74088
1,3,38,130,6,0.70486,5.1608,3,1.3296,1,2.1794
1,3,39,131,6,1.1431,4.8519,3,2.2624,0,0.96429
1,3,40,132,3,0.69167,3.1524,3,1.013,0,0.85238
1,3,41,133,3,0.54607,3.9695,3,1.3358,0,0.72023
1,3,42,134,3,0.54495,4.4556,1,1.2386,1,0.88472
1,3,43,135,6,0.99113,4.9376,3,2.651,0,0.75319
1,3,44,136,6,0.86875,6.1331,2,1.8315,0,1.2004
1,3,45,137,6,0.69156,5.6274,3,1.1021,0,0.68149
1,3,46,138,3,1.1953,3.2024,3,1.2655,0,0.6773
1,3,47,139,6,0.76101,6.6178,3,1.268,1,0.58138
1,3,48,140,3,0.84794,4.3462,3,1.2576,1,0.73675
1,3,49,141,6,6.3422,4.3526,1,1.039,0,0.78729
1,3,50,142,6,0.84598,5.6311,1,1.3308,1,0.86541
1,3,51,143,3,0.69722,4.8071,3,1.1011,0,0.55582
1,3,52,144,3,3.1513,3.3803,3,2.6991,0,0.95419
1,3,53,145,3,1.3089,3.2501,3,3.8611,0,0.64617
1,3,54,146,3,0.69577,2.7569,3,0.89428,0,3.3788
1,3,55,147,6,0.97468,6.0761,3,1.0994,0,1.129
1,3,56,148,3,1.5536,2.6068,3,1.2326,0,1.6282
1,3,57,149,6,0.86288,5.4809,3,1.2196,0,0.71886
1,3,58,150,6,0.57492,4.9653,3,1.3094,1,0.56339
1,3,59,151,6,0.5917,5.4284,2,1.3284,1,0.74065
1,3,60,152,6,0.57361,7.4887,2,1.2454,1,0.91748
1,3,61,153,3,0.68788,2.2113,3,0.88682,0,0.62152
1,3,62,154,3,0.87341,4.1373,3,1.7868,0,0.55657
1,3,63,155,3,0.6575,3.6884,2,1.7142,0,0.64293
1,3,64,156,3,0.80529,3.8245,1,1.9541,0,0.70765
1,3,65,157,3,2.1893,3.632,3,1.4883,0,0.57069
1,3,66,158,6,0.61739,4.9447,3,1.4038,0,0.60846
1,3,67,159,3,0.72382,3.9509,3,1.0012,0,0.9066
1,3,68,160,6,0.88594,4.7198,2,1.4393,1,1.0977
1,3,69,161,3,0.71285,3.8811,2,1.2361,1,0.60854
1,3,70,162,6,0.77045,6.06,3,1.2879,1,2.5091
1,3,71,163,6,1.0483,4.8953,3,1.6814,1,0.76338
1,3,72,164,6,0.63587,6.1344,2,1.2331,1,0.87944
1,3,73,165,6,0.52096,4.9614,2,1.1678,0,0.79346
1,3,74,166,6,1.111,5.0905,3,1.0253,0,1.0897
1,3,75,167,3,0.67805,2.4681,3,1.0767,0,0.64092
1,3,76,168,6,0.70193,5.458,3,1.2132,0,0.7138
1,3,77,169,3,0.76273,3.3562,3,1.1792,0,0.95061
1,3,78,170,6,0.72792,5.7688,3,1.0599,1,1.3634
1,3,79,171,6,0.70726,6.0382,3,1.2492,1,0.70368
1,3,80,172,6,1.2413,4.9626,2,1.6055,1,0.63489
1,3,81,173,6,0.89884,5.3285,3,0.91679,0,1.6067
1,3,82,174,6,0.79154,6.8645,3,1.0895,1,0.56071
1,3,83,175,6,0.69419,4.1418,3,1.0293,0,0.58947
1,3,84,176,6,0.55429,5.485,3,1.0858,1,0.91955
1,3,85,177,3,0.68196,3.2421,2,1.2071,0,0.46238
1,3,86,178,6,0.96638,7.3421,1,1.562,1,0.65372
1,3,87,179,3,0.99272,3.252,3,1.076,0,0.51395
1,3,88,180,3,1.1725,2.8741,3,1.8311,0,0.54313
1,3,89,181,6,0.8668,5.6931,3,1.8269,0,0.8258
1,3,90,182,6,1.2274,5.0398,3,1.3256,1,0.63851
1,3,91,183,3,1.1474,2.6934,3,1.1855,0,0.59406
1,3,92,184,3,0.78667,3.0602,3,1.5586,0,0.58774
2,1,1,1,3,1.6963,2.3529,3,1.1678,0,1.7175
2,1,2,2,3,2.328,2.6383,2,1.7181,0,3.304
2,1,3,3,3,2.1086,3.0237,1,2.7306,0,3.9389
2,1,4,4,3,2.4843,2.4814,3,2.052,0,1.5676
2,1,5,5,3,3.2961,2.7737,3,1.6199,1,1.2059
2,1,6,6,3,2.4829,2.9415,3,1.2955,0,1.1545
2,1,7,7,3,3.0618,4.0486,2,2.3125,1,2.7892
2,1,8,8,3,1.9958,3.2147,2,2.0896,1,1.8077
2,1,9,9,3,1.5777,2.8775,3,5.6098,1,5.4897
2,1,10,10,3,1.7844,2.9801,1,1.2744,0,6.7631
2,1,11,11,3,3.8192,2.9147,1,2.5859,0,4.6163
2,1,12,12,3,1.4405,1.0368,2,1.7465,1,1.2039
2,1,13,13,3,2.4411,2.3214,1,1.7186,1,3.7426
2,1,14,14,3,2.1073,2.0093,3,1.424,0,4.0622
2,1,15,15,3,1.562,2.8527,2,1.4155,0,5.1781
2,1,16,16,3,1.9126,3.6522,1,2.212,0,4.5763
2,1,17,17,3,5.095,2.4918,2,1.2851,1,1.1559
2,1,18,18,3,2.1641,2.5401,3,1.609,0,3.8371
2,1,19,19,3,1.9055,3.1082,2,3.4692,0,6.9304
2,1,20,20,3,2.1432,3.1493,3,1.5023,1,4.6074
2,1,21,21,3,1.4053,3.0718,2,1.3544,0,13.16
2,1,22,22,3,1.1443,2.7155,1,3.7998,0,3.7143
2,1,23,23,3,1.4473,2.6181,2,1.1518,1,3.1688
2,1,24,24,3,1.562,2.8277,2,1.2357,0,2.6452
2,1,25,25,3,1.4472,2.8815,3,1.013,0,2.0904
2,1,26,26,3,1.2137,2.281,2,1.4618,0,1.2519
2,1,27,27,3,1.2087,1.7381,2,2.171,1,2.2561
2,1,28,28,3,1.0361,2.3334,3,1.3398,1,2.7858
2,1,29,29,3,1.1819,3.1822,1,2.0141,0,2.3412
2,1,30,30,3,2.232,1.6908,2,1.9738,1,2.2722
2,1,31,31,3,1.1034,2.1967,2,1.6781,0,0.92661
2,1,32,32,3,1.1103,3.6775,2,1.6712,0,4.5201
2,1,33,33,3,1.3112,2.9147,1,6.8638,1,6.0398
2,1,34,34,3,1.6832,3.2955,2,1.9857,1,1.2799
2,1,35,35,3,1.1171,2.6053,1,1.2814,0,0.98969
2,1,36,36,3,1.4067,2.9617,2,1.8489,0,2.1013
2,1,37,37,3,1.2351,3.0563,2,1.7807,0,3.6172
2,1,38,38,3,2.3116,3.8636,1,1.4977,1,1.4896
2,1,39,39,3,1.5003,4.1549,2,1.4138,1,2.5132
2,1,40,40,3,1.1925,3.4893,1,4.2173,0,2.3758
2,1,41,41,3,0.95739,4.0126,2,1.135,1,1.0437
2,1,42,42,3,1.2013,2.3309,2,1.5497,0,2.4912
2,1,43,43,3,1.2052,3.6718,1,2.1523,1,1.0676
2,1,44,44,3,1.1155,2.3835,2,1.3267,0,0.85123
2,1,45,45,3,1.3476,3.8322,2,2.8124,0,1.962
2,1,46,46,3,0.91216,2.5302,3,1.3258,1,1.6761
2,2,1,47,6,2.1747,5.6481,2,1.2926,1,0.83911
2,2,2,48,6,1.9749,6.474,2,1.6621,0,0.97675
2,2,3,49,6,1.6924,6.1501,3,0.98189,0,1.0914
2,2,4,50,6,1.5132,7.218,3,1.2544,1,1.6216
2,2,5,51,6,1.3301,5.4817,3,1.0693,0,0.89432
2,2,6,52,6,1.4312,6.6937,2,1.0152,0,7.4798
2,2,7,53,6,1.0413,7.5634,2,1.5501,1,0.96642
2,2,8,54,6,1.4622,5.4036,3,1.3389,0,1.147
2,2,9,55,6,1.3035,6.8207,2,1.7704,1,3.0581
2,2,10,56,6,0.86116,6.243,2,1.0362,1,0.82103
2,2,11,57,6,0.89534,4.1303,1,0.9848,0,0.81906
2,2,12,58,6,1.3957,4.5671,1,1.0235,1,0.98715
2,2,13,59,6,0.9117,5.0427,1,2.1022,0,1.3048
2,2,14,60,6,0.80594,6.3869,2,1.2103,1,1.3393
2,2,15,61,6,0.83596,5.996,2,1.0035,0,0.82124
2,2,16,62,6,0.98669,5.8583,2,1.4124,0,1.9291
2,2,17,63,6,0.90292,5.4849,3,0.95933,1,2.2033
2,2,18,64,6,0.74655,6.1688,3,1.1089,0,2.4516
2,2,19,65,6,1.0244,5.7505,1,2.7461,0,2.188
2,2,20,66,6,0.98644,5.3219,2,1.4029,0,1.2433
2,2,21,67,6,0.74501,5.9551,1,1.463,1,0.7158
2,2,22,68,6,1.1201,6.209,2,0.97301,1,0.76221
2,2,23,69,6,0.80481,6.1356,2,1.0967,0,0.8894
2,2,24,70,6,1.0896,5.0869,2,0.9498,0,2.4055
2,2,25,71,6,1.2464,5.3178,2,2.3856,1,1.8914
2,2,26,72,6,1.284,7.0427,3,2.9381,1,2.7303
2,2,27,73,6,0.9252,4.1391,2,1.2517,0,0.78192
2,2,28,74,6,0.85085,7.982,2,1.2004,0,1.0422
2,2,29,75,6,0.76821,7.9457,1,1.1383,1,0.99718
2,2,30,76,6,0.97412,3.9125,2,2.159,0,0.92316
2,2,31,77,6,1.6063,7.3981,2,1.526,0,3.6127
2,2,32,78,6,1.3424,5.964,3,1.0666,0,1.5792
2,2,33,79,6,0.85478,7.1859,2,1.4305,1,0.85166
2,2,34,80,6,0.82863,5.3184,3,1.5358,1,1.3934
2,2,35,81,6,0.64854,4.2062,2,1.3508,0,0.8059
2,2,36,82,6,0.84304,6.7648,2,2.491,1,0.88383
2,2,37,83,6,1.0028,7.6338,2,2.2145,0,1.742
2,2,38,84,6,0.90436,5.9983,3,3.6683,1,2.0155
2,2,39,85,6,1.1679,4.9436,1,1.0671,0,0.7172
2,2,40,86,6,1.0997,6.1916,1,1.039,1,0.83699
2,2,41,87,6,1.8104,8.4888,3,1.3167,0,1.2045
2,2,42,88,6,0.94238,5.94,1,1.0636,0,1.4898
2,2,43,89,6,0.83249,5.6432,2,1.4384,0,1.0209
2,2,44,90,6,2.0206,8.4819,1,2.1769,0,0.91247
2,2,45,91,6,0.89389,6.7774,2,1.2002,1,0.80467
2,2,46,92,6,1.151,6.4436,3,1.0505,1,3.0806
2,3,1,93,6,1.0577,6.4132,2,1.8151,0,1.3639
2,3,2,94,6,1.1419,4.8,2,1.674,0,0.97277
2,3,3,95,6,1.0934,7.2896,3,1.398,0,1.5021
2,3,4,96,6,1.1357,5.6697,3,2.3738,0,1.1463
2,3,5,97,3,0.86002,3.4027,2,0.8389,0,0.54939
2,3,6,98,3,0.8417,4.5641,3,1.2344,0,0.63085
2,3,7,99,6,0.88359,7.8199,2,1.8667,1,2.3409
2,3,8,100,3,0.7631,2.3317,3,1.1615,0,1.6037
2,3,9,101,3,0.88959,4.0249,2,0.91729,1,0.88106
2,3,10,102,3,0.85453,3.0481,3,0.83964,0,1.512
2,3,11,103,3,0.81807,3.407,3,0.90569,0,0.93609
2,3,12,104,6,0.91242,6.6676,3,1.2689,1,2.1817
2,3,13,105,6,0.68393,5.2197,2,2.213,0,1.4767
2,3,14,106,3,1.1107,3.1776,3,1.335,0,1.5435
2,3,15,107,6,0.91085,6.4396,3,1.6755,0,1.75
2,3,16,108,6,0.87627,6.7525,3,1.7068,0,1.4475
2,3,17,109,6,1.0529,7.3213,2,0.85741,1,0.96331
2,3,18,110,6,1.0456,6.5916,3,2.9392,0,3.9074
2,3,19,111,6,0.93169,6.7829,2,1.3924,0,1.4382
2,3,20,112,3,0.91784,2.1327,2,1.0386,1,1.0232
2,3,21,113,3,0.8089,3.8891,2,1.0398,1,1.024
2,3,22,114,6,0.83677,6.6849,1,1.0808,1,0.96534
2,3,23,115,3,0.76537,1.7545,2,1.1076,1,0.80048
2,3,24,116,3,0.73917,3.288,2,1.0278,0,1.0915
2,3,25,117,6,0.67661,8.1407,2,1.3342,1,0.80528
2,3,26,118,3,0.71241,2.2321,2,1.1122,0,0.60554
2,3,27,119,6,0.623,6.3891,1,1.0982,0,0.96674
2,3,28,120,3,0.72204,3.6621,2,2.3224,0,1.2067
2,3,29,121,6,0.85247,5.4214,2,2.6628,1,5.426
2,3,30,122,6,0.57854,7.0933,1,1.0633,0,0.8402
2,3,31,123,3,0.6425,2.8165,2,0.97447,1,0.96385
2,3,32,124,3,0.7069,2.1513,3,0.98971,1,1.4252
2,3,33,125,3,0.63571,2.6466,3,2.4639,0,0.55072
2,3,34,126,6,1.1523,5.894,2,1.2273,1,0.83922
2,3,35,127,3,0.76749,1.5445,3,1.5127,0,1.7011
2,3,36,128,6,0.67657,5.5288,2,0.99198,1,0.86423
2,3,37,129,3,0.69379,3.2548,2,0.95316,0,0.83336
2,3,38,130,6,0.51475,4.6687,1,1.1,0,3.0048
2,3,39,131,6,0.63856,5.4108,2,1.3151,1,1.3039
2,3,40,132,6,0.65053,6.1564,2,3.4754,0,3.3197
2,3,41,133,6,0.28848,5.313,1,1.4303,0,0.88873
2,3,42,134,6,0.55888,7.1532,2,1.6079,1,1.4363
2,3,43,135,6,0.61576,4.1176,1,0.97687,0,0.80316
2,3,44,136,3,0.71722,2.1565,2,1.3201,1,0.69659
2,3,45,137,3,0.6668,3.1939,2,2.1466,0,0.8406
2,3,46,138,6,0.70935,6.7534,1,0.94606,1,1.1139
2,3,47,139,6,0.67129,5.3613,1,3.5526,0,0.95455
2,3,48,140,6,0.6279,7.3553,1,1.0698,1,0.72127
2,3,49,141,3,0.57342,3.763,2,1.5115,0,2.0392
2,3,50,142,3,0.69391,3.767,1,1.1765,1,1.0018
2,3,51,143,6,0.93016,5.5688,2,1.8479,0,1.7423
2,3,52,144,3,1.7457,3.152,2,1.801,0,1.2425
2,3,53,145,3,0.91852,3.6578,2,3.5792,0,2.1232
2,3,54,146,3,0.58239,3.08,2,1.4001,0,1.3168
2,3,55,147,6,0.66716,4.8581,1,1.5633,1,2.0051
2,3,56,148,3,0.7294,3.2312,3,1.4254,0,0.58743
2,3,57,149,3,0.98305,3.9181,3,1.6382,0,0.57114
2,3,58,150,6,0.94164,6.2771,3,0.99931,1,0.69211
2,3,59,151,6,1.0008,5.868,3,1.7584,1,1.5742
2,3,60,152,6,0.77224,6.3369,3,0.97219,1,1.2851
2,3,61,153,3,0.721,3.1849,3,1.1388,0,1.1598
2,3,62,154,3,0.64935,3.4691,3,1.1379,1,1.4464
2,3,63,155,3,0.88977,3.7501,2,0.8759,0,0.5901
2,3,64,156,3,0.61998,2.9838,3,0.8501,0,0.54336
2,3,65,157,6,0.88925,5.7999,3,0.99441,1,1.7299
2,3,66,158,3,0.61723,2.8702,3,1.0777,0,0.55463
2,3,67,159,6,0.5905,5.8386,3,1.2256,0,1.189
2,3,68,160,3,0.6692,3.1967,3,1.4128,0,0.75424
2,3,69,161,6,0.56158,6.3554,3,1.1238,1,0.82564
2,3,70,162,3,0.55409,3.311,3,1.3093,0,1.2771
2,3,71,163,6,0.51699,6.3319,2,0.85538,1,0.77305
2,3,72,164,3,0.64284,2.6535,3,0.84196,1,0.75128
2,3,73,165,3,0.51332,2.8704,3,0.9031,0,0.52147
2,3,74,166,6,0.59141,6.0896,3,1.0125,0,1.0514
2,3,75,167,3,0.51309,3.3957,3,0.74709,1,1.191
2,3,76,168,3,0.5194,3.4979,3,2.3746,0,1.1718
2,3,77,169,6,0.56218,6.3556,2,0.81249,1,0.95073
2,3,78,170,3,0.57134,3.4742,2,1.167,0,0.60596
2,3,79,171,6,0.86375,6.0809,2,3.142,1,2.2334
2,3,80,172,3,0.61651,2.7443,2,1.0108,0,0.62807
2,3,81,173,3,0.47067,3.5239,3,2.3173,0,1.7895
2,3,82,174,6,0.55269,5.4844,3,0.85904,1,0.87629
2,3,83,175,3,0.54873,1.8056,2,1.2086,0,0.57641
2,3,84,176,6,0.55164,5.9076,3,1.0151,0,0.84138
2,3,85,177,6,0.5284,5.7304,3,1.1798,1,0.80202
2,3,86,178,3,0.65199,3.0954,3,1.7484,1,2.427
2,3,87,179,6,0.54153,6.2776,2,1.1001,1,0.76809
2,3,88,180,6,0.55751,6.0774,2,1.3007,0,0.693
2,3,89,181,3,0.65973,3.1778,3,0.82388,0,1.3747
2,3,90,182,3,0.52925,3.5059,1,0.87906,1,0.80178
2,3,91,183,6,0.60428,6.6119,2,2.7993,0,1.1043
2,3,92,184,3,0.7309,3.7322,2,0.58771,1,0.67313
3,1,1,1,3,2.0688,3.2168,2,3.0487,0,1.7894
3,1,2,2,3,1.2224,3.2722,2,1.3795,1,2.2414
3,1,3,3,3,1.2481,2.8575,2,1.056,1,3.0612
3,1,4,4,3,0.88001,3.095,3,1.2108,0,1.6275
3,1,5,5,3,0.79186,3.1525,3,0.88824,0,2.1363
3,1,6,6,3,3.2761,3.8959,2,1.3961,1,1.2296
3,1,7,7,3,0.96849,3.0446,2,0.96089,1,0.56589
3,1,8,8,3,0.82999,3.9064,2,1.1534,1,0.57016
3,1,9,9,3,0.89423,3.953,2,1.0132,1,1.3021
3,1,10,10,3,0.69122,3.6888,2,1.0152,1,0.59143
3,1,11,11,3,5.7666,2.8337,2,0.77413,1,0.80134
3,1,12,12,3,1.2797,3.3419,2,0.69524,1,0.66345
3,1,13,13,3,0.78445,3.108,2,0.68127,1,0.55497
3,1,14,14,3,0.83595,2.6827,3,1.1241,1,0.87624
3,1,15,15,3,0.8502,3.7059,3,0.64008,1,0.5505
3,1,16,16,3,1.8272,2.9133,3,1.4018,1,0.61753
3,1,17,17,3,0.72369,3.3634,3,0.79903,1,0.55393
3,1,18,18,3,0.7538,2.423,3,0.64549,1,0.53908
3,1,19,19,3,0.76428,2.4827,2,0.38693,1,0.71109
3,1,20,20,3,0.68694,2.8973,3,0.83851,1,0.6121
3,1,21,21,3,0.64181,3.8277,3,1.0829,1,0.2042
3,1,22,22,3,0.62431,2.8005,3,0.30056,1,0.22144
3,1,23,23,3,0.52662,2.7429,3,1.0097,1,0.20018
3,1,24,24,3,1.6993,3.1069,3,1.4434,1,0.2258
3,1,25,25,3,0.54807,3.3802,3,0.88633,1,0.1968
3,1,26,26,3,1.6266,4.2891,3,1.3891,1,0.28516
3,1,27,27,3,0.62348,3.2754,3,0.25705,1,0.22745
3,1,28,28,3,0.55476,3.3109,3,0.37186,1,0.60018
3,1,29,29,3,0.67148,3.7729,3,0.76589,1,0.56841
3,1,30,30,3,0.73107,3.209,3,0.37051,1,0.6973
3,1,31,31,3,0.51886,3.2218,3,0.69123,1,0.66394
3,1,32,32,3,0.50289,3.3227,3,0.87966,1,0.90218
3,1,33,33,3,1.5852,3.1799,3,0.86287,1,0.60107
3,1,34,34,3,0.73351,3.6821,3,0.662,1,0.35176
3,1,35,35,3,0.61664,3.9306,3,0.79843,1,1.0173
3,1,36,36,3,0.74031,3.6009,3,0.67743,1,0.56751
3,1,37,37,3,0.80592,4.1003,3,0.912,1,1.2646
3,1,38,38,3,2.914,3.8882,3,4.9518,1,5.0243
3,1,39,39,3,0.68606,4.0225,3,1.2145,1,0.63964
3,1,40,40,3,0.57362,4.1002,3,0.85102,1,0.68222
3,1,41,41,3,1.2096,4.3278,3,1.1183,1,0.63249
3,1,42,42,3,0.99929,3.1045,2,1.2784,0,2.3906
3,1,43,43,3,0.75767,3.5756,3,0.75645,1,0.57496
3,1,44,44,3,0.68919,3.6619,2,1.997,0,1.141
3,1,45,45,3,0.95956,3.99,3,0.50408,1,0.56022
3,1,46,46,3,1.0297,3.3927,3,0.42003,1,0.49729
3,2,1,47,6,1.2553,5.6108,3,1.4148,0,1.2647
3,2,2,48,6,1.1119,7.1173,3,0.78024,1,0.71554
3,2,3,49,6,1.0901,6.2122,3,1.877,1,0.8374
3,2,4,50,6,5.0038,5.3255,3,1.376,1,0.27693
3,2,5,51,6,2.1062,5.6718,3,0.71259,1,0.6774
3,2,6,52,6,3.6685,6.0029,3,0.57393,1,0.91411
3,2,7,53,6,0.5742,5.7279,3,0.41381,1,0.50467
3,2,8,54,6,1.13,7.0678,3,0.50471,1,0.51213
3,2,9,55,6,0.61342,6.9447,3,1.4993,1,0.5531
3,2,10,56,6,0.75378,6.1353,3,0.84496,1,1.4513
3,2,11,57,6,0.60156,6.608,3,1.3264,1,0.43792
3,2,12,58,6,0.61469,5.9799,3,0.60341,1,1.7849
3,2,13,59,6,2.1884,5.6819,3,1.007,1,0.87582
3,2,14,60,6,1.2293,6.8928,3,0.56422,1,0.6535
3,2,15,61,6,0.63701,7.6718,3,0.62062,1,0.47278
3,2,16,62,6,0.72933,5.8938,3,0.98879,1,0.58618
3,2,17,63,6,2.4028,5.0918,2,0.72721,1,0.90329
3,2,18,64,6,0.69032,7.4132,3,1.2869,1,0.60829
3,2,19,65,6,0.88224,7.2041,3,0.60846,1,0.56447
3,2,20,66,6,0.70741,6.9017,3,0.83062,1,0.94029
3,2,21,67,6,0.9021,5.7085,3,0.49939,1,0.5308
3,2,22,68,6,0.78009,6.132,3,0.87997,1,0.51591
3,2,23,69,6,0.60804,6.3024,3,0.4331,1,0.51886
3,2,24,70,6,0.71518,6.8292,3,0.46341,1,0.62869
3,2,25,71,6,1.2648,6.9697,3,0.28128,1,0.20612
3,2,26,72,6,0.94002,6.0995,3,0.60635,0,0.45078
3,2,27,73,6,0.84664,7.4201,3,0.36817,1,0.52108
3,2,28,74,6,0.78915,8.2492,3,0.31148,1,0.47745
3,2,29,75,6,0.66527,8.6927,3,0.40804,1,0.51439
3,2,30,76,6,0.66765,5.9584,3,0.55275,1,0.47217
3,2,31,77,6,1.0972,7.4819,3,0.46303,1,0.55408
3,2,32,78,6,0.91919,6.5328,3,1.5686,1,0.59321
3,2,33,79,6,0.59114,7.0017,3,0.65522,1,0.43654
3,2,34,80,6,0.66313,8.6817,3,0.71256,1,2.4165
3,2,35,81,6,0.87961,7.1934,3,0.40051,1,0.42022
3,2,36,82,6,0.65463,6.6486,3,0.37889,1,0.40315
3,2,37,83,6,0.81113,7.6554,3,0.33307,1,0.41925
3,2,38,84,6,0.74608,7.5942,3,1.0381,1,0.52209
3,2,39,85,6,0.99829,4.5449,3,0.30706,1,0.32637
3,2,40,86,6,0.57649,6.1423,3,0.37815,1,0.36452
3,2,41,87,6,0.75688,8.9387,3,0.44072,1,0.52616
3,2,42,88,6,0.89065,5.8127,3,0.90336,1,0.98434
3,2,43,89,6,0.51643,8.5191,3,0.86452,1,0.55333
3,2,44,90,6,0.77679,7.4908,3,0.41083,1,0.53823
3,2,45,91,6,0.72585,7.3155,3,0.40172,1,1.8217
3,2,46,92,6,0.54978,6.7944,3,1.0368,1,0.47097
3,3,1,93,6,0.87049,7.2354,3,0.7425,1,0.95355
3,3,2,94,3,1.9945,3.2641,3,0.33728,1,0.4872
3,3,3,95,6,0.91277,4.619,2,1.1998,0,1.3425
3,3,4,96,3,1.0862,4.2084,3,0.38006,1,0.5278
3,3,5,97,3,0.79155,3.577,3,0.62025,1,0.5222
3,3,6,98,6,0.65707,6.4384,3,0.62247,1,0.47519
3,3,7,99,6,0.92645,7.6271,3,0.43793,1,0.43613
3,3,8,100,3,0.80938,4.3653,3,0.37322,1,0.62619
3,3,9,101,3,0.61845,4.3954,3,0.34593,1,0.60159
3,3,10,102,6,0.68177,6.5057,3,0.47268,1,0.46362
3,3,11,103,3,1.0012,4.62,3,0.26363,1,0.37936
3,3,12,104,3,0.53989,1.4628,1,6.876,0,0.58884
3,3,13,105,3,0.56334,0.44525,2,1.8522,0,0.49226
3,3,14,106,3,0.61289,4.208,3,0.24138,1,0.40191
3,3,15,107,3,0.54063,4.9392,3,0.58686,1,0.4859
3,3,16,108,6,0.59323,7.43,3,0.66197,1,0.963
3,3,17,109,6,0.7251,6.59,3,0.88579,1,0.60843
3,3,18,110,6,0.55802,6.8024,3,0.38164,1,0.45549
3,3,19,111,6,0.64741,7.3833,3,0.95323,1,0.48338
3,3,20,112,3,0.55935,4.1654,3,0.37423,1,0.44016
3,3,21,113,3,0.71232,5.9552,3,0.77516,1,0.52751
3,3,22,114,3,0.59368,5.5919,3,0.80043,1,0.63215
3,3,23,115,3,0.54481,4.8935,3,0.5035,1,0.37332
3,3,24,116,3,0.79426,3.5663,3,0.53845,1,0.51249
3,3,25,117,6,3.4039,5.3818,3,0.29464,1,0.91521
3,3,26,118,6,0.59004,6.0757,3,0.39839,1,0.29328
3,3,27,119,3,0.66573,4.0805,3,0.31025,1,0.27533
3,3,28,120,6,0.6423,8.3041,3,0.27851,1,0.27822
3,3,29,121,6,0.84435,8.2413,3,0.48446,1,0.47079
3,3,30,122,3,0.86039,4.2153,3,0.29917,1,0.25702
3,3,31,123,6,0.80409,5.9595,3,0.25054,1,0.27061
3,3,32,124,3,1.3574,4.4994,3,0.31125,1,0.30139
3,3,33,125,6,1.5168,6.8838,2,0.24122,1,0.27707
3,3,34,126,6,0.95914,7.2774,3,0.21382,1,0.20543
3,3,35,127,6,1.3849,14.881,1,0.92316,1,0.9129
3,3,36,128,3,0.97907,4.6554,3,0.17453,1,0.19071
3,3,37,129,6,0.70987,7.5406,3,0.19846,1,0.25531
3,3,38,130,6,0.71838,7.1706,3,0.21918,1,0.24772
3,3,39,131,3,0.87861,3.9802,2,0.096701,1,0.23086
3,3,40,132,3,2.3145,2.6149,3,0.3904,1,0.43999
3,3,41,133,3,1.1368,3.7709,3,0.30188,1,0.39678
3,3,42,134,6,0.87186,6.9742,3,0.34845,1,0.43053
3,3,43,135,3,0.87453,5.4383,3,0.68958,1,0.37496
3,3,44,136,6,1.1883,0.30991,1,1.7753,0,0.5997
3,3,45,137,6,0.84456,8.9424,3,0.35634,1,0.43894
3,3,46,138,3,5.9022,2.4465,2,0.75104,0,1.133
3,3,47,139,6,0.78122,10.033,3,0.38581,1,0.42236
3,3,48,140,6,1.7065,5.4847,3,0.36004,1,0.36799
3,3,49,141,6,1.0283,7.3032,3,0.38203,1,0.51933
3,3,50,142,3,1.1699,4.1329,3,0.23726,1,0.28696
3,3,51,143,6,0.70375,7.0854,3,0.31773,1,0.30891
3,3,52,144,3,0.67995,4.6827,3,0.30983,1,0.29284
3,3,53,145,6,0.75182,6.8837,3,0.31648,1,0.46935
3,3,54,146,6,0.82428,6.7003,3,0.20559,1,0.45091
3,3,55,147,3,0.78091,5.1088,3,0.20218,1,0.27184
3,3,56,148,3,0.57688,4.991,3,0.25204,1,0.28427
3,3,57,149,3,0.90142,5.2206,3,0.30031,1,0.29561
3,3,58,150,6,0.7745,7.3009,3,1.505,1,0.67094
3,3,59,151,6,1.1506,6.7557,3,0.39775,1,0.62964
3,3,60,152,3,0.74234,4.7901,3,0.86403,1,0.85293
3,3,61,153,6,2.222,0.72001,1,1.5968,0,0.65452
3,3,62,154,3,0.76268,4.144,3,0.93241,1,0.71647
3,3,63,155,6,0.82025,7.7725,3,0.36941,1,0.90953
3,3,64,156,3,0.78828,4.723,3,0.401,1,0.58394
3,3,65,157,3,0.97579,5.0639,3,0.39514,1,0.6772
3,3,66,158,3,0.46453,4.6183,3,0.35024,1,0.44379
3,3,67,159,6,0.91067,7.3409,3,0.73695,1,1.0215
3,3,68,160,6,1.0292,7.6434,3,2.0126,1,0.63794
3,3,69,161,6,0.73783,7.0108,3,0.46101,1,0.47549
3,3,70,162,3,1.4793,4.8909,3,0.67825,1,0.55012
3,3,71,163,6,0.54101,7.0282,3,0.27303,1,0.50222
3,3,72,164,6,0.55991,5.2414,3,0.27689,1,0.32503
3,3,73,165,3,0.621,4.3104,3,0.30682,1,0.37643
3,3,74,166,3,0.69538,5.5059,3,0.28902,1,0.35058
3,3,75,167,6,0.90444,6.6984,3,0.34049,1,0.36364
3,3,76,168,6,0.56446,7.2929,3,0.32471,1,0.30355
3,3,77,169,3,0.62136,4.2868,3,0.21119,1,0.31407
3,3,78,170,6,0.83995,6.9883,3,0.77087,1,0.87405
3,3,79,171,3,0.71419,4.1214,3,0.49979,1,0.71987
3,3,80,172,3,0.55735,3.7519,3,0.33535,1,0.68518
3,3,81,173,6,0.66014,7.5653,3,0.51476,1,0.81715
3,3,82,174,3,0.51698,4.7582,3,0.37626,1,0.77937
3,3,83,175,3,0.72146,3.0856,3,0.32753,1,0.40059
3,3,84,176,6,0.77337,6.0255,3,0.44928,1,0.83114
3,3,85,177,3,0.65131,3.4578,3,0.46778,1,0.65763
3,3,86,178,3,0.66494,4.0804,3,0.7226,1,0.52414
3,3,87,179,6,0.53973,8.464,3,0.28797,1,0.93687
3,3,88,180,6,0.56597,7.2059,3,0.39715,1,0.56618
3,3,89,181,6,0.68758,7.3983,3,0.58861,1,1.4366
3,3,90,182,6,0.53631,7.4233,3,0.57191,1,0.86105
3,3,91,183,3,0.70631,4.6758,3,0.24128,1,0.47589
3,3,92,184,3,0.46954,4.3723,3,0.72576,1,1.0531
4,1,1,1,3,3.1666,3.3905,3,2.0929,1,6.087
4,1,2,2,3,2.3277,3.5755,2,3.6306,1,3.3241
4,1,3,3,3,1.4644,2.4816,3,3.9739,0,1.5041
4,1,4,4,3,1.0715,3.522,2,3.003,0,7.0281
4,1,5,5,3,1.275,2.3254,3,2.6226,1,1.8571
4,1,6,6,3,1.437,2.8833,2,1.6991,1,2.0403
4,1,7,7,3,1.4595,2.7269,3,2.5979,0,1.6387
4,1,8,8,3,1.4446,2.4148,2,2.124,1,1.4476
4,1,9,9,3,1.0311,3.3443,2,2.2092,0,0.59866
4,1,10,10,3,0.96987,2.3206,3,1.7427,0,1.5247
4,1,11,11,3,0.79614,2.7305,2,1.4897,1,1.5101
4,1,12,12,3,1.2275,3.004,2,2.8024,0,1.8274
4,1,13,13,3,3.7952,2.2834,3,1.7272,0,1.5513
4,1,14,14,3,0.98574,2.633,3,3.0626,1,1.3245
4,1,15,15,3,0.70144,2.5446,2,2.763,1,1.375
4,1,16,16,3,0.96703,5.2061,1,2.591,1,2.3707
4,1,17,17,3,1.2937,2.9519,2,1.7014,0,2.2052
4,1,18,18,3,0.85021,2.6054,2,1.7929,0,2.1005
4,1,19,19,3,0.73911,2.4868,2,2.9665,0,1.4291
4,1,20,20,3,1.0435,3.3777,3,2.2227,1,2.0066
4,1,21,21,3,1.6315,2.3064,2,2.3578,0,1.4716
4,1,22,22,3,0.96707,2.9057,2,3.0677,1,0.99168
4,1,23,23,3,0.76869,3.5323,3,1.964,1,1.9044
4,1,24,24,3,2.3675,2.1325,2,1.6761,1,2.0621
4,1,25,25,3,1.6703,2.2703,3,2.1296,0,5.1143
4,1,26,26,3,1.0629,3.618,2,2.1986,1,2.5415
4,1,27,27,3,1.2429,3.5143,3,3.336,0,1.5013
4,1,28,28,3,1.5806,3.7559,2,3.6157,0,1.5759
4,1,29,29,3,2.3048,3.394,2,2.3218,0,1.2305
4,1,30,30,3,1.2965,3.1169,3,1.6494,1,2.4283
4,1,31,31,3,0.98921,2.7861,3,3.828,0,2.4825
4,1,32,32,3,2.0782,2.7509,3,2.8129,0,1.4509
4,1,33,33,3,0.72241,2.9504,3,1.6117,0,1.8912
4,1,34,34,3,0.84411,3.3162,3,0.82607,0,0.86701
4,1,35,35,3,0.81463,2.7213,2,1.5927,0,1.1747
4,1,36,36,3,0.85552,3.3744,3,1.2177,0,0.95532
4,1,37,37,3,3.1055,3.4409,3,1.1935,0,1.389
4,1,38,38,3,0.83285,2.9314,3,0.97485,0,0.83977
4,1,39,39,3,0.84774,2.8702,3,0.95317,0,0.53464
4,1,40,40,3,0.97664,2.8151,3,2.4354,1,2.1665
4,1,41,41,3,1.9238,3.4844,3,1.3283,1,1.567
4,1,42,42,3,2.4613,3.063,3,1.3118,0,0.65371
4,1,43,43,3,2.5932,3.1354,3,1.826,0,2.5377
4,1,44,44,3,0.87873,2.6935,3,1.1357,0,0.40674
4,1,45,45,3,0.79076,3.0014,3,0.98812,0,1.035
4,1,46,46,3,0.66676,2.6189,3,1.2656,0,0.54072
4,2,1,47,6,3.1532,5.969,2,2.7605,1,3.0851
4,2,2,48,6,2.561,5.8117,3,1.0641,0,1.1028
4,2,3,49,6,1.1788,5.9793,2,1.341,0,1.311
4,2,4,50,6,1.5777,5.8034,2,1.2983,0,1.79
4,2,5,51,6,0.78111,6.2456,3,3.4888,0,1.0528
4,2,6,52,6,0.14954,6.9453,3,1.4879,0,0.89486
4,2,7,53,6,1.6072,6.1122,3,1.2763,0,1.1516
4,2,8,54,6,2.7628,6.3374,2,1.4601,0,0.72733
4,2,9,55,6,2.463,6.1392,2,2.0004,0,0.81465
4,2,10,56,6,2.2377,6.1198,3,1.6961,0,0.51589
4,2,11,57,6,2.1503,5.8066,3,1.2633,0,1.6388
4,2,12,58,6,1.3938,5.9023,3,1.3598,0,0.77619
4,2,13,59,6,1.3189,5.8438,2,1.5393,0,0.68496
4,2,14,60,6,1.1682,6.344,2,2.699,0,0.55368
4,2,15,61,6,1.1278,5.9404,3,1.9028,0,0.47998
4,2,16,62,6,2.5054,5.544,3,1.7782,0,0.97601
4,2,17,63,6,1.7413,5.65,3,1.0076,0,0.56205
4,2,18,64,6,1.3805,5.242,3,1.6271,0,0.48886
4,2,19,65,6,0.95259,6.3455,2,1.8273,1,1.6888
4,2,20,66,6,1.9764,6.8748,2,1.812,1,1.6266
4,2,21,67,6,3.8919,5.7312,3,1.1052,0,0.59841
4,2,22,68,6,1.0674,6.1441,3,1.55,0,1.5166
4,2,23,69,6,1.5279,4.7281,3,1.3678,0,0.69267
4,2,24,70,6,0.90512,6.0354,3,0.55945,0,0.5656
4,2,25,71,6,7.2858,6.169,3,0.57104,0,0.57324
4,2,26,72,6,1.9305,6.4916,2,1.6641,0,0.58837
4,2,27,73,6,1.5254,6.225,2,1.6137,1,1.5146
4,2,28,74,6,1.5599,6.226,3,1.6871,0,0.44397
4,2,29,75,6,1.0121,6.0556,3,1.2122,0,0.50461
4,2,30,76,6,0.98287,6.4294,3,1.9647,0,0.65471
4,2,31,77,6,2.6363,6.2705,3,1.3221,0,0.4107
4,2,32,78,6,1.4759,6.0512,3,0.67107,0,0.57278
4,2,33,79,6,2.9673,7.2667,3,2.8293,0,0.81231
4,2,34,80,6,2.1567,7.2834,3,1.1164,0,0.45431
4,2,35,81,6,1.9877,6.8819,3,1.5532,0,0.46948
4,2,36,82,6,1.865,7.2935,2,1.5997,1,1.0034
4,2,37,83,6,1.856,6.1226,3,1.5247,0,0.44832
4,2,38,84,6,1.3017,6.2053,2,1.388,0,0.55851
4,2,39,85,6,1.4203,7.8707,2,1.2561,1,1.1484
4,2,40,86,6,1.9911,5.4103,3,0.50202,0,0.48415
4,2,41,87,6,0.41723,5.9331,3,1.2824,0,0.4784
4,2,42,88,6,0.97257,5.7613,3,0.6149,0,0.51727
4,2,43,89,6,9.774,5.9822,3,2.3677,0,1.0782
4,2,44,90,6,4.3591,5.9549,3,1.2237,0,0.54985
4,2,45,91,6,1.3406,5.4737,3,1.0747,0,0.53834
4,2,46,92,6,0.91806,5.495,3,0.79016,0,0.47544
4,3,1,93,6,2.1001,5.5692,2,1.8235,0,1.0964
4,3,2,94,3,3.1204,3.4944,2,2.3595,0,0.99788
4,3,3,95,6,1.6468,6.2546,2,1.8099,1,1.9378
4,3,4,96,3,2.5228,2.9437,2,1.5102,0,0.57694
4,3,5,97,3,2.2631,3.1519,3,1.9515,0,0.96618
4,3,6,98,3,1.7816,2.9067,3,1.0303,0,0.50229
4,3,7,99,3,0.78264,3.0417,3,1.1582,0,0.53732
4,3,8,100,6,1.6285,5.3532,2,0.85,0,0.65523
4,3,9,101,3,1.6097,3.6124,2,1.7233,0,0.52226
4,3,10,102,6,1.1638,5.6552,2,1.8511,1,1.1788
4,3,11,103,6,1.5562,5.6978,3,1.3057,0,1.2355
4,3,12,104,6,1.2089,5.1012,3,2.2366,0,1.7045
4,3,13,105,6,1.867,5.3824,3,1.3955,0,1.0407
4,3,14,106,6,1.0722,6.3105,2,1.7872,1,0.95784
4,3,15,107,3,1.8689,2.6794,2,1.0263,0,2.6385
4,3,16,108,6,0.37869,5.9193,2,1.5607,1,0.86361
4,3,17,109,3,2.2369,3.2303,3,1.4485,0,0.51578
4,3,18,110,6,1.0486,5.9835,2,1.6944,1,0.87601
4,3,19,111,3,1.3428,2.8003,3,1.714,0,0.40436
4,3,20,112,6,3.832,5.713,3,2.8049,0,0.80445
4,3,21,113,3,2.9408,7.0075,3,0.72479,0,0.48798
4,3,22,114,6,1.3067,5.7486,3,1.1433,0,0.36521
4,3,23,115,6,1.6694,6.1061,2,1.6128,0,0.6402
4,3,24,116,3,1.7475,2.5922,3,0.98451,0,0.36911
4,3,25,117,3,1.3616,3.3284,3,0.70925,0,0.84064
4,3,26,118,6,2.4778,7.1753,2,1.0115,0,0.78044
4,3,27,119,6,1.9235,5.7609,2,2.3889,0,0.70682
4,3,28,120,3,1.697,2.9046,2,1.8036,0,0.93154
4,3,29,121,3,1.5544,2.6085,2,2.1594,0,0.61157
4,3,30,122,3,0.95301,2.2452,3,1.3516,0,0.43053
4,3,31,123,6,1.6086,6.6,2,3.3178,0,0.92852
4,3,32,124,6,1.1854,6.5197,3,2.1582,1,0.97235
4,3,33,125,6,0.95053,5.9945,3,1.2014,0,0.3686
4,3,34,126,6,1.0228,5.3987,3,1.6954,0,1.6773
4,3,35,127,6,0.71625,5.9674,3,1.7083,0,0.43624
4,3,36,128,6,0.75704,5.864,3,0.75423,0,0.34801
4,3,37,129,3,0.93287,3.6432,3,0.60628,1,1.5134
4,3,38,130,6,0.9469,6.6449,3,0.61264,0,0.17789
4,3,39,131,6,0.065238,6.2701,3,0.62153,0,0.1366
4,3,40,132,3,1.3419,3.2133,3,1.3124,0,0.16635
4,3,41,133,6,0.77074,5.5979,2,1.1937,0,0.42592
4,3,42,134,6,0.61432,5.6919,3,2.3367,0,2.0553
4,3,43,135,3,0.868,2.4197,2,1.1417,0,0.52564
4,3,44,136,6,1.2429,5.8517,3,1.5336,0,0.47957
4,3,45,137,6,0.86175,5.6933,3,1.3005,0,0.85573
4,3,46,138,6,1.4573,5.7479,3,1.4307,0,1.2139
4,3,47,139,6,2.6396,5.557,3,1.1527,0,0.45766
4,3,48,140,3,2.6705,6.1175,2,2.0069,0,0.93369
4,3,49,141,6,0.85762,6.288,2,1.3239,0,0.18665
4,3,50,142,6,0.84015,5.3007,3,0.73504,0,0.15737
4,3,51,143,3,1.3431,3.0509,2,1.8013,0,0.55386
4,3,52,144,3,0.49993,3.2686,3,1.7135,0,1.1664
4,3,53,145,3,0.63463,3.1461,3,1.7371,0,0.56953
4,3,54,146,6,0.64112,5.2632,3,1.5681,0,0.30566
4,3,55,147,3,2.851,2.867,3,0.60078,0,0.43188
4,3,56,148,6,1.0233,5.4131,3,1.1918,0,0.25058
4,3,57,149,3,0.91735,2.7058,3,0.73069,0,0.21614
4,3,58,150,3,0.6993,3.1802,3,0.5134,0,0.10234
4,3,59,151,6,0.77448,6.1632,2,1.5282,0,0.18989
4,3,60,152,3,0.85903,2.9406,3,0.96929,0,0.14474
4,3,61,153,3,0.5556,2.8879,3,1.0536,0,0.25853
4,3,62,154,6,0.96361,5.5572,3,1.0865,0,0.17025
4,3,63,155,6,1.1675,6.1059,3,2.813,1,0.58789
4,3,64,156,3,0.66753,2.1185,2,2.8669,0,0.51671
4,3,65,157,3,0.55415,2.4617,3,1.6497,0,0.77848
4,3,66,158,3,0.75403,2.8227,3,0.7311,0,0.34165
4,3,67,159,3,0.79158,3.3396,3,1.5163,0,0.8661
4,3,68,160,6,0.54355,6.3796,3,1.1401,0,0.29977
4,3,69,161,6,0.82147,5.2983,2,1.3071,0,0.39946
4,3,70,162,3,0.65531,5.9493,2,0.43197,0,0.9563
4,3,71,163,6,0.70435,6.648,3,1.6911,1,1.2477
4,3,72,164,3,0.8507,2.9438,3,0.76009,0,0.70364
4,3,73,165,3,1.229,2.7923,3,0.44599,0,0.19037
4,3,74,166,6,0.65359,5.7597,3,0.82568,0,0.42696
4,3,75,167,6,1.3903,5.1733,3,1.1002,0,0.43052
4,3,76,168,3,0.94732,3.3949,3,0.65982,0,0.4165
4,3,77,169,3,0.51601,2.7062,3,0.56914,0,0.18486
4,3,78,170,3,0.623,3.6262,3,0.51862,0,0.7218
4,3,79,171,6,0.66301,7.4441,3,1.3889,0,0.99769
4,3,80,172,3,0.48017,2.7454,3,0.58682,0,0.34773
4,3,81,173,3,0.60335,3.0098,3,0.60992,0,0.60365
4,3,82,174,6,1.0645,7.7701,2,2.0433,1,0.46192
4,3,83,175,3,0.7634,2.445,3,1.0114,0,0.8797
4,3,84,176,6,1.1048,6.0599,3,1.7126,0,0.42742
4,3,85,177,6,1.0864,5.9822,3,1.3684,0,0.86845
4,3,86,178,3,1.3488,2.4316,3,1.0497,0,0.79254
4,3,87,179,3,1.0219,2.3355,3,0.74103,0,0.41401
4,3,88,180,3,0.80221,2.7837,3,1.8876,0,4.1437
4,3,89,181,6,0.59666,5.8441,2,0.77741,0,0.37903
4,3,90,182,3,0.75043,3.5198,3,1.1885,1,0.30922
4,3,91,183,3,0.81178,2.7804,3,1.3879,0,0.3712
4,3,92,184,3,0.5881,2.736,3,1.4657,0,0.46508
5,1,1,1,3,0.99977,2.5307,3,0.91485,0,1.9655
5,1,2,2,3,0.66227,2.1184,3,1.5794,0,1.091
5,1,3,3,3,0.8761,2.4662,3,1.362,1,1.1913
5,1,4,4,3,0.61348,3.8446,2,1.446,1,0.80427
5,1,5,5,3,1.1097,2.7519,3,1.1014,1,2.2316
5,1,6,6,3,0.78139,2.0087,3,0.79894,0,0.72931
5,1,7,7,3,0.51575,2.3554,3,0.76941,1,0.82075
5,1,8,8,3,0.41727,2.1203,3,1.3558,1,1.1978
5,1,9,9,3,0.53444,1.5463,3,1.2497,0,0.99221
5,1,10,10,3,0.38312,1.8203,3,0.74425,0,0.77948
5,1,11,11,3,0.38789,2.0629,3,0.99611,0,0.57682
5,1,12,12,3,0.45234,2.3838,3,0.92745,0,1.2535
5,1,13,13,3,0.49419,2.0667,3,0.92716,1,1.554
5,1,14,14,3,0.39424,1.5053,3,0.79693,0,0.76521
5,1,15,15,3,0.386,2.1859,3,0.71689,0,0.6063
5,1,16,16,3,0.45675,3.0013,3,5.6144,1,1.4932
5,1,17,17,3,0.43785,2.1738,3,2.834,0,2.2047
5,1,18,18,3,0.50595,2.6508,3,0.87624,0,0.76332
5,1,19,19,3,0.36134,1.9306,3,0.80098,0,0.90582
5,1,20,20,3,0.33239,1.8678,3,0.75417,1,0.52263
5,1,21,21,3,0.4158,2.0064,3,0.69554,0,0.76547
5,1,22,22,3,0.50735,2.3392,3,0.85743,0,0.43742
5,1,23,23,3,0.3013,1.7471,3,0.78701,0,0.62183
5,1,24,24,3,0.43079,1.7922,3,0.82473,0,1.1889
5,1,25,25,3,0.58,2.9336,3,0.53628,1,1.1979
5,1,26,26,3,0.49687,1.645,3,0.60214,0,0.52161
5,1,27,27,3,0.60631,1.9491,3,1.1276,0,0.85291
5,1,28,28,3,0.46136,2.919,2,0.86473,0,0.20273
5,1,29,29,3,0.40481,2.3617,2,0.71363,1,0.74064
5,1,30,30,3,0.78068,2.1197,3,0.68003,1,0.87784
5,1,31,31,3,0.34328,2.4919,3,0.90923,0,2.1018
5,1,32,32,3,1.1109,2.7651,2,0.92397,0,1.3264
5,1,33,33,3,0.33265,1.7566,3,1.2602,1,0.61479
5,1,34,34,3,0.4013,2.2211,3,1.5319,1,0.95182
5,1,35,35,3,0.29717,1.8052,3,0.93361,0,1.1431
5,1,36,36,3,0.32571,2.9159,2,1.5619,0,0.51485
5,1,37,37,3,0.35428,2.0867,2,2.1929,0,0.88566
5,1,38,38,3,0.35722,1.7527,3,0.93046,0,0.59014
5,1,39,39,3,0.46652,2.4063,2,1.1577,0,1.4377
5,1,40,40,3,0.38128,2.355,2,1.2443,0,0.88952
5,1,41,41,3,0.35655,1.8389,3,0.63304,0,0.6315
5,1,42,42,3,0.35694,1.9644,3,0.58762,1,0.79883
5,1,43,43,3,0.62411,2.2265,2,0.46142,0,0.60081
5,1,44,44,3,0.34721,1.3049,3,0.80943,0,0.63967
5,1,45,45,3,0.29589,2.4071,3,0.59631,0,0.48987
5,1,46,46,3,0.3577,2.5656,3,0.57388,1,0.55194
5,2,1,47,6,0.44494,3.569,3,0.82401,0,0.51324
5,2,2,48,6,0.38166,3.3924,2,0.58187,0,0.86763
5,2,3,49,6,0.65625,3.6875,3,0.83929,0,0.62367
5,2,4,50,6,0.39096,4.6516,3,0.53854,1,0.58619
5,2,5,51,6,0.49872,3.4183,2,1.662,0,0.60195
5,2,6,52,6,0.28052,2.9424,2,0.59548,0,0.49016
5,2,7,53,6,0.28688,3.7741,3,0.51675,1,0.46856
5,2,8,54,6,0.36529,4.2692,3,0.43884,1,0.075321
5,2,9,55,6,0.30079,2.647,3,0.67586,0,0.61395
5,2,10,56,6,0.37511,3.4652,2,0.63869,1,0.58658
5,2,11,57,6,0.5069,3.8383,3,0.79015,1,0.87508
5,2,12,58,6,0.69068,4.5265,2,0.67977,0,0.53955
5,2,13,59,6,0.47895,6.1806,3,0.60447,1,0.84888
5,2,14,60,6,0.41479,6.9056,2,0.83439,1,1.5939
5,2,15,61,6,0.49656,4.8453,2,0.59288,0,0.50357
5,2,16,62,6,0.42579,5.3766,3,0.59153,0,0.83901
5,2,17,63,6,0.30737,4.8648,2,0.72189,0,0.073731
5,2,18,64,6,0.35437,5.5496,3,0.55885,0,0.47757
5,2,19,65,6,0.33624,5.9112,3,0.52652,0,0.49073
5,2,20,66,6,0.84219,4.8269,2,0.45508,0,0.54839
5,2,21,67,6,0.58637,4.2605,3,0.64305,1,1.3037
5,2,22,68,6,0.42636,3.8428,2,0.7307,1,0.65415
5,2,23,69,6,0.35744,3.7887,3,1.3029,0,1.3946
5,2,24,70,6,0.40076,5.1082,3,0.56286,0,0.37848
5,2,25,71,6,0.49959,3.5569,2,0.55521,0,0.4868
5,2,26,72,6,0.77705,4.991,3,0.56478,0,0.45359
5,2,27,73,6,0.49499,4.4067,3,0.60105,0,0.43294
5,2,28,74,6,0.38,13.779,1,3.6628,1,0.77278
5,2,29,75,6,0.56748,5.5574,2,1.5237,0,0.44841
5,2,30,76,6,0.44819,3.5803,3,0.34959,0,0.40581
5,2,31,77,6,0.58705,4.785,3,0.75073,0,0.48109
5,2,32,78,6,0.35892,4.4034,2,0.49897,0,0.46788
5,2,33,79,6,0.38595,5.1967,2,0.28108,0,0.76801
5,2,34,80,6,0.58837,5.9869,1,1.6348,1,1.9055
5,2,35,81,6,0.33457,0.25947,1,1.6996,0,0.85225
5,2,36,82,6,1.0446,4.4166,2,0.97432,1,1.0377
5,2,37,83,6,0.59423,5.7296,2,0.92888,1,0.81365
5,2,38,84,6,0.62997,3.402,2,0.7009,0,0.50597
5,2,39,85,6,0.64813,5.8052,3,0.85072,1,1.5557
5,2,40,86,6,0.6271,4.3422,2,2.1283,0,0.66432
5,2,41,87,6,0.34026,4.3644,2,0.65884,0,0.51465
5,2,42,88,6,0.45203,5.5104,2,0.96477,0,0.64081
5,2,43,89,6,0.78134,6.3828,2,1.0059,0,0.36143
5,2,44,90,6,0.49943,5.0188,2,0.8246,1,0.61398
5,2,45,91,6,0.4413,4.4395,2,0.8761,0,0.31429
5,2,46,92,6,0.80073,5.2694,3,0.61291,0,2.5025
5,3,1,93,6,0.52085,4.6361,2,1.1129,1,0.63887
5,3,2,94,3,0.63354,2.607,3,0.51996,0,0.59689
5,3,3,95,6,0.51836,6.333,1,1.3435,1,1.0262
5,3,4,96,6,0.32323,5.676,3,1.0385,0,0.58541
5,3,5,97,3,0.46893,3.0091,2,0.89646,1,0.91348
5,3,6,98,6,0.55092,3.732,3,0.7137,0,0.5279
5,3,7,99,6,0.4146,4.5186,2,0.70111,0,1.0449
5,3,8,100,3,0.43192,1.8047,3,0.60789,1,0.47651
5,3,9,101,6,0.38528,4.097,2,1.0229,0,1.2231
5,3,10,102,6,0.35593,6.2137,3,1.4277,0,0.4647
5,3,11,103,6,0.42839,3.3068,2,0.77977,0,1.0648
5,3,12,104,6,0.35121,3.8341,1,1.389,0,0.69695
5,3,13,105,6,0.54287,5.5028,2,0.83743,0,0.59734
5,3,14,106,6,0.81727,5.4946,3,0.50237,0,1.5602
5,3,15,107,3,0.54858,1.5552,2,0.55868,1,0.51656
5,3,16,108,3,0.76718,4.0062,2,0.64059,0,0.6513
5,3,17,109,6,1.1304,5.7561,2,0.43967,0,0.67537
5,3,18,110,3,0.80023,3.0816,2,0.58928,0,0.66175
5,3,19,111,3,0.65983,2.5148,2,0.75065,0,1.2938
5,3,20,112,3,0.47968,2.9705,2,1.9276,1,0.98941
5,3,21,113,3,0.48411,2.5449,2,0.57512,0,0.80141
5,3,22,114,3,0.78966,2.0005,3,0.4897,1,0.63792
5,3,23,115,6,0.38368,4.7959,2,0.76894,0,0.6835
5,3,24,116,6,0.40746,3.6016,2,2.0252,1,0.49777
5,3,25,117,3,1.336,3.0436,2,0.50944,0,0.57823
5,3,26,118,6,0.47437,3.4642,3,0.76173,0,0.48833
5,3,27,119,6,0.6671,5.5694,2,0.66084,0,0.78774
5,3,28,120,6,0.71135,4.768,3,1.2989,0,0.57895
5,3,29,121,3,0.71193,3.6809,3,0.63601,1,0.43472
5,3,30,122,6,0.33511,4.4709,2,0.76143,0,0.53912
5,3,31,123,6,0.41362,3.2705,3,1.252,0,0.53194
5,3,32,124,3,0.55721,2.4637,3,1.5014,0,0.68193
5,3,33,125,6,0.91845,4.5574,2,1.3642,0,0.5514
5,3,34,126,6,1.0793,6.5677,2,0.6689,1,1.3591
5,3,35,127,6,0.80149,5.5577,2,0.51271,1,0.41476
5,3,36,128,3,0.63966,3.6124,2,0.2485,1,0.51733
5,3,37,129,6,0.40126,4.6963,3,1.2195,0,0.59453
5,3,38,130,3,0.61685,2.3057,2,0.60719,0,0.87578
5,3,39,131,3,1.1432,2.8657,3,0.57698,0,0.53051
5,3,40,132,6,0.57569,4.1027,3,0.66123,0,0.65045
5,3,41,133,3,0.55389,2.1974,3,0.82527,1,1.4639
5,3,42,134,3,0.69462,2.1558,3,0.33248,1,0.21855
5,3,43,135,3,0.61767,2.5688,3,0.90338,0,0.84627
5,3,44,136,6,0.61355,4.2329,3,0.51171,1,0.96366
5,3,45,137,3,0.45991,2.8916,2,1.3584,0,0.7628
5,3,46,138,6,0.99516,6.4674,3,0.69392,0,0.078388
5,3,47,139,3,0.91809,2.4443,3,0.38758,1,0.3985
5,3,48,140,3,0.87434,1.6755,3,0.16189,1,0.51627
5,3,49,141,3,0.48829,2.2996,2,0.53782,0,0.46087
5,3,50,142,6,0.46739,3.4575,3,0.5298,1,0.57872
5,3,51,143,3,0.47152,1.5865,2,0.54504,0,0.68915
5,3,52,144,6,0.44348,4.0921,2,1.3173,0,1.1553
5,3,53,145,6,0.57637,4.0042,3,0.70123,1,0.41895
5,3,54,146,6,0.71629,3.8309,3,0.98586,0,0.73259
5,3,55,147,6,0.39398,4.6188,1,1.7136,1,0.50384
5,3,56,148,6,0.71201,5.6683,2,0.59684,1,0.3911
5,3,57,149,6,0.62356,4.9382,2,0.41545,0,0.51787
5,3,58,150,6,0.62615,6.1412,2,1.0514,1,0.41978
5,3,59,151,3,0.5918,3.9518,2,0.59882,0,0.44266
5,3,60,152,3,0.5798,3.0958,2,0.97359,1,1.2629
5,3,61,153,3,0.77759,3.2535,3,0.70402,1,0.74718
5,3,62,154,3,0.72182,3.0867,3,0.52647,1,0.76702
5,3,63,155,6,0.57218,0.13602,1,2.8862,0,0.97762
5,3,64,156,3,0.55664,3.1759,3,0.68355,1,0.53205
5,3,65,157,3,0.62826,2.9931,3,0.67131,0,1.8978
5,3,66,158,3,0.56695,3.1563,3,0.44286,0,0.81715
5,3,67,159,3,0.57754,2.7429,2,1.5356,1,0.092649
5,3,68,160,3,0.53715,2.9359,3,1.052,0,0.16998
5,3,69,161,3,0.6425,1.8654,2,0.68883,0,0.76274
5,3,70,162,6,0.49017,4.4759,3,1.2414,0,0.17549
5,3,71,163,3,0.59481,1.9929,2,0.62405,1,4.0018
5,3,72,164,3,0.49743,1.8161,3,0.51565,1,0.18024
5,3,73,165,3,0.41446,2.218,3,0.50315,0,0.26021
5,3,74,166,3,0.38254,2.3944,3,0.59964,0,0.13059
5,3,75,167,3,0.46671,3.0939,2,1.0231,1,0.4362
5,3,76,168,3,0.64968,2.8558,2,0.88096,1,0.090027
5,3,77,169,6,0.90439,4.6976,3,1.0466,0,0.25243
5,3,78,170,6,0.73164,3.655,2,0.96472,0,0.616
5,3,79,171,6,0.50868,3.5894,2,0.55477,0,1.0489
5,3,80,172,6,0.41736,4.7963,2,4.0567,1,0.81499
5,3,81,173,6,0.93829,4.4469,2,0.55961,0,1.0287
5,3,82,174,3,0.73591,2.0836,3,0.98895,1,0.27434
5,3,83,175,6,0.58366,5.1444,3,0.39155,1,0.47786
5,3,84,176,6,0.68895,4.0494,2,0.21223,0,0.29177
5,3,85,177,3,0.90299,2.3093,3,0.41122,1,0.6884
5,3,86,178,3,0.59393,2.6298,2,0.72577,0,2.539
5,3,87,179,3,0.51453,2.5928,2,0.70891,0,0.96421
5,3,88,180,3,0.89434,3.3411,3,0.57053,1,0.94706
5,3,89,181,6,0.84227,4.4904,3,0.48912,1,0.7629
5,3,90,182,6,0.58735,5.661,3,0.66455,0,0.56774
5,3,91,183,6,0.57912,6.4197,2,0.64613,0,1.2283
5,3,92,184,3,0.50191,3.2953,3,0.49837,1,0.9424
6,1,1,1,3,1.9721,3.1955,3,1.9613,0,2.626
6,1,2,2,3,3.043,4.4591,2,1.8916,1,0.5604
6,1,3,3,3,1.1973,4.1181,3,0.64758,0,1.8666
6,1,4,4,3,1.7144,3.5305,3,1.4612,0,1.7284
6,1,5,5,3,0.32623,4.0672,2,1.163,1,3.1638
6,1,6,6,3,1.8423,3.8239,2,0.49117,0,1.4904
6,1,7,7,3,1.773,3.5961,2,1.6855,0,2.2187
6,1,8,8,3,0.65673,2.839,2,0.85477,1,1.8607
6,1,9,9,3,0.5905,3.9012,2,1.36,1,0.88982
6,1,10,10,3,1.3425,3.0261,3,1.8722,0,1.4949
6,1,11,11,3,1.1717,3.4722,3,0.61667,1,3.6066
6,1,12,12,3,1.5267,3.2524,3,11.4,0,0.88319
6,1,13,13,3,0.71807,3.458,3,2.1685,0,1.6657
6,1,14,14,3,0.47876,1.9449,2,2.1882,0,0.70691
6,1,15,15,3,0.58294,1.7814,2,1.2142,0,0.31467
6,1,16,16,3,0.46286,3.0954,3,0.93521,0,0.64599
6,1,17,17,3,0.48753,3.0612,2,1.235,0,2.0442
6,1,18,18,3,0.72431,3.3006,3,1.078,1,0.21759
6,1,19,19,3,0.96907,3.1458,3,1.7485,0,1.1272
6,1,20,20,3,1.0821,2.9966,3,1.2128,1,0.43773
6,1,21,21,3,0.49792,3.2676,3,5.7238,0,1.1154
6,1,22,22,3,0.39522,2.6446,3,1.2618,0,0.39073
6,1,23,23,3,1.0087,4.489,2,1.4509,1,0.45443
6,1,24,24,3,0.68311,2.8315,3,1.3016,1,0.35598
6,1,25,25,3,0.46467,2.6931,3,0.7227,1,0.28681
6,1,26,26,3,0.48334,2.9202,2,0.92726,1,0.41716
6,1,27,27,3,0.62143,2.8609,2,1.3488,1,0.40263
6,1,28,28,3,0.47057,2.3352,3,0.82852,0,0.75034
6,1,29,29,3,1.4641,2.6546,3,1.1927,0,0.3893
6,1,30,30,3,0.64137,2.7891,3,0.51855,1,0.22126
6,1,31,31,3,0.38976,3.0632,2,2.1872,1,0.20582
6,1,32,32,3,0.55895,2.852,3,0.81422,1,0.42898
6,1,33,33,3,0.5273,2.9797,3,1.0625,1,0.21452
6,1,34,34,3,0.65715,3.4641,3,2.1121,0,0.5
6,1,35,35,3,0.46845,2.633,3,0.73817,0,0.62285
6,1,36,36,3,0.55894,2.9151,2,0.48509,0,0.37172
6,1,37,37,3,0.50532,3.124,2,0.48253,0,0.61803
6,1,38,38,3,0.4131,2.2209,2,1.3306,0,1.1142
6,1,39,39,3,0.4001,2.3194,2,0.66686,0,1.8807
6,1,40,40,3,0.4891,3.038,2,1.0416,1,0.5127
6,1,41,41,3,0.59071,3.5399,2,0.80368,0,1.0473
6,1,42,42,3,0.6879,2.9863,2,1.8138,0,0.45512
6,1,43,43,3,0.62506,2.6157,3,0.737,0,1.7341
6,1,44,44,3,0.45202,3.0595,3,1.5085,0,0.41267
6,1,45,45,3,0.65547,2.5988,2,1.8626,0,0.51539
6,1,46,46,3,0.46841,3.3464,2,1.6615,0,1.2388
6,2,1,47,6,1.0937,5.9272,2,0.66461,1,0.25404
6,2,2,48,6,0.54473,5.5561,3,1.2502,1,1.0311
6,2,3,49,6,0.71211,6.018,3,0.65772,0,0.55218
6,2,4,50,6,0.74206,4.9519,2,1.449,0,0.47832
6,2,5,51,6,0.63297,5.6934,3,3.0767,0,0.48489
6,2,6,52,6,1.1137,5.469,3,1.1482,0,0.42802
6,2,7,53,6,0.57496,4.7774,3,0.95472,0,0.73537
6,2,8,54,6,0.64034,6.7761,2,1.7265,1,0.33779
6,2,9,55,6,0.65042,6.6065,3,1.5367,0,0.53211
6,2,10,56,6,0.99693,6.5938,3,1.7536,0,0.26903
6,2,11,57,6,1.2895,5.8367,2,1.1598,0,0.75167
6,2,12,58,6,1.4099,5.8764,2,0.80131,0,0.51974
6,2,13,59,6,0.049097,6.42,2,1.1351,1,0.20647
6,2,14,60,6,0.73708,5.909,3,0.79947,1,0.43124
6,2,15,61,6,0.72799,5.9432,2,1.7875,0,0.59496
6,2,16,62,6,0.59839,4.7925,2,1.2662,0,0.34116
6,2,17,63,6,0.46162,4.6183,2,0.81365,0,0.74029
6,2,18,64,6,0.21103,4.7819,2,0.93339,1,1.8559
6,2,19,65,6,0.49867,5.7554,3,1.5892,0,0.42111
6,2,20,66,6,0.46778,5.3707,2,1.0253,0,0.2389
6,2,21,67,6,0.81829,6.3463,3,3.3024,0,0.31245
6,2,22,68,6,0.49258,4.4278,3,2.3955,0,0.67539
6,2,23,69,6,0.53351,7.1689,3,1.956,1,0.28361
6,2,24,70,6,0.47692,5.2918,2,1.5516,0,0.6178
6,2,25,71,6,1.1321,5.3209,3,2.8759,0,0.34723
6,2,26,72,6,0.80198,6.0329,3,0.54434,0,0.82582
6,2,27,73,6,0.66616,5.7315,3,0.96855,0,0.84509
6,2,28,74,6,0.86026,7.7908,3,0.89749,0,0.25306
6,2,29,75,6,0.092712,6.0301,3,0.67804,0,0.20141
6,2,30,76,6,0.24019,5.6138,3,0.54299,1,0.21567
6,2,31,77,6,0.77014,6.5216,3,1.1984,1,2.003
6,2,32,78,6,0.34934,4.3191,2,1.4348,0,0.54351
6,2,33,79,6,0.68267,5.8305,2,0.9551,0,0.53525
6,2,34,80,6,0.59269,3.6532,1,1.8391,0,0.58355
6,2,35,81,6,0.45648,5.0881,3,3.5145,0,0.70005
6,2,36,82,6,0.043295,5.318,3,0.93592,0,0.25786
6,2,37,83,6,1.1006,7.1185,3,0.52936,0,0.22828
6,2,38,84,6,0.44614,6.1704,2,1.6971,0,0.55493
6,2,39,85,6,0.53802,5.1114,2,1.5553,0,0.18353
6,2,40,86,6,0.40101,0.41988,1,1.5857,0,1.293
6,2,41,87,6,0.71365,5.6824,3,1.6828,0,0.29058
6,2,42,88,6,0.72054,5.4343,2,1.1607,1,0.2519
6,2,43,89,6,0.67948,6.5576,2,0.93799,1,0.27309
6,2,44,90,6,0.69078,5.2754,3,0.6764,1,0.80426
6,2,45,91,6,0.36446,5.8804,2,0.89145,0,0.35082
6,2,46,92,6,1.153,5.9072,3,2.278,0,0.27499
6,3,1,93,3,0.88558,3.0829,3,1.136,0,0.34469
6,3,2,94,3,0.48354,3.6069,2,1.1036,1,0.22179
6,3,3,95,3,0.36659,2.394,2,1.3492,0,0.22913
6,3,4,96,3,0.67971,2.9936,3,1.6224,0,0.32228
6,3,5,97,6,0.51831,5.6699,2,1.2998,1,0.55346
6,3,6,98,3,0.47088,2.9359,3,1.4271,0,0.70176
6,3,7,99,3,0.66596,4.0801,2,0.48531,1,0.29617
6,3,8,100,3,0.79791,3.245,3,0.67289,0,0.43751
6,3,9,101,3,0.63736,3.8986,2,1.0372,0,0.69648
6,3,10,102,3,0.74386,2.4547,3,1.1431,0,0.33854
6,3,11,103,3,0.68198,3.5045,3,0.74036,0,0.39997
6,3,12,104,3,0.50886,3.0657,3,0.37766,0,0.2268
6,3,13,105,6,0.46612,6.4061,2,0.46167,1,0.37711
6,3,14,106,3,0.48989,3.0007,2,1.4262,0,0.46263
6,3,15,107,6,0.87108,6.5474,1,1.4285,0,1.0398
6,3,16,108,6,0.48676,4.7604,3,0.88038,0,1.0392
6,3,17,109,3,0.82323,3.5621,2,1.4972,0,0.32503
6,3,18,110,6,1.0919,6.814,3,2.0894,0,0.88296
6,3,19,111,3,1.0141,3.3332,3,2.1255,0,1.2999
6,3,20,112,6,0.84724,7.4452,2,0.98845,1,0.71078
6,3,21,113,3,0.56967,3.3467,3,1.1246,0,0.81247
6,3,22,114,6,0.48999,5.2514,2,0.74881,1,0.46727
6,3,23,115,3,0.63565,3.7457,3,0.8717,0,0.42441
6,3,24,116,3,0.40644,3.239,3,2.8923,1,1.1963
6,3,25,117,3,0.45793,3.0283,3,1.1105,0,0.69153
6,3,26,118,6,0.51145,4.1805,2,2.2343,0,1.0904
6,3,27,119,3,0.51874,2.5711,2,0.68033,0,0.3028
6,3,28,120,6,0.63341,6.7315,2,1.6535,1,0.18219
6,3,29,121,6,0.48726,6.1364,3,1.1354,0,0.18104
6,3,30,122,6,1.2993,7.2701,3,1.1941,0,0.48899
6,3,31,123,6,0.98734,6.246,1,1.303,1,0.29437
6,3,32,124,3,0.80379,3.7606,3,1.119,0,1.4959
6,3,33,125,6,0.46248,4.8451,3,0.50563,0,0.62534
6,3,34,126,6,1.3852,5.6562,3,0.55169,0,0.83367
6,3,35,127,6,0.44196,6.8413,2,1.1744,1,1.0012
6,3,36,128,6,0.60352,6.4359,3,1.0708,0,0.29716
6,3,37,129,6,0.55792,7.1903,1,1.2477,1,1.2766
6,3,38,130,6,2.805,7.0674,1,2.0796,1,0.78911
6,3,39,131,6,0.40909,5.2281,3,1.0173,1,1.2692
6,3,40,132,6,0.15045,7.6709,3,1.1812,0,0.57823
6,3,41,133,3,7.686,5.6681,2,2.5091,0,0.84785
6,3,42,134,6,0.54255,6.4019,3,1.2969,0,0.52561
6,3,43,135,3,0.93556,4.0695,3,1.0493,1,0.6172
6,3,44,136,6,0.70672,6.5632,2,5.49,0,1.3517
6,3,45,137,6,3.5002,9.4147,2,1.9376,0,0.69415
6,3,46,138,3,0.66858,3.4209,3,0.60141,0,0.29565
6,3,47,139,6,0.89739,5.5814,3,2.457,1,1.3455
6,3,48,140,3,0.80267,5.2464,2,1.7179,1,1.1418
6,3,49,141,6,0.55217,5.3846,3,2.7227,0,1.0807
6,3,50,142,3,0.68356,3.8312,2,1.1867,1,0.47038
6,3,51,143,3,0.34628,4.5572,1,2.1031,1,0.42989
6,3,52,144,6,0.58711,5.7736,3,0.76337,0,0.90391
6,3,53,145,3,0.69823,3.3171,3,1.048,0,0.81526
6,3,54,146,6,0.47048,6.0107,3,1.089,0,1.4732
6,3,55,147,6,0.51377,13.171,1,1.544,1,0.21421
6,3,56,148,6,0.7857,4.171,3,0.8751,0,1.8161
6,3,57,149,6,1.5481,6.844,3,0.45222,0,0.1977
6,3,58,150,6,0.2693,5.4601,3,0.5769,0,0.21709
6,3,59,151,6,0.49735,6.0053,3,1.7619,0,0.12713
6,3,60,152,6,1.6817,10.606,2,0.76121,1,1.6796
6,3,61,153,3,0.61828,3.1464,2,1.2742,0,0.43706
6,3,62,154,6,0.40757,7.2275,3,4.9889,0,1.4535
6,3,63,155,6,0.50482,6.9491,3,0.3407,0,1.3146
6,3,64,156,6,0.60326,6.4487,2,1.9534,1,0.79391
6,3,65,157,3,0.84844,2.7918,3,1.2823,0,0.7785
6,3,66,158,3,0.77082,2.9728,3,1.7175,0,1.454
6,3,67,159,3,0.70065,4.0188,1,1.8611,0,0.602
6,3,68,160,3,0.8633,5.8824,1,3.0938,1,0.52205
6,3,69,161,3,0.34496,3.6441,3,0.4699,0,0.39889
6,3,70,162,6,0.51254,5.9438,3,0.40171,1,0.22052
6,3,71,163,6,0.3503,4.7462,3,0.75595,0,0.27514
6,3,72,164,6,1.2698,7.5457,2,2.0147,0,0.39212
6,3,73,165,3,3.8766,7.0433,3,1.0385,0,0.78672
6,3,74,166,3,2.1856,2.4031,2,1.2049,0,0.64656
6,3,75,167,3,0.81052,3.8023,2,0.70027,0,1.7819
6,3,76,168,6,0.69499,4.4179,2,0.36304,1,0.92835
6,3,77,169,6,0.5163,0.21939,1,2.285,0,1.8291
6,3,78,170,3,1.0353,3.4323,3,1.4015,0,1.206
6,3,79,171,3,0.70721,3.3774,2,1.4711,0,1.2573
6,3,80,172,3,0.75567,3.0252,2,1.5196,0,0.55647
6,3,81,173,3,0.6776,3.9053,2,1.2142,1,1.1017
6,3,82,174,6,0.41722,7.3694,3,0.29407,1,2.0008
6,3,83,175,3,0.43284,3.495,2,0.44703,0,1.2154
6,3,84,176,6,0.44846,5.3559,2,0.37689,0,0.51437
6,3,85,177,3,1.0269,3.3897,2,4.1056,0,0.35109
6,3,86,178,3,1.0492,4.2658,3,1.9371,1,0.98148
6,3,87,179,3,0.92106,3.123,2,1.0172,0,0.74375
6,3,88,180,6,0.057066,14.466,1,2.988,1,0.54212
6,3,89,181,6,0.58307,5.9568,3,0.65145,1,0.98223
6,3,90,182,3,0.59083,6.5656,1,1.3292,1,0.62848
6,3,91,183,3,0.63024,3.7565,3,0.60433,1,0.27389
6,3,92,184,6,0.79011,5.4387,3,0.31252,1,0.26664
7,1,1,1,3,2.1948,3.5007,2,2.9233,1,3.6817
7,1,2,2,3,4.0554,2.9431,2,5.7473,1,3.0931
7,1,3,3,3,1.2087,3.2527,3,2.1245,1,3.011
7,1,4,4,3,2.3,2.7942,2,2.3601,1,2.0244
7,1,5,5,3,1.382,4.0941,2,4.9947,1,4.017
7,1,6,6,3,1.9088,3.5117,3,1.2347,1,1.5686
7,1,7,7,3,1.3375,2.7331,3,2.0246,1,2.4856
7,1,8,8,3,1.671,3.5082,3,1.3684,0,2.0305
7,1,9,9,3,0.96974,2.7958,3,1.0249,1,2.2135
7,1,10,10,3,0.82606,3.3027,3,1.3516,1,1.1924
7,1,11,11,3,0.73554,3.3216,3,1.5273,0,2.6645
7,1,12,12,3,0.88342,2.6802,2,1.4637,0,1.8521
7,1,13,13,3,0.84012,3.5887,2,1.6774,1,0.96473
7,1,14,14,3,0.55151,3.3834,3,0.96086,1,1.0782
7,1,15,15,3,0.98092,3.9582,3,1.2793,0,1.1545
7,1,16,16,3,1.1468,3.2692,2,1.4515,0,4.8053
7,1,17,17,3,1.2099,2.2643,3,1.6487,1,1.8777
7,1,18,18,3,0.56006,2.9922,3,1.2951,0,1.2424
7,1,19,19,3,1.0233,3.1737,3,1.3808,1,0.68895
7,1,20,20,3,0.66614,3.7938,2,1.7077,1,2.2981
7,1,21,21,3,0.9824,3.1167,3,2.3418,0,3.3344
7,1,22,22,3,0.60827,3.4275,3,1.5961,0,1.3295
7,1,23,23,3,0.73756,2.9117,3,1.4729,1,1.0973
7,1,24,24,3,0.57141,2.5983,3,1.7416,0,1.611
7,1,25,25,3,1.0137,2.0805,2,1.2626,0,1.1171
7,1,26,26,3,0.86871,1.8581,2,1.0976,1,1.7532
7,1,27,27,3,0.5651,3.8552,2,1.414,1,0.92693
7,1,28,28,3,2.5864,2.7959,2,1.2737,0,0.87462
7,1,29,29,3,0.60791,3.3015,2,1.3371,0,1.4963
7,1,30,30,3,3.0298,2.713,3,1.25,0,1.154
7,1,31,31,3,0.98756,2.635,2,1.4019,1,6.2181
7,1,32,32,3,0.60501,3.6487,3,1.3003,1,1.8429
7,1,33,33,3,0.5744,3.4769,3,1.2707,1,1.6343
7,1,34,34,3,0.74117,2.3764,2,1.3483,1,2.0773
7,1,35,35,3,0.69122,2.2644,3,1.1992,1,1.9782
7,1,36,36,3,0.53813,3.662,3,1.7834,0,7.1535
7,1,37,37,3,0.54302,3.1767,2,1.3349,1,5.1936
7,1,38,38,3,0.61369,3.3709,3,1.1532,1,1.4705
7,1,39,39,3,0.3302,2.617,2,1.2762,1,0.81357
7,1,40,40,3,0.45839,2.878,3,1.073,0,2.0362
7,1,41,41,3,0.79546,2.6808,2,0.88921,0,1.5867
7,1,42,42,3,0.42601,3.6143,3,1.539,0,1.5711
7,1,43,43,3,0.33666,3.9741,3,0.99128,1,0.9381
7,1,44,44,3,0.69929,3.5431,2,1.833,1,0.81445
7,1,45,45,3,0.29291,3.7549,3,1.0641,1,1.0642
7,1,46,46,3,0.52104,2.7742,3,1.095,1,0.62937
7,2,1,47,6,3.4387,5.0202,3,1.651,0,0.86789
7,2,2,48,6,0.34971,6.7071,2,0.83771,1,0.98442
7,2,3,49,6,0.43735,6.7624,3,0.92456,1,0.964
7,2,4,50,6,0.65382,5.5117,3,1.1282,1,0.89167
7,2,5,51,6,0.41372,5.0419,3,1.1898,1,1.3868
7,2,6,52,6,2.5489,4.5789,2,1.0826,0,0.79089
7,2,7,53,6,0.40373,6.773,2,0.999,1,2.3544
7,2,8,54,6,0.51611,5.7301,2,1.4808,1,0.5763
7,2,9,55,6,0.33358,7.7205,3,0.86749,1,0.95703
7,2,10,56,6,0.93803,3.9103,2,0.88154,0,0.54131
7,2,11,57,6,0.39211,6.8281,3,1.3873,1,0.80797
7,2,12,58,6,0.59776,4.8791,3,1.2073,1,1.4866
7,2,13,59,6,0.66738,5.7569,3,2.0977,1,0.80401
7,2,14,60,6,0.50909,5.2521,2,1.6373,1,1.3078
7,2,15,61,6,0.40521,6.0624,3,1.4018,0,1.5067
7,2,16,62,6,0.39449,5.444,2,1.5275,1,0.98863
7,2,17,63,6,0.42795,5.2805,3,1.6945,1,1.501
7,2,18,64,6,0.44766,7.4545,3,2.0063,1,1.734
7,2,19,65,6,0.78475,6.2201,3,1.135,0,0.99388
7,2,20,66,6,0.4781,5.2558,3,1.2613,0,1.728
7,2,21,67,6,0.35446,7.9375,2,1.1542,1,1.0352
7,2,22,68,6,0.45413,6.8351,3,1.0064,0,1.3373
7,2,23,69,6,0.52564,6.5891,2,1.2744,1,0.86322
7,2,24,70,6,0.32886,8.9312,2,1.1886,1,0.072414
7,2,25,71,6,1.1431,6.5154,3,1.5793,1,1.9539
7,2,26,72,6,0.51874,4.7957,2,1.281,1,0.96556
7,2,27,73,6,0.56386,5.86,3,1.2748,1,0.83792
7,2,28,74,6,0.38968,3.9757,3,1.2057,1,1.5361
7,2,29,75,6,0.35107,7.4591,2,1.4242,1,0.63699
7,2,30,76,6,0.48131,6.5294,3,2.5138,1,3.0395
7,2,31,77,6,0.94157,7.9277,3,1.6241,1,1.1117
7,2,32,78,6,0.37738,4.4054,2,2.0501,1,6.5902
7,2,33,79,6,0.42397,5.4769,3,2.3281,1,1.4868
7,2,34,80,6,0.4723,4.7873,3,3.6118,0,4.6587
7,2,35,81,6,0.8664,7.2811,2,3.3256,1,1.5703
7,2,36,82,6,0.90823,4.5392,3,0.93879,0,1.6976
7,2,37,83,6,0.3443,7.0944,3,1.6847,1,1.0679
7,2,38,84,6,0.7823,6.9419,3,1.6256,1,0.67414
7,2,39,85,6,0.8686,6.2214,2,1.2104,1,3.1403
7,2,40,86,6,0.38196,6.0815,3,1.4921,1,0.76197
7,2,41,87,6,1.1657,5.6318,2,0.84427,1,0.76792
7,2,42,88,6,0.51861,6.1472,3,1.5413,1,0.53641
7,2,43,89,6,0.34729,4.917,2,1.2231,1,1.2109
7,2,44,90,6,0.36704,5.658,3,1.2999,0,1.3666
7,2,45,91,6,0.34644,7.0707,2,1.0951,1,1.4537
7,2,46,92,6,0.78091,8.3208,1,1.7167,1,5.2405
7,3,1,93,3,1.1834,2.5675,3,2.0506,0,0.80295
7,3,2,94,6,0.69004,4.9124,3,1.6194,1,0.64245
7,3,3,95,3,0.77,1.8718,3,1.271,0,0.49565
7,3,4,96,3,0.54295,2.2273,3,0.90113,0,0.55662
7,3,5,97,3,0.40036,3.5449,3,1.2469,0,1.2633
7,3,6,98,3,0.40377,2.9614,3,0.73548,0,1.1584
7,3,7,99,3,0.33072,2.9796,3,1.0376,1,0.87252
7,3,8,100,6,0.60032,6.1824,3,1.4809,0,1.0007
7,3,9,101,6,0.46303,4.6455,3,0.94354,0,0.51545
7,3,10,102,6,0.5742,5.9646,2,1.442,1,0.83752
7,3,11,103,3,0.53679,2.7852,3,0.95216,0,1.0955
7,3,12,104,3,0.40504,3.3009,3,1.1235,1,0.69919
7,3,13,105,6,0.40769,6.6407,3,0.87488,1,0.65119
7,3,14,106,6,0.3468,6.7296,3,1.1257,0,0.42673
7,3,15,107,6,0.55337,6.2346,3,0.90744,1,1.0765
7,3,16,108,3,0.63195,2.8176,3,1.2136,0,0.48803
7,3,17,109,6,0.93483,5.5327,3,0.83287,1,0.75411
7,3,18,110,3,0.80055,2.6198,3,1.2027,0,0.51999
7,3,19,111,3,0.53766,3.0737,2,1.3189,0,1.0689
7,3,20,112,3,0.42142,3.3248,3,0.51885,0,0.6963
7,3,21,113,3,0.36312,2.7703,3,0.86703,1,1.0937
7,3,22,114,6,0.31111,7.4066,2,1.6212,1,0.64547
7,3,23,115,3,0.4421,3.1027,3,1.2151,1,0.77774
7,3,24,116,3,0.40928,3.5284,3,1.072,1,0.63542
7,3,25,117,6,0.31504,5.3934,3,1.528,1,0.78777
7,3,26,118,6,0.29025,4.2279,3,1.0945,1,0.7652
7,3,27,119,6,0.41428,6.7546,3,0.7851,1,0.74523
7,3,28,120,6,0.38501,4.9214,2,0.67376,0,1.1382
7,3,29,121,6,0.3652,5.0811,3,0.92059,1,0.72115
7,3,30,122,6,0.4237,6.9768,2,0.82653,1,0.87898
7,3,31,123,3,1.7515,3.3419,3,1.1582,0,0.49964
7,3,32,124,6,0.32186,6.5509,3,1.1063,0,0.78671
7,3,33,125,6,0.30302,6.0856,2,1.6211,0,0.89614
7,3,34,126,6,0.32281,7.3519,3,0.9801,1,2.0645
7,3,35,127,6,0.31936,5.4481,3,1.0315,1,0.75394
7,3,36,128,3,0.29624,2.8339,3,1.1868,0,0.85816
7,3,37,129,3,1.0148,2.8329,3,3.9996,0,4.8622
7,3,38,130,3,1.0089,2.8768,3,1.5096,0,0.58818
7,3,39,131,3,0.59701,3.983,3,1.525,0,1.7246
7,3,40,132,3,0.39252,2.5667,3,0.95115,0,0.81831
7,3,41,133,6,0.26858,4.6975,3,1.6955,0,5.9779
7,3,42,134,6,2.2186,7.8577,3,1.1477,1,0.68921
7,3,43,135,3,0.59499,2.5061,3,1.0438,0,0.65252
7,3,44,136,3,0.8452,2.2177,3,1.6897,0,0.67206
7,3,45,137,6,0.26758,6.3961,3,1.2765,0,2.0266
7,3,46,138,6,0.51449,3.9304,3,1.2101,0,2.8515
7,3,47,139,6,0.77713,4.1789,2,0.98363,0,2.393
7,3,48,140,3,0.52049,2.1981,2,1.0625,0,0.73904
7,3,49,141,6,0.31824,4.1959,3,1.2341,1,0.60506
7,3,50,142,3,0.82096,3.247,3,1.7,1,1.3277
7,3,51,143,6,0.70916,5.3276,3,1.1653,0,1.0035
7,3,52,144,3,0.34515,2.4816,3,1.211,0,1.6788
7,3,53,145,6,0.29977,5.6823,2,1.406,1,1.0984
7,3,54,146,6,1.0369,6.5091,3,1.4476,1,1.001
7,3,55,147,3,1.0035,3.5594,3,0.944,1,1.6425
7,3,56,148,6,0.50895,5.0771,3,1.0672,0,0.50525
7,3,57,149,6,0.33988,4.2388,2,0.75196,0,0.60798
7,3,58,150,6,0.27561,5.2045,3,1.3259,1,1.1891
7,3,59,151,6,0.25097,6.9952,3,1.2869,1,0.88345
7,3,60,152,3,0.44493,2.8445,3,1.3361,0,1.744
7,3,61,153,6,0.3098,7.0425,3,1.5126,1,0.62918
7,3,62,154,3,0.34513,3.7948,3,0.94618,0,0.93871
7,3,63,155,3,0.32183,3.4386,3,1.4025,0,0.99392
7,3,64,156,6,0.34884,6.4566,2,0.8736,1,0.70105
7,3,65,157,6,0.27938,6.4703,2,1.6221,0,0.69523
7,3,66,158,6,0.33129,7.2294,3,1.2004,1,1.5922
7,3,67,159,3,0.5412,3.2646,3,1.038,0,1.1849
7,3,68,160,3,0.33544,3.9346,3,0.97676,1,0.82903
7,3,69,161,6,0.8417,7.5011,2,0.67961,1,0.62696
7,3,70,162,3,37.294,13.021,1,4.5952,1,1.343
7,3,71,163,6,0.50023,4.5079,2,1.4408,1,1.6479
7,3,72,164,3,1.4163,3.7578,3,1.2419,1,0.6755
7,3,73,165,6,0.7691,7.1206,3,1.3075,1,1.3999
7,3,74,166,3,0.39679,1.632,2,1.2901,0,0.58687
7,3,75,167,3,2.6988,4.3404,3,1.2528,1,1.2574
7,3,76,168,6,0.68114,6.4049,3,0.79705,0,1.7782
7,3,77,169,3,1.7788,3.8526,2,0.77456,0,0.75056
7,3,78,170,3,0.85867,3.8268,3,0.83273,1,0.8676
7,3,79,171,3,0.84836,3.9288,2,0.64614,0,2.2032
7,3,80,172,3,0.63292,3.4572,3,0.86687,0,0.90626
7,3,81,173,3,0.30295,3.6721,3,1.1038,0,0.94534
7,3,82,174,6,0.31667,5.9709,3,0.46068,1,2.2007
7,3,83,175,6,0.2487,5.3313,2,1.3957,1,0.86571
7,3,84,176,6,0.30929,5.4784,2,1.155,1,0.59717
7,3,85,177,6,0.28035,4.7928,3,0.86573,0,1.1049
7,3,86,178,6,0.30236,6.4592,3,1.1109,1,2.1292
7,3,87,179,3,0.74571,3.8553,3,0.7649,0,0.77864
7,3,88,180,6,0.3373,3.824,2,1.1799,1,0.75166
7,3,89,181,3,0.31149,2.7943,3,0.92258,0,0.82425
7,3,90,182,3,2.3931,3.9607,3,1.0944,1,1.2542
7,3,91,183,3,0.79215,2.9522,3,1.4392,0,2.0472
7,3,92,184,3,0.43414,3.3461,3,0.96043,0,0.94075
8,1,1,1,3,2.6913,3.8209,3,1.4894,1,2.6728
8,1,2,2,3,1.7239,2.8605,2,1.4479,0,0.46386
8,1,3,3,3,1.3837,3.7302,3,3.8614,1,1.8708
8,1,4,4,3,1.3739,3.8863,2,1.6499,1,0.72748
8,1,5,5,3,0.40568,3.2497,3,1.3894,0,2.1482
8,1,6,6,3,2.7302,3.3638,3,2.4866,0,2.0167
8,1,7,7,3,2.1154,2.5925,3,0.85933,0,0.92741
8,1,8,8,3,1.5907,3.2486,2,1.1638,1,0.76428
8,1,9,9,3,1.8965,3.2407,2,1.669,1,0.66735
8,1,10,10,3,1.1316,3.3069,1,1.5302,0,1.9057
8,1,11,11,3,1.4784,3.9159,1,1.2752,1,0.32604
8,1,12,12,3,1.3081,3.4495,3,1.8136,1,1.3046
8,1,13,13,3,0.50618,2.7755,3,1.1458,1,0.96257
8,1,14,14,3,1.016,2.7295,3,0.93832,0,0.36026
8,1,15,15,3,0.95889,3.5019,2,0.75069,1,0.44328
8,1,16,16,3,0.93966,2.5869,2,0.8291,0,0.42664
8,1,17,17,3,0.89992,3.3807,3,0.97577,1,1.0514
8,1,18,18,3,1.4446,3.6161,3,2.9,0,2.4049
8,1,19,19,3,0.4933,3.4039,2,1.6151,1,2.3022
8,1,20,20,3,1.1026,3.4077,3,1.168,1,1.0808
8,1,21,21,3,1.5402,2.8738,3,1.1065,0,0.6854
8,1,22,22,3,0.83109,3.2822,2,2.2885,1,1.0571
8,1,23,23,3,1.3971,2.9803,2,1.4122,0,1.1165
8,1,24,24,3,1.5939,3.877,3,1.3945,0,1.6784
8,1,25,25,3,1.1473,2.993,3,1.1344,1,0.8184
8,1,26,26,3,1.3134,2.929,3,1.0128,0,0.56315
8,1,27,27,3,0.94562,2.7808,2,1.0137,1,0.39076
8,1,28,28,3,0.93638,3.7577,3,0.49246,1,0.66652
8,1,29,29,3,1.2421,2.6252,3,1.0475,0,0.87722
8,1,30,30,3,1.316,3.8076,1,0.74262,1,0.82746
8,1,31,31,3,1.3179,3.1809,2,0.9757,0,0.62665
8,1,32,32,3,1.4733,3.3094,3,0.74646,0,0.42765
8,1,33,33,3,1.313,2.9551,3,0.87962,1,0.27712
8,1,34,34,3,1.2349,3.3934,2,1.0459,0,0.4393
8,1,35,35,3,0.91509,2.7085,3,1.2707,0,0.47145
8,1,36,36,3,0.81964,2.9203,1,0.79093,0,0.40121
8,1,37,37,3,0.60997,2.5036,1,0.86622,1,1.4184
8,1,38,38,3,0.57805,3.1804,2,1.2751,1,1.5248
8,1,39,39,3,0.27514,2.6277,1,1.012,1,1.1551
8,1,40,40,3,1.0202,3.4348,3,1.3619,0,1.3286
8,1,41,41,3,0.53427,3.02,3,1.2649,1,1.6157
8,1,42,42,3,0.89282,3.1899,3,1.5814,1,1.2518
8,1,43,43,3,0.69867,3.0671,1,0.67475,0,1.5259
8,1,44,44,3,4.875,4.056,1,1.227,1,1.2398
8,1,45,45,3,1.1427,3.2144,2,1.0879,1,0.95935
8,1,46,46,3,1.6174,2.9659,2,1.3859,1,0.78258
8,2,1,47,6,1.0595,5.6646,2,0.7811,0,0.71616
8,2,2,48,6,1.0367,5.4956,3,1.855,0,2.3952
8,2,3,49,6,1.462,5.6278,3,1.3657,1,1.3157
8,2,4,50,6,1.2288,5.9296,2,1.066,0,0.52906
8,2,5,51,6,1.5944,5.1521,2,1.412,0,0.5662
8,2,6,52,6,1.8795,6.3905,1,1.5127,1,0.7305
8,2,7,53,6,1.5157,0.043998,1,4.0144,0,0.76112
8,2,8,54,6,0.64352,5.4173,2,1.3095,0,0.66367
8,2,9,55,6,1.3861,0.043808,1,2.9903,0,0.99386
8,2,10,56,6,0.85289,5.3964,3,1.1924,1,2.9767
8,2,11,57,6,1.8841,6.1569,3,1.1896,1,1.4357
8,2,12,58,6,1.7439,5.9878,3,1.5992,0,0.56534
8,2,13,59,6,1.8243,5.0736,2,1.375,1,0.93705
8,2,14,60,6,0.86359,5.4573,2,1.0735,1,0.66232
8,2,15,61,6,0.58923,4.8869,2,1.0138,1,1.1155
8,2,16,62,6,0.62873,5.5057,2,1.0512,0,0.60738
8,2,17,63,6,0.60032,6.2324,2,1.6305,1,2.592
8,2,18,64,6,1.5095,5.5636,3,1.4562,0,4.4727
8,2,19,65,6,1.2572,5.3366,3,1.1379,0,1.247
8,2,20,66,6,1.7518,5.506,2,1.8467,0,0.70397
8,2,21,67,6,1.192,5.6631,2,0.95472,0,0.51016
8,2,22,68,6,0.90483,6.3354,3,1.3085,0,0.55034
8,2,23,69,6,0.68935,6.2502,1,0.93107,1,1.2415
8,2,24,70,6,0.50566,5.6127,3,1.3418,0,0.40031
8,2,25,71,6,1.9044,5.8319,3,1.7186,1,2.6802
8,2,26,72,6,3.6476,5.2495,1,1.9594,0,0.73587
8,2,27,73,6,1.0396,5.5366,2,1.5989,0,0.42724
8,2,28,74,6,0.61131,6.2317,3,1.2047,0,0.84665
8,2,29,75,6,2.864,5.9513,2,1.5328,1,0.91582
8,2,30,76,6,2.3356,6.3211,3,1.1223,0,0.4355
8,2,31,77,6,1.0879,6.2476,2,0.97929,1,0.71403
8,2,32,78,6,1.6069,5.9617,3,1.2636,0,0.4149
8,2,33,79,6,0.45243,5.6595,3,1.2757,0,0.40149
8,2,34,80,6,1.5717,5.6721,2,1.3387,0,2.1594
8,2,35,81,6,1.3854,5.7444,2,4.0393,0,0.37696
8,2,36,82,6,0.79852,6.1174,3,1.3316,0,0.32817
8,2,37,83,6,1.0206,6.0472,3,1.2407,1,1.3126
8,2,38,84,6,1.5115,6.6902,3,0.92437,1,0.58812
8,2,39,85,6,2.8256,6.2091,1,1.098,0,0.81555
8,2,40,86,6,0.45626,5.7257,3,1.1131,0,1.3378
8,2,41,87,6,1.5861,5.9314,3,1.2428,0,0.31381
8,2,42,88,6,1.5865,6.2197,2,1.8101,0,0.4128
8,2,43,89,6,0.95696,6.0494,3,1.4573,1,1.1733
8,2,44,90,6,1.1764,6.3269,3,1.137,1,0.50818
8,2,45,91,6,1.2406,5.9626,3,1.1907,0,0.54901
8,2,46,92,6,1.1693,5.8698,2,1.261,0,0.47765
8,3,1,93,6,0.85302,6.4215,3,1.1105,0,0.49048
8,3,2,94,6,0.70369,5.4215,3,1.0393,0,1.7241
8,3,3,95,6,0.81339,5.3955,3,1.0669,0,0.5428
8,3,4,96,6,1.5664,5.8578,3,1.798,0,1.226
8,3,5,97,6,0.96896,5.9817,3,1.0059,0,0.27338
8,3,6,98,3,2.5889,2.7182,3,1.2141,1,2.1397
8,3,7,99,6,0.60975,5.5528,2,1.049,0,0.6288
8,3,8,100,3,0.69813,2.9798,3,0.98689,0,0.77078
8,3,9,101,3,0.85749,2.8508,3,0.90008,0,0.40554
8,3,10,102,3,0.8328,3.0054,3,0.90469,1,0.73478
8,3,11,103,3,1.1999,2.9175,3,0.75053,0,0.36856
8,3,12,104,3,0.74637,3.1938,3,1.2722,0,0.32298
8,3,13,105,6,1.1313,6.2198,2,1.0475,1,0.65218
8,3,14,106,6,1.8944,6.1894,3,0.89961,0,0.66866
8,3,15,107,3,0.63103,2.9166,3,0.98657,0,0.34555
8,3,16,108,3,0.60378,3.1718,3,1.0045,0,0.86029
8,3,17,109,3,1.0251,3.2146,3,1.0629,0,0.46446
8,3,18,110,3,0.64105,3.2143,2,0.92593,1,0.77633
8,3,19,111,3,1.5792,3.478,2,1.6351,0,0.60478
8,3,20,112,6,2.6233,5.8833,2,1.3438,0,0.48983
8,3,21,113,6,0.60183,5.8592,3,1.1997,0,0.46759
8,3,22,114,3,2.038,3.6446,1,0.69553,1,0.61475
8,3,23,115,3,0.81829,3.2205,3,1.0522,1,0.53213
8,3,24,116,3,1.3959,2.9176,2,2.0995,0,0.58917
8,3,25,117,6,0.4728,5.4374,2,1.376,1,1.4626
8,3,26,118,6,1.327,5.3524,2,1.5865,0,0.46979
8,3,27,119,3,1.1823,2.8578,2,1.3204,0,0.31987
8,3,28,120,6,1.2113,6.7289,2,1.1255,1,0.85177
8,3,29,121,6,0.82841,6.1431,3,1.05,1,0.51707
8,3,30,122,6,2.5908,6.0322,3,1.2686,1,1.1434
8,3,31,123,3,1.2943,3.2164,3,1.1904,0,0.39836
8,3,32,124,6,0.72533,5.5147,2,1.5437,1,1.6632
8,3,33,125,6,3.9124,6.0453,3,1.078,1,0.52927
8,3,34,126,6,0.89618,6.1811,3,1.0301,1,0.72638
8,3,35,127,3,2.7004,3.9667,3,0.83819,0,0.33613
8,3,36,128,3,1.4739,3.1115,3,1.2731,1,0.69871
8,3,37,129,6,1.0481,5.7703,3,1.1246,0,0.85069
8,3,38,130,6,3.8844,5.2273,3,0.95366,0,0.32084
8,3,39,131,6,1.4231,6.4733,3,1.0487,1,1.4293
8,3,40,132,6,1.9013,5.472,3,1.0007,0,0.31839
8,3,41,133,3,0.72584,2.7766,3,0.98522,0,0.28247
8,3,42,134,6,1.1724,6.4741,3,1.0999,1,0.52999
8,3,43,135,6,1.2502,6.6416,2,1.9388,1,0.53346
8,3,44,136,3,1.3235,3.0361,2,1.2396,0,0.38605
8,3,45,137,3,3.2706,3.6437,2,1.3207,1,0.65819
8,3,46,138,6,2.0018,5.7534,3,1.8365,1,1.6814
8,3,47,139,3,1.2085,3.4385,3,1.2904,1,0.51135
8,3,48,140,6,1.1284,5.8789,3,0.94064,0,0.72577
8,3,49,141,3,1.5891,3.5835,2,1.0644,1,0.45253
8,3,50,142,6,2.1985,5.0674,2,1.2102,0,0.41419
8,3,51,143,6,1.1419,5.7762,3,1.0262,1,0.46389
8,3,52,144,6,0.65794,6.5396,3,1.4116,0,0.32704
8,3,53,145,3,1.7285,2.8777,3,0.97266,0,0.5119
8,3,54,146,3,1.3483,3.2576,3,1.0686,1,0.33183
8,3,55,147,6,1.0027,6.4076,2,1.276,1,0.50135
8,3,56,148,6,1.8413,5.335,2,1.2738,1,0.62396
8,3,57,149,3,2.6318,3.4522,3,1.088,0,0.34828
8,3,58,150,3,0.88173,3.1906,2,1.1823,1,0.45315
8,3,59,151,6,2.054,5.8687,3,1.0098,1,0.33864
8,3,60,152,3,0.63585,3.4221,3,0.99114,0,0.62579
8,3,61,153,6,1.0354,6.0703,3,1.223,0,0.76048
8,3,62,154,3,1.9329,3.3197,3,1.301,0,0.29362
8,3,63,155,6,3.1775,8.0478,2,1.3155,1,0.60278
8,3,64,156,6,0.99862,6.0086,3,1.1104,0,0.34104
8,3,65,157,6,1.1751,5.6139,3,1.1054,1,0.64792
8,3,66,158,6,1.141,5.1629,2,1.0191,0,0.94462
8,3,67,159,6,2.908,5.2826,3,1.1084,0,0.30133
8,3,68,160,3,0.90801,2.651,2,1.1885,0,0.49755
8,3,69,161,6,0.7755,6.4903,2,1.0383,0,0.76025
8,3,70,162,6,2.5653,5.8278,3,1.4274,0,0.38868
8,3,71,163,6,1.2426,4.3509,2,1.3131,0,0.58825
8,3,72,164,3,1.5027,3.0055,2,1.3804,0,0.68869
8,3,73,165,3,1.9222,3.4205,3,1.9898,1,2.896
8,3,74,166,3,1.7169,3.496,3,1.0856,1,0.54423
8,3,75,167,6,1.2892,5.3233,3,1.4248,0,0.62345
8,3,76,168,3,1.2362,3.0824,3,0.91474,0,0.4539
8,3,77,169,3,0.98292,3.1674,3,1.0754,1,0.45064
8,3,78,170,3,1.0021,3.0938,3,0.96013,1,0.72856
8,3,79,171,6,0.65385,7.1849,1,1.2049,1,0.9972
8,3,80,172,6,1.0604,5.8266,2,0.92638,1,0.57812
8,3,81,173,3,0.83459,2.8946,3,1.0362,0,0.59533
8,3,82,174,3,3.1872,3.1807,2,0.93817,0,1.0977
8,3,83,175,3,0.63827,3.2494,2,1.15,1,0.64394
8,3,84,176,3,1.8079,3.1748,2,1.2439,0,0.36379
8,3,85,177,3,1.9455,3.1773,3,1.0347,0,0.49354
8,3,86,178,6,1.0055,7.0485,1,0.72713,0,0.46683
8,3,87,179,3,3.5716,3.5688,2,0.89981,0,0.35551
8,3,88,180,3,0.66289,3.4575,2,0.88037,1,0.62716
8,3,89,181,6,2.3505,6.0197,2,1.0468,1,0.73921
8,3,90,182,3,0.99238,2.8144,3,1.175,0,0.30232
8,3,91,183,3,0.76681,3.269,3,1.5762,1,0.86206
8,3,92,184,3,2.1369,3.2434,2,1.5462,1,0.99193
9,1,1,1,3,1.4195,2.0318,2,2.9249,0,7.3717
9,1,2,2,3,1.3472,2.5937,3,1.4357,0,2.256
9,1,3,3,3,1.3559,1.9842,3,3.6042,0,2.2638
9,1,4,4,3,0.94333,2.5664,1,1.3503,1,1.1046
9,1,5,5,3,1.0241,2.4124,2,1.3144,1,1.2273
9,1,6,6,3,1.0696,2.7455,2,1.2632,1,0.68873
9,1,7,7,3,2.0893,2.384,3,1.1755,0,1.5897
9,1,8,8,3,0.7691,2.6717,2,1.3552,0,2.0712
9,1,9,9,3,0.6848,2.4833,3,1.0005,0,1.743
9,1,10,10,3,0.55643,2.9636,3,0.87485,0,1.2517
9,1,11,11,3,1.9426,2.9004,3,1.0865,0,1.1586
9,1,12,12,3,0.87878,3.3565,2,0.97911,1,0.87586
9,1,13,13,3,0.57055,3.1115,2,0.85995,1,2.2031
9,1,14,14,3,0.99731,3.0568,1,2.5308,0,1.2775
9,1,15,15,3,0.46702,3.4822,2,0.78825,1,1.7488
9,1,16,16,3,2.5914,3.3336,3,1.0032,0,0.858
9,1,17,17,3,0.90977,3.5661,3,1.4135,1,3.3012
9,1,18,18,3,2.7849,3.5061,2,1.2662,0,1.9663
9,1,19,19,3,2.0626,3.2015,2,1.1752,0,1.1384
9,1,20,20,3,0.96628,3.1553,3,0.79137,0,0.95276
9,1,21,21,3,1.3856,3.1571,2,0.93067,0,0.90332
9,1,22,22,3,1.2771,2.94,1,2.6811,0,2.3262
9,1,23,23,3,0.13054,0.71759,1,5.0453,0,0.98029
9,1,24,24,3,5.1945,3.3326,3,1.7514,0,1.3681
9,1,25,25,3,1.3781,2.7655,3,1.2615,0,0.97882
9,1,26,26,3,1.3487,3.4447,1,1.7594,1,1.3753
9,1,27,27,3,3.6477,2.9234,2,1.6443,1,3.2016
9,1,28,28,3,1.5976,3.4804,3,2.8494,0,1.0153
9,1,29,29,3,1.5536,3.6077,3,1.0929,0,4.277
9,1,30,30,3,1.2144,3.457,3,1.2544,0,1.3348
9,1,31,31,3,3.2873,3.5312,3,1.7759,1,0.92373
9,1,32,32,3,2.1939,3.3239,3,1.7311,0,2.1887
9,1,33,33,3,1.9223,3.2336,2,2.327,0,1.1244
9,1,34,34,3,1.4977,3.4054,2,1.5288,0,0.60344
9,1,35,35,3,3.0146,3.1388,3,0.91706,0,0.73106
9,1,36,36,3,1.4626,2.9273,2,1.4748,0,0.88637
9,1,37,37,3,2.0103,3.613,2,1.1727,1,3.586
9,1,38,38,3,1.8697,3.8797,2,0.88574,1,0.60694
9,1,39,39,3,2.1649,3.3803,3,0.88667,1,0.75793
9,1,40,40,3,1.3745,3.4749,1,1.4558,0,0.75999
9,1,41,41,3,1.0298,2.9553,2,1.155,1,2.0342
9,1,42,42,3,0.96784,3.6198,1,1.6375,1,0.9079
9,1,43,43,3,1.0457,3.6044,2,1.4276,1,1.4758
9,1,44,44,3,2.2679,3.0319,2,1.7762,1,0.88785
9,1,45,45,3,1.6466,3.0542,2,1.3536,1,0.90801
9,1,46,46,3,0.78574,3.2469,1,1.1246,1,1.1248
9,2,1,47,6,3.1095,6.4586,1,6.5505,1,1.1575
9,2,2,48,6,2.0679,6.1325,1,1.4439,1,1.0882
9,2,3,49,6,1.5794,5.5278,2,1.5036,1,0.79505
9,2,4,50,6,2.6229,5.4324,2,1.5695,0,1.9689
9,2,5,51,6,1.9893,6.1833,2,1.5689,1,1.5809
9,2,6,52,6,1.6873,5.3827,2,1.3829,0,1.6412
9,2,7,53,6,1.9749,5.5108,3,1.7276,0,1.4007
9,2,8,54,6,3.8403,6.3584,1,1.3648,0,0.96446
9,2,9,55,6,3.0542,6.8819,1,1.4166,1,0.91534
9,2,10,56,6,1.5952,5.8027,2,1.3353,0,1.5938
9,2,11,57,6,2.0956,7.0635,1,1.3262,1,0.6892
9,2,12,58,6,2.0077,6.261,3,1.225,1,0.97649
9,2,13,59,6,4.5243,6.4823,1,2.23,1,0.60142
9,2,14,60,6,2.8467,5.4874,2,1.7011,0,0.96635
9,2,15,61,6,1.861,5.9142,3,1.3673,0,1.0297
9,2,16,62,6,1.3681,5.9804,2,1.48,1,1.3047
9,2,17,63,6,1.1355,6.02,1,1.6731,0,1.0473
9,2,18,64,6,1.138,6.0229,1,1.8002,0,1.7409
9,2,19,65,6,0.67066,5.5604,1,1.4018,0,0.9311
9,2,20,66,6,1.4274,5.8527,2,1.6734,1,0.93551
9,2,21,67,6,0.61298,6.0073,1,1.339,1,1.4609
9,2,22,68,6,1.7263,6.2378,1,1.5486,1,0.81453
9,2,23,69,6,1.8646,5.5054,2,1.6137,0,3.5889
9,2,24,70,6,2.1923,6.2491,2,1.293,0,0.92604
9,2,25,71,6,2.0785,6.1515,3,1.2948,1,1.4916
9,2,26,72,6,1.6472,6.2552,3,1.3369,0,0.90709
9,2,27,73,6,1.7023,5.8931,2,1.3253,1,1.464
9,2,28,74,6,1.069,6.6328,2,1.3537,0,1.134
9,2,29,75,6,0.58128,5.1664,2,1.4344,0,1.0422
9,2,30,76,6,0.64134,5.8014,2,1.2585,0,4.2637
9,2,31,77,6,1.3277,6.0907,3,1.7264,1,1.288
9,2,32,78,6,1.8151,5.969,1,4.2338,0,1.7873
9,2,33,79,6,1.6654,6.8067,2,1.4863,1,0.80692
9,2,34,80,6,3.7151,6.2494,3,1.5436,1,1.2512
9,2,35,81,6,1.2437,6.6527,1,1.4075,1,0.69946
9,2,36,82,6,2.1642,6.1656,2,1.0058,0,0.89922
9,2,37,83,6,4.8511,6.0361,3,1.8091,0,0.92541
9,2,38,84,6,3.1544,6.4202,3,1.7215,1,0.82048
9,2,39,85,6,1.3043,6.4835,2,1.9934,0,0.7252
9,2,40,86,6,1.4885,6.4837,2,1.4558,0,0.84707
9,2,41,87,6,1.328,6.4155,1,1.1677,0,0.75573
9,2,42,88,6,2.0128,6.0275,2,2.3385,0,0.94477
9,2,43,89,6,1.9772,6.1759,3,1.298,1,1.0528
9,2,44,90,6,1.1869,5.059,2,1.3767,0,0.76357
9,2,45,91,6,1.2348,5.7812,2,1.2307,0,0.63883
9,2,46,92,6,0.53968,5.2756,1,1.5388,0,0.99611
9,3,1,93,6,1.4759,5.825,1,1.9622,1,0.66451
9,3,2,94,3,1.2802,3.5301,1,1.7126,0,0.83849
9,3,3,95,3,1.356,3.2228,2,1.2424,0,1.5137
9,3,4,96,3,0.98678,3.1205,3,0.70321,1,0.66016
9,3,5,97,6,2.6549,6.6547,2,1.1479,0,0.89022
9,3,6,98,6,1.8144,6.7668,3,0.94227,1,0.7646
9,3,7,99,6,1.4273,6.4269,1,1.337,0,0.9452
9,3,8,100,3,1.831,3.4049,2,1.5908,1,2.0854
9,3,9,101,3,2.2661,2.7548,2,1.305,0,0.52212
9,3,10,102,6,0.51842,5.8458,1,0.94041,1,0.94977
9,3,11,103,6,1.4907,5.9612,1,1.1023,1,0.5825
9,3,12,104,6,1.5818,5.3568,1,1.2607,1,1.0286
9,3,13,105,6,1.229,6.1039,2,0.73623,1,0.63389
9,3,14,106,6,1.5258,6.0877,1,1.111,1,0.70481
9,3,15,107,3,2.1439,3.3631,2,1.8232,0,1.9599
9,3,16,108,6,3.4795,6.1369,3,1.2349,1,0.84356
9,3,17,109,6,4.0845,6.1509,2,1.3076,1,0.73693
9,3,18,110,6,2.9704,6.4328,2,1.1928,1,0.42621
9,3,19,111,3,2.2059,3.5454,1,1.1219,1,0.48599
9,3,20,112,6,1.2491,6.4459,2,1.2632,1,1.1022
9,3,21,113,6,2.1049,6.3188,2,0.90825,1,0.47717
9,3,22,114,6,1.252,5.9074,3,1.7152,0,1.3768
9,3,23,115,6,0.79891,6.2302,2,1.203,1,0.60695
9,3,24,116,3,1.9202,3.2309,3,1.3382,0,0.53471
9,3,25,117,3,1.191,3.388,2,0.86552,0,0.59206
9,3,26,118,6,1.5991,6.3942,2,1.0254,0,0.45085
9,3,27,119,6,1.9531,5.9934,1,1.5628,1,1.2291
9,3,28,120,6,1.7727,6.5475,2,1.9147,0,1.7182
9,3,29,121,3,1.3348,2.7055,2,1.6308,0,0.58917
9,3,30,122,6,0.63478,5.4958,1,0.99173,1,0.80108
9,3,31,123,6,1.4406,6.0236,2,1.2389,0,0.52255
9,3,32,124,3,1.6114,3.2403,3,0.98034,0,0.52775
9,3,33,125,3,1.5222,3.5223,3,0.79087,0,0.66301
9,3,34,126,3,1.7313,3.2806,3,0.88741,1,0.82269
9,3,35,127,3,1.3585,3.4623,3,0.98562,1,0.73211
9,3,36,128,3,1.0957,3.4169,3,0.77874,1,0.55036
9,3,37,129,3,0.83227,2.8674,2,0.67496,0,0.60209
9,3,38,130,3,0.5216,3.6235,1,0.56656,0,1.1571
9,3,39,131,6,1.1662,6.1174,2,1.4826,0,0.82854
9,3,40,132,3,0.80078,2.845,2,1.0486,0,0.52826
9,3,41,133,6,1.6758,6.4624,2,1.614,1,0.66733
9,3,42,134,3,1.5272,3.5522,2,1.2376,1,0.63377
9,3,43,135,3,1.6089,3.751,1,2.1477,0,0.65305
9,3,44,136,6,1.0992,6.155,2,0.9605,1,0.46702
9,3,45,137,6,0.80344,6.1846,1,1.0082,0,0.80065
9,3,46,138,6,1.6268,6.7891,1,0.83445,1,1.0826
9,3,47,139,6,1.3204,5.7717,2,0.79978,1,1.1554
9,3,48,140,6,1.3969,5.743,1,0.61279,0,0.90257
9,3,49,141,3,1.2139,3.2939,2,1.7959,0,1.1535
9,3,50,142,3,0.87716,3.2896,3,0.81902,0,0.55811
9,3,51,143,3,0.70351,2.4979,3,0.69823,0,0.56743
9,3,52,144,6,1.0649,6.2952,2,1.2016,1,0.89335
9,3,53,145,3,1.1518,2.707,2,0.88192,0,0.77875
9,3,54,146,3,0.50833,5.1016,1,0.71153,1,0.65107
9,3,55,147,3,0.53523,2.6079,2,1.2839,0,0.69217
9,3,56,148,6,1.0283,5.8785,3,0.95407,0,0.55938
9,3,57,149,3,1.0316,2.4706,3,0.82962,0,0.56436
9,3,58,150,6,0.59895,4.1429,2,0.75561,0,0.63674
9,3,59,151,3,1.1666,2.8167,3,0.72561,0,0.62718
9,3,60,152,3,1.0075,3.5373,1,0.60176,1,0.67067
9,3,61,153,6,1.1211,4.4846,1,0.71366,0,3.14
9,3,62,154,6,1.1139,5.9939,2,0.73801,0,0.68599
9,3,63,155,3,1.0063,2.3,2,0.93829,0,0.87285
9,3,64,156,3,0.59415,3.1548,2,1.204,0,0.88341
9,3,65,157,3,1.0336,3.3428,3,0.7196,1,0.87233
9,3,66,158,6,0.65558,4.8615,1,0.7674,1,0.58167
9,3,67,159,3,1.0192,3.084,3,1.4985,0,1.5399
9,3,68,160,3,0.93446,3.131,3,0.82527,0,1.1895
9,3,69,161,6,2.4904,5.3334,2,0.8583,0,0.90175
9,3,70,162,3,0.55784,3.0884,2,0.56675,1,0.55684
9,3,71,163,3,1.3207,3.4332,2,8.4405,0,3.231
9,3,72,164,3,6.5158,3.1796,2,1.2494,1,0.55315
9,3,73,165,3,1.174,3.0378,2,1.7781,1,0.56533
9,3,74,166,3,0.90594,2.1866,3,0.99256,1,0.78898
9,3,75,167,3,0.31121,2.7187,2,0.80201,0,0.66945
9,3,76,168,3,0.41283,2.7575,2,0.54492,1,0.52587
9,3,77,169,3,0.86455,3.4082,2,0.53178,1,0.54199
9,3,78,170,6,1.0691,4.9696,1,0.86373,1,0.7145
9,3,79,171,6,0.6334,5.9818,1,0.63125,1,0.52834
9,3,80,172,6,1.3911,5.6251,3,0.62524,0,1.0148
9,3,81,173,6,2.3246,6.1224,3,1.1256,1,0.67546
9,3,82,174,6,1.5748,6.2867,3,1.1972,1,0.57715
9,3,83,175,6,1.5682,6.042,2,1.4039,0,1.0699
9,3,84,176,6,1.6452,5.5906,1,0.95257,0,0.87099
9,3,85,177,6,1.4382,5.7345,2,1.3961,0,1.4921
9,3,86,178,3,1.8654,2.4428,3,1.5485,0,1.2523
9,3,87,179,3,1.5348,3.4431,3,0.93273,1,0.59246
9,3,88,180,6,2.3809,6.4904,3,0.71271,1,1.0145
9,3,89,181,6,3.1896,6.2423,2,3.7983,1,4.5252
9,3,90,182,3,1.0474,2.844,2,1.1973,0,1.452
9,3,91,183,3,1.0681,3.3437,2,0.54611,1,0.84028
9,3,92,184,6,1.5192,6.2563,2,1.7759,1,1.1375
10,1,1,1,3,0.49276,2.8786,2,2.0994,1,2.739
10,1,2,2,3,3.4432,3.4951,3,2.9223,0,2.0418
10,1,3,3,3,2.0758,3.2875,2,2.64,1,1.282
10,1,4,4,3,1.4871,3.6078,2,2.3676,0,0.82834
10,1,5,5,3,1.4314,3.9312,2,4.1489,0,2.2616
10,1,6,6,3,2.2319,3.8799,2,2.4466,1,3.2268
10,1,7,7,3,1.2974,2.8055,3,1.7547,0,1.5579
10,1,8,8,3,0.95904,3.4778,3,1.7344,0,1.1038
10,1,9,9,3,0.76992,3.1708,2,1.6409,0,1.2106
10,1,10,10,3,1.0294,2.8673,3,1.95,1,0.91565
10,1,11,11,3,0.82402,3.2761,3,2.719,0,1.1031
10,1,12,12,3,2.6063,4.2808,1,1.1222,1,2.1354
10,1,13,13,3,0.72991,2.8192,2,1.4146,0,1.8912
10,1,14,14,3,0.57366,3.4755,2,1.5456,1,0.78998
10,1,15,15,3,0.83082,2.446,3,1.9634,0,0.9408
10,1,16,16,3,0.96034,2.6157,3,3.0752,0,2.1327
10,1,17,17,3,0.78473,3.3334,2,1.2906,1,1.8489
10,1,18,18,3,0.83919,2.7495,1,0.98711,1,1.3843
10,1,19,19,3,0.6113,2.7172,2,2.1259,0,1.3618
10,1,20,20,3,1.58,2.706,2,1.3302,0,1.0144
10,1,21,21,3,1.9047,3.5198,1,1.0274,1,1.027
10,1,22,22,3,0.76796,2.3318,2,1.05,0,1.4792
10,1,23,23,3,0.64875,3.1174,3,0.88755,1,1.1842
10,1,24,24,3,0.80344,3.0095,3,1.6593,0,1.4746
10,1,25,25,3,1.9773,3.0753,1,1.6334,0,0.71559
10,1,26,26,3,1.5484,3.0189,1,1.0381,0,2.7855
10,1,27,27,3,1.0232,3.324,3,1.2926,0,1.3526
10,1,28,28,3,0.72975,3.0699,2,1.2274,1,0.67801
10,1,29,29,3,0.62815,3.3305,3,1.487,0,0.90855
10,1,30,30,3,0.50752,2.9265,2,1.047,1,1.0405
10,1,31,31,3,0.52263,3.225,2,1.5198,0,1.0449
10,1,32,32,3,0.57773,2.781,3,2.213,0,1.2402
10,1,33,33,3,4.4602,2.73,1,1.3383,0,0.72207
10,1,34,34,3,0.62694,3.0534,3,1.3031,0,0.93246
10,1,35,35,3,0.61846,2.9459,2,1.0613,1,0.66615
10,1,36,36,3,0.44942,3.0691,2,1.3395,0,1.5097
10,1,37,37,3,0.63272,3.1053,3,1.8556,0,2.3701
10,1,38,38,3,1.4711,3.2468,1,1.6745,1,0.98605
10,1,39,39,3,0.71738,3.2197,2,2.5644,0,0.58949
10,1,40,40,3,0.67004,3.0225,1,0.96779,1,1.5436
10,1,41,41,3,0.58327,3.5436,3,1.1711,0,0.6086
10,1,42,42,3,1.0122,3.0805,1,0.76314,1,1.0031
10,1,43,43,3,0.55777,3.0771,2,1.2854,0,0.58057
10,1,44,44,3,1.0265,3.0522,2,1.6779,0,1.0269
10,1,45,45,3,0.65842,2.8515,1,3.0519,1,1.0008
10,1,46,46,3,0.65651,2.9134,3,1.0514,0,2.3176
10,2,1,47,6,1.9311,4.2305,2,2.6225,0,2.1182
10,2,2,48,6,3.2755,6.0085,3,2.8352,0,0.43946
10,2,3,49,6,0.69543,5.0929,2,1.1391,0,1.8239
10,2,4,50,6,2.5827,6.3034,1,1.0605,1,0.97739
10,2,5,51,6,0.6935,4.8045,2,1.2391,1,0.7864
10,2,6,52,6,0.72663,6.0159,1,0.99376,1,0.7655
10,2,7,53,6,0.58219,5.6179,2,1.747,0,0.54151
10,2,8,54,6,0.52825,5.8058,2,0.80094,1,0.9581
10,2,9,55,6,0.65311,4.3092,3,1.0296,0,0.71385
10,2,10,56,6,0.70444,4.7236,1,0.86328,0,0.57768
10,2,11,57,6,0.48089,5.7545,2,1.25,1,0.76705
10,2,12,58,6,1.9671,5.6945,1,1.1894,0,0.58623
10,2,13,59,6,0.63548,6.2825,2,1.3804,0,1.1146
10,2,14,60,6,0.60556,5.6625,1,0.90322,1,0.95899
10,2,15,61,6,0.70116,6.0692,2,0.94673,1,0.76537
10,2,16,62,6,0.69823,6.0413,2,2.2527,1,2.4424
10,2,17,63,6,0.82664,4.878,2,1.5434,1,0.83807
10,2,18,64,6,0.72927,4.9939,3,1.4917,0,1.0246
10,2,19,65,6,0.8081,4.6013,1,1.712,1,0.73885
10,2,20,66,6,0.47022,4.585,2,1.0377,1,1.3854
10,2,21,67,6,0.77569,6.7519,1,0.71975,1,0.70913
10,2,22,68,6,0.85131,6.1571,2,0.91264,0,1.6391
10,2,23,69,6,0.5612,5.1557,3,1.286,1,0.90726
10,2,24,70,6,0.69312,4.9031,3,1.3393,0,0.62292
10,2,25,71,6,0.43922,5.3388,1,0.9226,1,1.386
10,2,26,72,6,0.41613,4.7573,2,1.2017,0,0.38082
10,2,27,73,6,0.40629,4.6641,2,0.88252,1,0.73093
10,2,28,74,6,0.47677,4.4176,3,0.81177,0,0.31421
10,2,29,75,6,0.61529,3.9297,2,0.80968,0,0.49079
10,2,30,76,6,0.88696,5.3723,1,0.97734,0,0.64021
10,2,31,77,6,0.62893,5.5805,2,1.3934,1,1.2137
10,2,32,78,6,0.39089,6.0024,1,1.0963,1,0.92803
10,2,33,79,6,0.76604,6.1693,3,1.2828,1,1.0543
10,2,34,80,6,0.57813,4.4556,2,1.338,0,0.43388
10,2,35,81,6,0.97278,5.3733,1,0.84903,0,1.342
10,2,36,82,6,0.79797,5.617,2,0.92156,0,0.57297
10,2,37,83,6,1.5733,6.6233,2,1.1116,0,0.62947
10,2,38,84,6,0.53273,5.8307,3,1.2671,1,1.0178
10,2,39,85,6,1.9081,5.6606,3,0.9769,0,0.45343
10,2,40,86,6,0.52924,6.6453,1,0.94972,1,1.5543
10,2,41,87,6,0.81273,5.9308,1,1.9921,0,1.0729
10,2,42,88,6,1.6044,7.508,2,1.123,0,0.56086
10,2,43,89,6,0.7878,6.5354,2,1.3574,1,0.88625
10,2,44,90,6,2.4533,6.1798,1,0.97716,1,0.82882
10,2,45,91,6,0.67383,6.0255,2,1.9241,0,0.43601
10,2,46,92,6,0.63221,4.8919,3,0.81593,1,1.8289
10,3,1,93,3,0.69264,4.0029,3,0.72439,0,0.36278
10,3,2,94,6,0.47261,5.6263,1,0.93816,0,0.50994
10,3,3,95,3,0.62473,4.2885,2,0.71448,0,0.42801
10,3,4,96,6,0.56261,5.1684,3,1.1737,0,1.3998
10,3,5,97,6,0.42656,6.6417,1,0.88953,1,0.66135
10,3,6,98,6,0.46459,4.8802,2,0.65695,0,0.88921
10,3,7,99,3,0.36892,3.6728,3,0.97739,0,1.2037
10,3,8,100,3,0.57391,3.7391,3,1.678,1,1.0143
10,3,9,101,6,0.6677,6.8202,2,0.83338,0,0.70537
10,3,10,102,3,0.63784,4.6485,3,1.3353,0,0.70502
10,3,11,103,6,0.50742,5.4386,2,1.376,0,0.60262
10,3,12,104,6,0.42394,5.9633,1,1.3415,0,1.0255
10,3,13,105,6,1.1954,5.5918,2,0.52574,1,0.90335
10,3,14,106,3,1.2077,3.6371,2,1.3384,0,0.41029
10,3,15,107,3,0.47685,2.3423,3,0.63464,0,1.3958
10,3,16,108,6,0.86364,5.77,1,0.99816,1,1.9037
10,3,17,109,6,0.57341,5.7143,2,0.96674,0,0.53137
10,3,18,110,3,1.0299,3.5939,3,1.4465,0,0.55466
10,3,19,111,3,0.64161,3.7407,3,1.2292,0,0.72946
10,3,20,112,3,0.61594,3.6939,1,1.1084,1,0.46277
10,3,21,113,3,0.63486,3.6329,2,1.4004,1,1.1172
10,3,22,114,3,0.52558,4.5146,2,1.1601,1,1.0769
10,3,23,115,6,0.53561,6.0463,1,0.70305,0,0.58375
10,3,24,116,6,0.91264,5.7821,1,0.94353,0,0.90304
10,3,25,117,6,0.55673,5.7385,2,1.5267,1,2.8633
10,3,26,118,6,0.53791,5.5369,1,1.0489,1,0.49198
10,3,27,119,3,0.71212,3.6309,2,0.62383,1,0.86444
10,3,28,120,3,0.53082,3.8176,3,1.3511,0,1.105
10,3,29,121,6,0.44993,5.5442,2,0.66498,1,0.492
10,3,30,122,3,1.0396,4.2487,3,0.96063,0,0.72846
10,3,31,123,3,0.82016,3.5725,3,1.404,0,0.54413
10,3,32,124,6,0.54645,4.8449,1,1.818,0,0.61536
10,3,33,125,6,0.506,5.6756,1,0.96373,1,0.70124
10,3,34,126,3,0.46112,5.3676,3,1.0736,1,0.6232
10,3,35,127,6,1.3919,7.8875,1,0.94338,0,0.53984
10,3,36,128,3,0.53173,4.3423,2,0.65455,1,0.46128
10,3,37,129,3,0.36134,4.2936,3,0.94285,0,0.47705
10,3,38,130,6,0.79899,4.2922,1,0.72834,1,0.73933
10,3,39,131,6,0.66249,5.9441,2,0.71443,0,0.41613
10,3,40,132,3,0.67264,3.4257,3,0.83093,0,0.52871
10,3,41,133,6,0.44458,6.2319,2,1.3544,1,0.65898
10,3,42,134,3,0.53334,3.9081,3,0.9294,1,0.60104
10,3,43,135,3,0.46796,3.9217,2,1.2138,0,1.0759
10,3,44,136,3,0.64659,3.9322,3,1.5124,0,1.3163
10,3,45,137,3,0.51724,3.845,3,1.4964,0,1.6671
10,3,46,138,6,0.60534,6.411,1,1.1009,0,0.54356
10,3,47,139,3,1.0572,4.0384,3,0.87514,1,0.57619
10,3,48,140,3,0.54136,4.3408,3,0.84009,0,0.37429
10,3,49,141,3,0.64562,3.2311,3,0.40102,0,1.5325
10,3,50,142,6,0.4067,6.1141,1,1.166,0,1.467
10,3,51,143,3,0.36911,4.1087,2,0.59264,1,0.56586
10,3,52,144,3,0.50345,4.1725,2,0.96476,0,0.47794
10,3,53,145,6,0.40723,6.3021,1,0.78431,0,0.50594
10,3,54,146,6,0.61006,5.9422,2,0.79994,0,0.4183
10,3,55,147,3,0.54788,2.8166,3,0.83807,0,0.69713
10,3,56,148,3,1.5726,4.6724,1,0.36207,1,1.9779
10,3,57,149,3,0.4507,4.6438,2,1.118,0,0.63067
10,3,58,150,6,1.0675,2.6438,1,5.4116,0,1.5414
10,3,59,151,6,0.88817,6.6853,2,1.0565,0,0.74966
10,3,60,152,3,1.9331,6.3072,3,0.92529,1,1.4388
10,3,61,153,6,1.7149,6.3186,3,1.7717,1,1.9329
10,3,62,154,6,0.54114,7.4025,1,1.3539,1,1.5707
10,3,63,155,3,0.55587,4.3987,2,0.76185,1,0.47562
10,3,64,156,6,1.4186,6.0688,1,1.733,1,0.85297
10,3,65,157,6,0.49121,4.3522,2,0.92519,0,0.44024
10,3,66,158,3,1.3996,4.6583,1,1.5653,0,1.1902
10,3,67,159,3,0.53354,3.3069,2,1.1045,1,0.5855
10,3,68,160,3,0.44827,5.0562,2,0.87446,1,0.52506
10,3,69,161,6,0.42991,4.5573,1,1.0278,0,0.6655
10,3,70,162,3,0.53764,4.5365,3,0.87596,0,0.56623
10,3,71,163,6,0.4423,4.6523,3,0.86028,1,0.65372
10,3,72,164,6,0.58396,4.4824,2,0.96005,1,0.58998
10,3,73,165,3,0.61636,3.4696,3,1.0005,0,0.41686
10,3,74,166,6,0.57237,5.3634,1,1.2924,0,2.7138
10,3,75,167,3,0.53638,3.8238,3,0.89062,0,0.45074
10,3,76,168,3,0.6468,3.0279,3,1.6621,0,1.8891
10,3,77,169,3,0.53931,3.2631,1,2.424,1,0.53325
10,3,78,170,6,0.56395,5.3168,2,0.58333,0,0.99483
10,3,79,171,6,0.4332,5.4833,1,0.73265,1,0.70594
10,3,80,172,3,1.2018,3.6308,3,1.313,0,1.1369
10,3,81,173,3,0.38107,4.6682,2,1.1118,0,0.80495
10,3,82,174,3,0.84573,4.4182,3,1.2894,0,0.73492
10,3,83,175,6,1.1312,4.9439,1,1.3802,1,0.46216
10,3,84,176,6,0.42975,7.6198,1,1.7306,1,0.56835
10,3,85,177,3,0.50513,3.7616,3,1.0096,0,0.40039
10,3,86,178,6,0.14984,7.0322,1,0.97714,0,0.5037
10,3,87,179,6,0.38244,5.6945,3,0.93969,1,0.51327
10,3,88,180,6,0.4667,4.7451,1,1.1684,0,0.56805
10,3,89,181,6,0.82343,5.1868,2,0.87562,0,0.50148
10,3,90,182,6,0.39099,6.2402,1,0.79937,1,0.63181
10,3,91,183,6,0.61475,5.4412,3,0.93833,1,1.5228
10,3,92,184,6,0.86543,5.9166,1,2.3705,0,1.0543
11,1,1,1,3,0.34128,2.7031,2,4.0291,0,2.1573
11,1,2,2,3,1.3028,2.6816,3,1.7611,0,2.1025
11,1,3,3,3,1.614,2.8552,1,3.4054,0,1.0032
11,1,4,4,3,1.0976,2.5311,2,1.5273,0,1.3264
11,1,5,5,3,0.81658,3.0314,2,1.9012,1,1.2165
11,1,6,6,3,1.498,2.9438,3,1.2841,0,1.3677
11,1,7,7,3,0.65737,3.8379,2,3.1766,1,0.65814
11,1,8,8,3,0.74011,2.6369,2,1.3796,1,5.1555
11,1,9,9,3,0.92893,3.2059,3,1.5291,1,6.8298
11,1,10,10,3,0.82327,2.7503,3,1.7004,1,2.7046
11,1,11,11,3,0.94384,3.5395,2,2.205,1,1.6955
11,1,12,12,3,0.68715,3.0471,3,1.3368,0,0.84603
11,1,13,13,3,0.41501,2.8045,3,1.1928,0,1.8267
11,1,14,14,3,0.35283,3.185,2,0.85043,1,8.7573
11,1,15,15,3,0.37548,3.4151,2,0.9017,1,1.5312
11,1,16,16,3,1.2206,3.6215,3,1.3389,0,1.011
11,1,17,17,3,0.72614,2.7907,2,5.3082,0,1.8496
11,1,18,18,3,0.93551,3.0575,3,0.93163,0,1.3166
11,1,19,19,3,1.0428,3.1275,2,1.0972,1,2.3394
11,1,20,20,3,1.0427,3.1773,3,1.0597,1,1.802
11,1,21,21,3,0.98358,2.5171,3,1.7772,1,1.5385
11,1,22,22,3,0.48538,2.909,1,3.0835,0,1.0904
11,1,23,23,3,0.80539,3.2994,3,1.9879,0,1.0951
11,1,24,24,3,0.75517,3.2989,2,18.128,1,1.1281
11,1,25,25,3,0.7192,3.196,2,1.5609,1,0.97697
11,1,26,26,3,0.61814,3.3453,2,1.511,1,0.25179
11,1,27,27,3,0.67042,2.8725,2,13.119,1,1.2413
11,1,28,28,3,0.71505,2.7041,2,3.6671,0,0.7648
11,1,29,29,3,1.3992,3.1321,3,2.4528,1,1.179
11,1,30,30,3,1.2639,3.1687,3,2.0004,0,0.97884
11,1,31,31,3,0.804,2.9608,3,7.8608,1,1.661
11,1,32,32,3,0.84283,2.8532,2,2.0785,0,0.21225
11,1,33,33,3,0.76124,3.0294,3,1.6999,1,1.1898
11,1,34,34,3,0.90223,3.3705,2,2.5023,0,0.56535
11,1,35,35,3,0.76875,3.0197,3,2.7033,1,10.866
11,1,36,36,3,0.99758,2.8321,3,1.5485,1,1.0401
11,1,37,37,3,0.90535,2.6732,3,2.7695,1,0.40347
11,1,38,38,3,0.89547,2.9571,3,2.7183,1,1.439
11,1,39,39,3,0.93562,2.683,3,3.2618,1,0.58523
11,1,40,40,3,0.95486,3.0618,3,8.2983,1,1.0013
11,1,41,41,3,0.92435,2.839,3,2.905,0,1.2421
11,1,42,42,3,0.68294,2.7054,2,1.6561,0,1.8097
11,1,43,43,3,1.0805,2.9203,3,1.5653,1,0.8276
11,1,44,44,3,0.75978,3.0159,2,9.1493,0,2.8144
11,1,45,45,3,0.80903,3.1276,3,1.4468,1,0.32506
11,1,46,46,3,0.85554,2.7982,3,1.4782,0,1.003
11,2,1,47,6,1.3232,7.7238,1,2.4966,1,1.2385
11,2,2,48,6,1.6962,5.8169,2,1.2577,1,0.91259
11,2,3,49,6,1.2514,5.5441,2,1.5272,1,0.86447
11,2,4,50,6,2.442,5.2343,3,1.6104,0,0.5641
11,2,5,51,6,0.49566,5.9061,3,2.5511,0,1.6146
11,2,6,52,6,0.49117,4.8894,2,2.7247,0,2.596
11,2,7,53,6,0.38996,5.164,2,1.445,1,1.0531
11,2,8,54,6,1.3014,5.5565,2,2.0638,0,0.16616
11,2,9,55,6,0.53349,5.5192,3,1.999,1,1.5003
11,2,10,56,6,0.72354,4.8757,2,1.6768,0,0.48951
11,2,11,57,6,0.81639,5.0049,2,1.8984,0,0.26372
11,2,12,58,6,0.57786,7.8176,1,2.8151,1,0.76494
11,2,13,59,6,0.91448,4.9576,2,2.4133,0,1.6518
11,2,14,60,6,0.60376,5.484,3,3.4847,0,0.52884
11,2,15,61,6,0.30342,5.8116,2,4.3267,1,1.0186
11,2,16,62,6,0.40348,4.9111,2,1.3537,1,1.9582
11,2,17,63,6,1.4072,5.7242,2,2.1982,0,0.87931
11,2,18,64,6,0.72492,6.0394,3,2.0889,0,0.90707
11,2,19,65,6,0.94088,6.0254,2,2.0869,0,0.88073
11,2,20,66,6,0.71002,5.8028,2,6.3123,0,6.0765
11,2,21,67,6,0.47087,6.6854,2,2.7195,1,0.62932
11,2,22,68,6,1.6152,7.0571,2,1.7859,0,2.6932
11,2,23,69,6,1.7111,6.6397,3,1.2483,0,1.4287
11,2,24,70,6,0.87211,0.24944,1,3.7188,0,0.45362
11,2,25,71,6,1.0029,5.9473,2,1.4282,0,0.52826
11,2,26,72,6,0.8395,7.0127,2,1.638,1,0.16958
11,2,27,73,6,0.43006,7.1702,2,16.107,1,1.0555
11,2,28,74,6,0.84828,6.1043,2,2.2367,1,2.0299
11,2,29,75,6,0.65312,5.1336,2,1.0357,1,18.645
11,2,30,76,6,0.4412,7.6277,1,3.0004,1,0.94063
11,2,31,77,6,0.83868,5.8749,2,3.0023,0,1.0393
11,2,32,78,6,1.1277,6.0531,2,10.124,0,0.52718
11,2,33,79,6,2.1761,5.9997,2,1.368,0,0.16949
11,2,34,80,6,1.2902,6.2869,2,1.2844,0,0.38054
11,2,35,81,6,1.3178,5.8184,2,2.4097,0,0.022505
11,2,36,82,6,0.91614,5.78,3,1.6415,0,1.2372
11,2,37,83,6,0.7554,6.6496,2,7.2054,0,0.73277
11,2,38,84,6,0.94737,6.5562,1,2.1872,1,0.78089
11,2,39,85,6,0.8563,6.087,2,1.6975,1,0.68867
11,2,40,86,6,0.99159,5.9772,3,1.7014,0,1.6037
11,2,41,87,6,0.86701,6.1064,2,1.2879,1,0.59802
11,2,42,88,6,1.3795,6.0052,2,1.3375,0,0.19645
11,2,43,89,6,0.87213,6.198,2,2.1545,1,0.84354
11,2,44,90,6,0.92686,5.4025,1,2.8369,0,1.0917
11,2,45,91,6,0.71491,5.3553,2,2.7123,1,0.58836
11,2,46,92,6,0.86889,6.5839,2,1.7307,1,0.79175
11,3,1,93,3,1.5708,3.1079,2,2.0454,0,0.60033
11,3,2,94,6,0.68711,4.7985,2,6.9089,0,6.3629
11,3,3,95,3,1.0149,3.5197,2,1.2266,1,0.97597
11,3,4,96,3,1.052,2.9824,2,0.88987,0,0.687
11,3,5,97,3,1.0828,2.9298,3,0.83708,1,1.2601
11,3,6,98,6,1.0414,5.9391,2,1.3881,1,1.0079
11,3,7,99,3,0.99456,2.3669,2,1.3266,0,0.87528
11,3,8,100,3,0.91452,2.6832,2,0.87527,0,0.48809
11,3,9,101,6,1.0173,5.9191,2,2.3465,1,1.5765
11,3,10,102,3,0.64578,3.0195,2,0.97842,1,0.57851
11,3,11,103,6,0.97728,5.966,2,1.8312,1,0.86396
11,3,12,104,3,0.97451,4.3753,2,1.7546,1,0.7941
11,3,13,105,6,0.92337,5.9117,2,1.8525,0,0.53017
11,3,14,106,6,0.8573,6.3019,2,0.93236,1,0.70401
11,3,15,107,6,1.0751,6.0003,3,1.7322,0,0.85189
11,3,16,108,3,0.94095,2.4633,2,1.4372,0,1.3472
11,3,17,109,6,0.57573,5.6023,2,0.86164,0,0.50019
11,3,18,110,3,0.62111,2.9603,2,3.3361,1,0.088572
11,3,19,111,3,0.9205,2.9104,2,1.7097,0,0.60052
11,3,20,112,3,0.95839,2.4763,3,1.66,0,2.0013
11,3,21,113,6,0.82139,6.0736,2,1.2129,1,1.0016
11,3,22,114,6,1.2295,6.4689,3,1.1575,1,1.0742
11,3,23,115,6,0.86148,7.8799,1,1.9976,1,1.1663
11,3,24,116,6,0.96355,5.619,2,1.898,0,0.9757
11,3,25,117,6,0.76951,6.3333,2,1.7188,1,1.068
11,3,26,118,3,0.73362,2.6942,3,2.0107,0,0.32562
11,3,27,119,3,0.66909,4.5339,1,1.5622,1,0.48961
11,3,28,120,3,0.48665,2.7465,2,1.5399,0,0.42118
11,3,29,121,3,1.0178,2.6446,3,2.2997,0,1.4502
11,3,30,122,3,0.79437,3.2561,3,1.4034,0,0.74586
11,3,31,123,6,2.304,5.6551,3,1.789,1,1.1586
11,3,32,124,3,0.75371,3.5845,2,0.95269,0,1.1213
11,3,33,125,6,1.0155,6.3167,2,1.5439,1,0.66417
11,3,34,126,3,0.61796,3.621,3,1.5515,1,1.9046
11,3,35,127,6,0.66457,5.8044,3,1.286,0,1.0194
11,3,36,128,3,0.75343,2.7717,3,1.0933,0,1.1012
11,3,37,129,3,0.65066,3.7198,2,3.5505,1,0.75251
11,3,38,130,6,0.4489,5.705,2,1.7879,1,1.558
11,3,39,131,3,0.83776,3.4358,2,1.7747,1,1.6609
11,3,40,132,3,0.62834,3.731,2,1.2868,1,0.27044
11,3,41,133,3,0.64246,3.4908,3,1.2423,1,0.51314
11,3,42,134,3,0.52859,3.1689,2,10.739,1,1.2021
11,3,43,135,3,0.52721,3.7922,2,1.5558,1,0.36062
11,3,44,136,3,0.45307,2.9363,2,1.3643,1,1.0141
11,3,45,137,3,0.62127,3.4735,3,1.2931,1,0.46433
11,3,46,138,6,0.39017,5.8274,3,1.1515,0,1.8062
11,3,47,139,3,0.93978,3.3369,2,6.1516,0,2.7333
11,3,48,140,6,1.0027,5.5696,3,0.95014,1,1.0053
11,3,49,141,6,0.67864,5.7425,3,1.3637,0,1.1392
11,3,50,142,3,0.83359,2.6197,2,1.6779,0,0.72606
11,3,51,143,6,0.5273,5.8169,2,2.7841,1,1.2378
11,3,52,144,6,3.7501,5.3759,3,2.3892,0,0.45761
11,3,53,145,6,1.5136,5.5683,3,2.0844,0,0.31595
11,3,54,146,3,0.94397,3.2779,3,1.8371,0,0.30658
11,3,55,147,6,1.0023,5.7715,2,1.7496,0,0.26591
11,3,56,148,3,0.9108,3.8429,2,1.9805,0,0.42879
11,3,57,149,6,0.709,5.7778,3,1.1016,0,0.43256
11,3,58,150,3,0.57885,2.2681,2,1.1654,0,0.32872
11,3,59,151,6,0.95067,5.1689,3,0.74843,0,0.6177
11,3,60,152,3,0.46114,3.106,2,2.1924,1,0.48486
11,3,61,153,6,1.2961,7.5557,1,2.7447,1,0.9495
11,3,62,154,6,0.54811,7.0293,2,1.6,1,0.24072
11,3,63,155,6,0.63412,6.37,3,1.4353,1,2.131
11,3,64,156,3,0.75952,0.24066,1,1.9988,0,0.18783
11,3,65,157,3,0.81526,4.6792,1,2.6311,1,0.22651
11,3,66,158,6,0.73422,6.444,2,7.4496,0,1.1649
11,3,67,159,3,0.48511,3.246,3,0.57428,1,0.75133
11,3,68,160,3,0.59423,3.2415,2,1.0203,0,0.2956
11,3,69,161,6,2.0064,5.6455,2,3.4298,0,1.9855
11,3,70,162,6,1.4531,6.4064,2,1.8257,0,1.161
11,3,71,163,3,1.0639,3.3324,3,0.96374,0,0.80215
11,3,72,164,3,0.72289,3.7372,3,3.1149,0,1.3765
11,3,73,165,6,0.60262,6.0081,3,0.96185,1,1.4673
11,3,74,166,6,1.3828,6.0823,3,4.5939,0,1.4302
11,3,75,167,3,0.47089,3.8615,1,1.3319,1,0.55395
11,3,76,168,6,0.44551,6.4811,3,1.2795,0,0.19178
11,3,77,169,6,1.3754,6.3763,2,1.1988,1,0.76586
11,3,78,170,6,1.0742,6.7633,3,1.1999,0,0.69351
11,3,79,171,6,0.8847,6.482,2,5.7421,1,0.67894
11,3,80,172,6,0.54212,6.9035,2,1.2073,1,0.662
11,3,81,173,3,1.8502,3.6068,3,1.8427,0,0.7611
11,3,82,174,6,1.1522,5.9955,2,9.7151,0,1.2865
11,3,83,175,6,0.40924,5.4167,3,1.1843,0,0.41725
11,3,84,176,6,0.68059,6.295,1,1.0007,1,1.0694
11,3,85,177,6,0.74976,6.744,2,0.37365,1,0.3397
11,3,86,178,6,0.72438,6.0391,3,0.93775,0,0.37207
11,3,87,179,6,0.91673,6.5683,3,1.744,0,0.51371
11,3,88,180,3,1.6767,3.6511,2,1.7121,1,1.0629
11,3,89,181,6,0.6535,5.3483,2,1.2312,1,1.2274
11,3,90,182,3,0.73547,3.9962,1,2.1218,1,0.21868
11,3,91,183,3,0.60658,2.8874,2,2.2795,0,0.12627
11,3,92,184,3,0.50648,3.3132,2,0.94855,0,0.20485
12,1,1,1,3,1.364,3.2308,2,1.5879,0,2.0578
12,1,2,2,3,1.5597,3.439,3,1.6784,1,1.4526
12,1,3,3,3,1.9308,3.5288,1,1.3103,1,1.3523
12,1,4,4,3,2.0419,3.2854,2,1.7513,1,1.5923
12,1,5,5,3,1.5642,3.5424,1,1.0453,1,2.1913
12,1,6,6,3,2.0029,4.7178,1,1.9881,1,1.0566
12,1,7,7,3,1.351,3.0925,3,1.7075,0,0.87342
12,1,8,8,3,1.7553,3.3575,3,1.7194,1,0.86746
12,1,9,9,3,1.304,3.1839,2,1.2733,0,0.87448
12,1,10,10,3,1.2143,3.0187,2,1.7893,0,0.83383
12,1,11,11,3,1.7126,3.2919,3,1.2195,1,1.1067
12,1,12,12,3,1.2418,3.3759,2,1.5066,1,1.0739
12,1,13,13,3,2.2949,2.9007,3,1.4132,1,1.9797
12,1,14,14,3,2.8193,2.7319,2,1.2905,0,0.78645
12,1,15,15,3,1.7817,3.1434,2,1.5209,1,0.87116
12,1,16,16,3,3.0186,2.7426,2,2.0232,0,0.72034
12,1,17,17,3,2.1488,3.6804,2,1.711,1,0.96271
12,1,18,18,3,2.0544,3.2441,3,2.5592,0,0.8985
12,1,19,19,3,3.2974,2.6628,2,1.5385,0,0.55886
12,1,20,20,3,2.1158,3.2169,3,1.7865,1,1.382
12,1,21,21,3,1.8103,3.2374,1,1.6533,0,2.7692
12,1,22,22,3,1.6331,2.7942,1,2.2617,0,0.87474
12,1,23,23,3,2.6028,3.6202,2,1.9389,1,2.4581
12,1,24,24,3,1.3477,3.4941,2,1.7081,0,0.82354
12,1,25,25,3,1.8172,2.9081,2,3.5695,0,4.4428
12,1,26,26,3,1.7013,3.066,3,2.3528,1,1.2544
12,1,27,27,3,0.82881,2.6676,3,2.1257,0,1.2985
12,1,28,28,3,0.86877,3.2078,2,1.357,0,0.7113
12,1,29,29,3,1.008,3.0253,3,1.7585,1,0.64861
12,1,30,30,3,1.5848,2.6173,2,4.9138,0,0.9075
12,1,31,31,3,1.6196,2.7948,3,3.5615,0,1.6964
12,1,32,32,3,1.0159,2.7918,2,1.4199,0,0.50838
12,1,33,33,3,1.5089,3.1753,3,1.1208,1,0.80838
12,1,34,34,3,1.2513,3.0302,1,1.8253,1,0.86218
12,1,35,35,3,0.81,4.0159,1,1.4502,1,0.87914
12,1,36,36,3,2.6043,2.8038,2,1.4412,1,0.25028
12,1,37,37,3,0.80257,3.4584,3,1.5316,0,0.95129
12,1,38,38,3,0.085793,3.4845,1,1.0243,0,1.551
12,1,39,39,3,1.0338,2.7298,2,1.339,0,0.46025
12,1,40,40,3,1.5022,2.968,2,1.3005,1,0.50478
12,1,41,41,3,1.494,2.8023,3,1.3649,1,1.2018
12,1,42,42,3,2.2866,2.8545,3,1.392,1,1.4503
12,1,43,43,3,1.3687,2.8697,2,1.6274,0,0.78828
12,1,44,44,3,1.6637,3.1282,1,1.7376,0,1.2814
12,1,45,45,3,0.71579,2.9557,2,1.3922,0,0.52546
12,1,46,46,3,1.5573,3.0114,3,1.4733,1,2.2858
12,2,1,47,6,2.8553,5.0557,2,1.1736,1,2.9624
12,2,2,48,6,1.9581,5.6736,2,1.453,0,0.61919
12,2,3,49,6,1.8651,5.9934,1,1.4384,1,1.2094
12,2,4,50,6,1.3912,5.987,2,1.1858,1,0.75806
12,2,5,51,6,1.9467,6.1654,3,1.1445,0,2.1026
12,2,6,52,6,1.6351,6.0805,3,1.2409,1,0.66248
12,2,7,53,6,1.0521,5.9578,3,1.6642,1,1.1774
12,2,8,54,6,2.1195,5.9668,2,5.4455,0,0.94225
12,2,9,55,6,1.5015,6.6924,1,1.0891,1,0.69789
12,2,10,56,6,0.97244,5.9741,2,2.5847,0,0.78995
12,2,11,57,6,0.9499,5.9931,3,0.93742,1,2.0854
12,2,12,58,6,1.1056,5.8736,3,2.2885,0,0.60788
12,2,13,59,6,0.92746,7.3168,1,1.3284,1,0.92825
12,2,14,60,6,0.96019,6.0903,2,1.1383,0,0.91131
12,2,15,61,6,0.91321,5.8056,3,1.1637,1,0.92643
12,2,16,62,6,1.0537,5.7839,2,1.1198,0,0.7583
12,2,17,63,6,1.077,6.2912,2,1.7003,1,1.1301
12,2,18,64,6,1.0521,6.145,3,1.2512,0,1.4936
12,2,19,65,6,1.1824,6.1952,2,1.2779,1,0.70232
12,2,20,66,6,1.1823,6.658,1,1.1869,1,0.69688
12,2,21,67,6,1.1861,5.8825,2,1.0443,1,1.1036
12,2,22,68,6,1.1784,5.5655,2,1.1208,0,0.87166
12,2,23,69,6,1.0507,5.9313,3,1.2924,1,0.68912
12,2,24,70,6,1.159,6.1013,3,1.1829,1,1.3798
12,2,25,71,6,1.3642,6.2314,1,1.166,1,1.2295
12,2,26,72,6,1.4015,5.4933,2,1.4775,0,0.51434
12,2,27,73,6,1.3439,6.302,2,1.4965,1,0.28773
12,2,28,74,6,1.745,5.9903,1,2.6883,0,1.7311
12,2,29,75,6,1.431,5.6309,2,1.3819,0,0.86434
12,2,30,76,6,1.2305,6.381,3,2.8407,1,1.9948
12,2,31,77,6,1.5195,6.444,3,3.0241,1,0.31967
12,2,32,78,6,1.7289,6.3272,3,1.4135,0,0.5999
12,2,33,79,6,1.8444,5.989,3,1.6627,1,1.3526
12,2,34,80,6,1.6028,6.1562,2,1.3624,1,0.89167
12,2,35,81,6,1.6571,5.8485,3,1.1923,0,0.56382
12,2,36,82,6,1.8814,5.7307,2,1.5553,1,0.47084
12,2,37,83,6,1.3228,5.6614,2,1.6528,1,2.9316
12,2,38,84,6,1.2808,5.7441,3,1.4649,1,1.0774
12,2,39,85,6,1.5768,6.5139,3,1.7409,1,0.98611
12,2,40,86,6,1.5927,6.013,3,1.2915,0,0.72536
12,2,41,87,6,1.3833,6.1411,1,1.489,1,0.71035
12,2,42,88,6,5.996,5.8441,2,1.2016,0,2.0944
12,2,43,89,6,1.3765,5.9138,3,1.1554,0,1.2968
12,2,44,90,6,1.5272,6.0147,2,1.3183,0,0.69351
12,2,45,91,6,1.3371,5.9585,1,0.99999,1,1.0294
12,2,46,92,6,3.3358,5.6558,2,1.5877,0,0.62175
12,3,1,93,3,2.4158,3.1291,2,1.3618,0,1.0901
12,3,2,94,3,0.80117,3.8692,3,1.0246,1,0.57545
12,3,3,95,6,1.6866,5.969,2,1.1345,0,1.0936
12,3,4,96,3,1.2319,3.4195,3,1.0632,1,0.77618
12,3,5,97,6,1.3907,5.9863,2,1.0604,1,0.70313
12,3,6,98,3,1.3594,3.0133,3,1.213,0,0.68859
12,3,7,99,3,1.0861,3.5465,2,1.2227,1,0.69856
12,3,8,100,3,1.6334,3.2577,3,1.8447,0,0.88857
12,3,9,101,6,1.3524,5.8559,3,1.252,1,0.56817
12,3,10,102,6,1.6265,6.0391,2,4.0998,0,0.50045
12,3,11,103,6,1.5226,6.1345,3,1.2957,0,0.50412
12,3,12,104,6,1.8063,7.6095,2,2.6987,1,0.77782
12,3,13,105,6,1.3758,5.9251,2,1.3124,0,0.32516
12,3,14,106,3,1.1234,3.361,3,1.0462,0,1.039
12,3,15,107,3,1.0607,3.7024,1,1.5128,1,0.72952
12,3,16,108,3,1.0232,3.3747,2,2.0807,0,0.64154
12,3,17,109,6,1.4911,5.8119,1,4.0277,1,1.4691
12,3,18,110,3,0.79338,3.1654,3,1.1868,1,0.72005
12,3,19,111,3,0.95585,3.1489,2,1.3385,0,0.72218
12,3,20,112,3,1.2295,3.1431,3,1.384,1,0.39132
12,3,21,113,6,1.7158,5.9436,2,1.0639,1,0.67747
12,3,22,114,3,0.9634,3.2813,3,0.78757,0,1.5724
12,3,23,115,6,1.4271,5.9521,3,1.4588,0,1.075
12,3,24,116,6,1.2813,6.1313,2,1.0047,1,0.61004
12,3,25,117,6,1.2595,5.9894,2,1.6381,1,0.65762
12,3,26,118,3,1.5864,3.4442,3,1.122,0,2.0223
12,3,27,119,3,1.3807,3.2552,3,2.0043,0,1.168
12,3,28,120,3,1.0628,3.0684,3,1.3747,0,0.88767
12,3,29,121,6,1.1889,6.0101,2,1.4006,0,0.87937
12,3,30,122,6,3.1668,5.7778,3,3.2907,1,1.5438
12,3,31,123,3,1.3769,2.9645,2,1.475,0,0.31364
12,3,32,124,6,1.6377,5.8699,3,2.9862,0,2.165
12,3,33,125,6,1.3022,6.2693,2,1.5708,1,1.3455
12,3,34,126,6,0.77804,5.6293,1,1.8918,1,1.5611
12,3,35,127,3,0.84698,3.2318,3,1.0897,0,0.59789
12,3,36,128,3,0.89699,3.4574,3,1.2167,1,0.73035
12,3,37,129,3,13.222,4.32,1,1.1156,0,0.81687
12,3,38,130,6,1.1106,6.0779,2,1.3641,1,0.25139
12,3,39,131,6,0.14018,6.2034,2,1.4214,1,0.78391
12,3,40,132,6,1.4642,5.9181,2,2.196,1,0.77748
12,3,41,133,6,1.8275,5.9761,3,1.2506,0,0.74219
12,3,42,134,6,1.2644,6.2941,3,2.1621,1,0.8641
12,3,43,135,6,1.5992,6.395,2,1.6008,1,0.19151
12,3,44,136,6,0.7392,6.3238,2,2.664,1,0.5882
12,3,45,137,6,1.0347,6.3191,3,1.4465,1,1.4926
12,3,46,138,3,0.84128,3.3009,3,1.2376,0,0.62129
12,3,47,139,6,1.6814,6.1929,2,1.2618,0,0.60389
12,3,48,140,6,0.63955,12.313,1,3.8014,1,1.6024
12,3,49,141,6,1.4569,6.1736,3,0.98757,0,1.8476
12,3,50,142,3,1.5095,4.5249,1,1.3907,1,0.62434
12,3,51,143,3,0.9362,3.4093,3,1.0067,1,1.262
12,3,52,144,3,1.0647,3.0821,3,1.1974,1,0.76581
12,3,53,145,6,0.61805,5.9324,3,1.3937,0,0.62628
12,3,54,146,3,0.93534,2.5836,3,1.263,0,0.80027
12,3,55,147,3,0.64229,3.0774,2,1.4601,1,1.4019
12,3,56,148,6,1.3008,6.1803,3,1.3908,1,0.83628
12,3,57,149,3,0.8172,3.2186,3,1.375,1,1.3376
12,3,58,150,3,0.84385,3.229,2,1.4109,0,0.67656
12,3,59,151,3,0.83724,3.5479,3,1.9864,1,0.59349
12,3,60,152,3,1.1046,3.3722,2,1.441,1,0.48677
12,3,61,153,6,1.1716,6.2975,2,2.6284,0,0.63738
12,3,62,154,3,10.335,4.9386,1,1.1902,0,1.5988
12,3,63,155,3,1.6685,3.33,3,1.1491,1,0.60368
12,3,64,156,3,0.85417,3.3099,3,1.0208,0,0.47083
12,3,65,157,3,0.77099,3.5983,3,1.1115,0,0.65484
12,3,66,158,3,0.69046,3.2009,3,1.2375,1,0.58332
12,3,67,159,3,0.6943,3.4049,2,3.2536,1,0.67641
12,3,68,160,3,0.88823,4.1104,1,2.1198,1,0.62932
12,3,69,161,6,0.57918,6.6203,3,1.1828,1,0.49262
12,3,70,162,6,0.58202,6.2809,2,1.5035,1,1.0695
12,3,71,163,3,0.71094,3.292,3,1.1561,0,1.1121
12,3,72,164,6,1.4729,5.5723,2,1.6259,0,0.40148
12,3,73,165,3,0.53192,3.1935,3,1.0087,1,0.77598
