"Subj_idx","Stimulus","Response","Confidence","RT_dec","RT_conf","date","age","block","trial","Condition","setsize","cuePos","targetPos","prime1","prime2","prime3","prime4","prime5","prime6","target","changedTarget","Accuracy"
1,1,0,2,1.5576,1.0828,"10.04.17_11:19:38",25,1,1,1,6,6,6,"331.jpg","330.jpg","299.jpg","201.jpg","157.jpg","248.jpg","248.jpg","150.jpg",0
1,0,0,3,1.0314,1.3154,"10.04.17_11:19:45",25,1,2,2,6,6,5,"268.jpg","109.jpg","201.jpg","262.jpg","110.jpg","233.jpg","110.jpg","nope",1
1,0,1,2,1.7392,1.0018,"10.04.17_11:19:52",25,1,3,2,6,2,3,"187.jpg","345.jpg","60.jpg","65.jpg","341.jpg","318.jpg","60.jpg","nope",0
1,0,0,3,0.9808,1.0728,"10.04.17_11:19:59",25,1,4,3,6,6,4,"221.jpg","298.jpg","303.jpg","59.jpg","397.jpg","279.jpg","59.jpg","nope",1
1,1,1,2,1.7896,1.083,"10.04.17_11:20:06",25,1,5,1,6,3,3,"154.jpg","2.jpg","157.jpg","216.jpg","362.jpg","335.jpg","157.jpg","151.jpg",1
1,1,1,2,1.4359,0.6075,"10.04.17_11:20:13",25,1,6,1,6,2,2,"324.jpg","2.jpg","226.jpg","258.jpg","218.jpg","157.jpg","2.jpg","96.jpg",1
1,1,0,3,0.7079,1.0017,"10.04.17_11:20:19",25,1,7,2,6,4,5,"127.jpg","395.jpg","29.jpg","243.jpg","22.jpg","294.jpg","22.jpg","77.jpg",0
1,0,0,2,1.6582,1.3157,"10.04.17_11:20:26",25,1,8,1,6,2,2,"377.jpg","235.jpg","259.jpg","323.jpg","42.jpg","343.jpg","235.jpg","nope",1
1,1,0,2,1.6684,0.9918,"10.04.17_11:20:33",25,1,9,1,6,3,3,"26.jpg","197.jpg","118.jpg","112.jpg","224.jpg","126.jpg","118.jpg","47.jpg",0
1,0,0,3,1.1326,1.5683,"10.04.17_11:20:41",25,1,10,2,6,6,1,"41.jpg","163.jpg","185.jpg","396.jpg","145.jpg","187.jpg","41.jpg","nope",1
1,0,0,3,0.7382,0.6685,"10.04.17_11:20:47",25,1,11,1,6,4,4,"155.jpg","375.jpg","327.jpg","171.jpg","9.jpg","84.jpg","171.jpg","nope",1
1,1,1,3,1.254,0.7292,"10.04.17_11:20:53",25,1,12,2,6,5,4,"19.jpg","226.jpg","260.jpg","142.jpg","377.jpg","319.jpg","142.jpg","11.jpg",1
1,1,1,2,1.3349,0.6383,"10.04.17_11:20:59",25,1,13,2,6,6,1,"130.jpg","53.jpg","51.jpg","62.jpg","32.jpg","151.jpg","130.jpg","206.jpg",1
1,0,0,4,0.4653,1.2348,"10.04.17_11:21:06",25,1,14,1,6,6,6,"313.jpg","314.jpg","321.jpg","341.jpg","172.jpg","217.jpg","217.jpg","nope",1
1,1,0,3,0.6877,0.9617,"10.04.17_11:21:12",25,1,15,2,6,1,6,"204.jpg","36.jpg","314.jpg","371.jpg","65.jpg","324.jpg","324.jpg","395.jpg",0
1,0,1,3,1.0624,1.5584,"10.04.17_11:21:19",25,1,16,2,6,2,1,"131.jpg","227.jpg","31.jpg","162.jpg","385.jpg","66.jpg","131.jpg","nope",0
1,1,0,3,0.4864,0.791,"10.04.17_11:21:25",25,1,17,2,6,6,5,"383.jpg","319.jpg","229.jpg","371.jpg","357.jpg","235.jpg","357.jpg","209.jpg",0
1,1,1,2,1.9008,1.275,"10.04.17_11:21:32",25,1,18,2,6,1,2,"35.jpg","92.jpg","223.jpg","265.jpg","271.jpg","231.jpg","92.jpg","258.jpg",1
1,0,0,3,0.6677,1.3657,"10.04.17_11:21:39",25,1,19,1,6,5,5,"198.jpg","322.jpg","158.jpg","310.jpg","377.jpg","168.jpg","377.jpg","nope",1
1,1,0,3,1.3245,1.1132,"10.04.17_11:21:46",25,1,20,2,6,1,2,"57.jpg","45.jpg","329.jpg","48.jpg","116.jpg","314.jpg","45.jpg","270.jpg",0
1,1,1,3,1.1426,1.3559,"10.04.17_11:21:53",25,1,21,1,6,2,2,"347.jpg","132.jpg","191.jpg","335.jpg","297.jpg","68.jpg","132.jpg","226.jpg",1
1,0,0,2,0.4248,1.9119,"10.04.17_11:22:00",25,1,22,3,6,2,4,"109.jpg","382.jpg","202.jpg","36.jpg","320.jpg","228.jpg","36.jpg","nope",1
1,1,0,2,0.7386,1.5988,"10.04.17_11:22:06",25,1,23,2,6,5,4,"386.jpg","201.jpg","145.jpg","9.jpg","179.jpg","172.jpg","9.jpg","69.jpg",0
1,1,1,3,0.7688,1.1235,"10.04.17_11:22:13",25,1,24,1,6,1,1,"385.jpg","398.jpg","389.jpg","98.jpg","288.jpg","52.jpg","385.jpg","318.jpg",1
1,1,1,3,0.6169,0.7491,"10.04.17_11:22:19",25,1,25,1,6,4,4,"228.jpg","163.jpg","156.jpg","337.jpg","352.jpg","198.jpg","337.jpg","63.jpg",1
1,0,0,2,1.5877,0.84,"10.04.17_11:22:25",25,1,26,1,6,2,2,"157.jpg","55.jpg","71.jpg","4.jpg","20.jpg","76.jpg","55.jpg","nope",1
1,1,1,3,0.8595,0.8405,"10.04.17_11:22:32",25,1,27,1,6,2,2,"38.jpg","152.jpg","46.jpg","34.jpg","129.jpg","359.jpg","152.jpg","332.jpg",1
1,1,1,2,0.8195,0.8399,"10.04.17_11:22:38",25,1,28,1,6,3,3,"19.jpg","323.jpg","244.jpg","322.jpg","316.jpg","185.jpg","244.jpg","139.jpg",1
1,0,0,3,0.5764,0.6784,"10.04.17_11:22:44",25,1,29,1,6,5,5,"326.jpg","77.jpg","96.jpg","308.jpg","372.jpg","89.jpg","372.jpg","nope",1
1,0,0,4,1.3853,1.1536,"10.04.17_11:22:51",25,1,30,2,6,1,2,"275.jpg","150.jpg","41.jpg","296.jpg","216.jpg","90.jpg","150.jpg","nope",1
1,0,0,2,0.6977,1.0437,"10.04.17_11:22:57",25,1,31,1,6,5,5,"281.jpg","88.jpg","128.jpg","157.jpg","195.jpg","311.jpg","195.jpg","nope",1
1,0,0,3,0.4552,0.8804,"10.04.17_11:23:03",25,1,32,2,6,5,4,"163.jpg","17.jpg","371.jpg","125.jpg","250.jpg","193.jpg","125.jpg","nope",1
1,1,1,3,1.6683,1.1234,"10.04.17_11:23:10",25,1,33,1,6,5,5,"213.jpg","364.jpg","251.jpg","26.jpg","183.jpg","193.jpg","183.jpg","228.jpg",1
1,0,0,4,0.6472,1.9528,"10.04.17_11:23:17",25,1,34,2,6,6,1,"188.jpg","372.jpg","115.jpg","306.jpg","265.jpg","382.jpg","188.jpg","nope",1
1,1,0,2,1.8199,1.1234,"10.04.17_11:23:24",25,1,35,2,6,3,2,"43.jpg","42.jpg","357.jpg","198.jpg","21.jpg","393.jpg","42.jpg","289.jpg",0
1,1,0,4,0.5866,1.1336,"10.04.17_11:23:31",25,1,36,2,6,1,2,"177.jpg","289.jpg","400.jpg","333.jpg","362.jpg","118.jpg","289.jpg","159.jpg",0
1,0,1,2,1.2033,0.9219,"10.04.17_11:23:37",25,1,37,3,6,2,5,"112.jpg","4.jpg","352.jpg","281.jpg","172.jpg","220.jpg","172.jpg","nope",0
1,0,0,2,1.5773,0.8402,"10.04.17_11:23:44",25,1,38,1,6,4,4,"39.jpg","251.jpg","73.jpg","158.jpg","108.jpg","227.jpg","158.jpg","nope",1
1,0,0,2,2.2042,0.9612,"10.04.17_11:23:52",25,1,39,1,6,4,4,"356.jpg","292.jpg","162.jpg","401.jpg","265.jpg","68.jpg","401.jpg","nope",1
1,0,0,2,1.689,1.5281,"10.04.17_11:23:59",25,1,40,1,6,1,1,"290.jpg","149.jpg","318.jpg","50.jpg","355.jpg","386.jpg","290.jpg","nope",1
1,0,1,3,0.7685,1.0021,"10.04.17_11:24:06",25,1,41,2,6,4,5,"124.jpg","29.jpg","172.jpg","10.jpg","390.jpg","47.jpg","390.jpg","nope",0
1,0,1,2,1.9211,0.5976,"10.04.17_11:24:13",25,1,42,2,6,3,4,"273.jpg","3.jpg","59.jpg","332.jpg","208.jpg","111.jpg","332.jpg","nope",0
1,1,1,1,4.4484,1.1129,"10.04.17_11:24:23",25,1,43,2,6,4,5,"273.jpg","61.jpg","226.jpg","210.jpg","313.jpg","32.jpg","313.jpg","278.jpg",1
1,0,0,1,1.8706,0.4862,"10.04.17_11:24:30",25,1,44,2,6,5,6,"147.jpg","148.jpg","134.jpg","357.jpg","286.jpg","153.jpg","153.jpg","nope",1
1,0,0,1,3.0942,0.7188,"10.04.17_11:24:38",25,1,45,1,6,1,1,"392.jpg","258.jpg","303.jpg","21.jpg","242.jpg","95.jpg","392.jpg","nope",1
1,0,0,1,3.3668,0.5977,"10.04.17_11:24:46",25,1,46,2,6,4,5,"67.jpg","193.jpg","89.jpg","185.jpg","304.jpg","48.jpg","304.jpg","nope",1
1,0,0,3,2.3052,0.7995,"10.04.17_11:24:54",25,1,47,1,6,6,6,"62.jpg","24.jpg","350.jpg","201.jpg","247.jpg","44.jpg","44.jpg","nope",1
1,1,0,1,3.9843,0.6783,"10.04.17_11:25:03",25,1,48,1,6,3,3,"270.jpg","394.jpg","103.jpg","237.jpg","368.jpg","90.jpg","103.jpg","247.jpg",0
1,0,0,2,2.7299,2.1141,"10.04.17_11:25:12",25,1,49,1,6,1,1,"76.jpg","289.jpg","271.jpg","362.jpg","301.jpg","152.jpg","76.jpg","nope",1
1,1,0,2,3.4275,0.5163,"10.04.17_11:25:21",25,1,50,2,6,5,4,"36.jpg","218.jpg","207.jpg","151.jpg","166.jpg","53.jpg","151.jpg","128.jpg",0
1,1,1,2,1.6685,0.8001,"10.04.17_11:25:28",25,1,51,1,6,1,1,"138.jpg","165.jpg","372.jpg","225.jpg","339.jpg","9.jpg","138.jpg","201.jpg",1
1,1,0,2,3.1948,0.5674,"10.04.17_11:25:36",25,1,52,3,6,3,6,"379.jpg","274.jpg","65.jpg","20.jpg","97.jpg","13.jpg","13.jpg","51.jpg",0
1,1,0,2,1.83,0.9919,"10.04.17_11:25:43",25,1,53,1,6,5,5,"160.jpg","118.jpg","372.jpg","261.jpg","57.jpg","211.jpg","57.jpg","55.jpg",0
1,0,0,1,2.74,0.4763,"10.04.17_11:25:51",25,1,54,2,6,4,3,"60.jpg","373.jpg","214.jpg","217.jpg","270.jpg","380.jpg","214.jpg","nope",1
1,0,0,2,3.2359,0.5977,"10.04.17_11:25:59",25,1,55,3,6,2,5,"123.jpg","243.jpg","322.jpg","117.jpg","222.jpg","146.jpg","222.jpg","nope",1
1,1,0,2,1.5066,1.0021,"10.04.17_11:26:06",25,1,56,1,6,4,4,"354.jpg","202.jpg","350.jpg","215.jpg","293.jpg","353.jpg","215.jpg","233.jpg",0
1,0,1,2,3.5791,0.7093,"10.04.17_11:26:15",25,1,57,2,6,1,6,"209.jpg","71.jpg","80.jpg","318.jpg","375.jpg","355.jpg","355.jpg","nope",0
1,1,0,1,2.275,1.0421,"10.04.17_11:26:23",25,1,58,2,6,4,5,"137.jpg","48.jpg","30.jpg","249.jpg","15.jpg","219.jpg","15.jpg","333.jpg",0
1,0,0,1,4.1552,1.2749,"10.04.17_11:26:33",25,1,59,3,6,1,3,"149.jpg","201.jpg","122.jpg","198.jpg","10.jpg","392.jpg","122.jpg","nope",1
1,0,0,2,1.446,0.5973,"10.04.17_11:26:39",25,1,60,1,6,5,5,"268.jpg","264.jpg","186.jpg","151.jpg","348.jpg","122.jpg","348.jpg","nope",1
1,0,0,3,0.799,1.1639,"10.04.17_11:26:46",25,1,61,1,6,4,4,"191.jpg","334.jpg","240.jpg","400.jpg","228.jpg","121.jpg","400.jpg","nope",1
1,1,1,1,3.3971,0.8402,"10.04.17_11:26:54",25,1,62,2,6,4,3,"176.jpg","165.jpg","32.jpg","339.jpg","162.jpg","349.jpg","32.jpg","237.jpg",1
1,0,0,3,2.0423,0.7998,"10.04.17_11:27:02",25,1,63,1,6,5,5,"20.jpg","229.jpg","75.jpg","338.jpg","65.jpg","190.jpg","65.jpg","nope",1
1,0,0,2,2.6697,1.639,"10.04.17_11:27:10",25,1,64,3,6,3,1,"78.jpg","85.jpg","283.jpg","313.jpg","122.jpg","158.jpg","78.jpg","nope",1
1,1,0,1,2.2551,0.8811,"10.04.17_11:27:18",25,1,65,2,6,4,5,"222.jpg","324.jpg","57.jpg","43.jpg","316.jpg","24.jpg","316.jpg","85.jpg",0
1,1,0,1,1.4662,1.6998,"10.04.17_11:27:26",25,1,66,2,6,4,3,"315.jpg","234.jpg","170.jpg","205.jpg","12.jpg","72.jpg","170.jpg","293.jpg",0
1,1,0,1,1.6986,0.84,"10.04.17_11:27:33",25,1,67,3,6,3,6,"106.jpg","180.jpg","249.jpg","42.jpg","152.jpg","66.jpg","66.jpg","282.jpg",0
1,1,0,2,2.3466,0.4055,"10.04.17_11:27:40",25,1,68,1,6,3,3,"366.jpg","70.jpg","358.jpg","217.jpg","76.jpg","241.jpg","358.jpg","160.jpg",0
1,0,0,2,2.7706,0.5168,"10.04.17_11:27:48",25,1,69,2,6,3,4,"245.jpg","217.jpg","384.jpg","297.jpg","192.jpg","57.jpg","297.jpg","nope",1
1,0,0,2,1.9008,0.8807,"10.04.17_11:27:55",25,1,70,1,6,4,4,"383.jpg","173.jpg","266.jpg","121.jpg","49.jpg","246.jpg","121.jpg","nope",1
1,0,1,2,2.0222,0.5375,"10.04.17_11:28:02",25,1,71,2,6,5,6,"129.jpg","148.jpg","354.jpg","251.jpg","124.jpg","75.jpg","75.jpg","nope",0
1,0,1,2,2.9542,0.6385,"10.04.17_11:28:10",25,1,72,2,6,1,2,"235.jpg","213.jpg","215.jpg","254.jpg","233.jpg","168.jpg","213.jpg","nope",0
1,0,0,2,1.0921,1.0424,"10.04.17_11:28:17",25,1,73,1,6,2,2,"209.jpg","220.jpg","145.jpg","242.jpg","247.jpg","107.jpg","220.jpg","nope",1
1,0,1,2,1.3448,0.4769,"10.04.17_11:28:23",25,1,74,1,6,3,3,"231.jpg","1.jpg","292.jpg","226.jpg","268.jpg","70.jpg","292.jpg","nope",0
1,0,0,3,1.3448,0.8404,"10.04.17_11:28:29",25,1,75,1,6,3,3,"29.jpg","240.jpg","241.jpg","222.jpg","56.jpg","359.jpg","241.jpg","nope",1
1,0,1,2,1.9918,0.6792,"10.04.17_11:28:37",25,1,76,2,6,4,5,"28.jpg","39.jpg","378.jpg","181.jpg","67.jpg","114.jpg","67.jpg","nope",0
1,0,1,2,1.456,0.638,"10.04.17_11:28:43",25,1,77,1,6,4,4,"356.jpg","89.jpg","158.jpg","364.jpg","128.jpg","339.jpg","364.jpg","nope",0
1,1,1,3,1.4864,0.8807,"10.04.17_11:28:50",25,1,78,2,6,2,1,"305.jpg","58.jpg","398.jpg","235.jpg","206.jpg","401.jpg","305.jpg","190.jpg",1
1,0,0,2,1.6076,0.4058,"10.04.17_11:28:56",25,1,79,2,6,4,5,"175.jpg","146.jpg","242.jpg","134.jpg","190.jpg","209.jpg","190.jpg","nope",1
1,0,0,1,2.3356,0.5572,"10.04.17_11:29:04",25,1,80,2,6,1,2,"264.jpg","163.jpg","137.jpg","334.jpg","234.jpg","29.jpg","163.jpg","nope",1
1,0,0,3,1.8504,0.9515,"10.04.17_11:29:11",25,1,81,2,6,5,6,"299.jpg","114.jpg","106.jpg","130.jpg","240.jpg","271.jpg","271.jpg","nope",1
1,1,0,2,2.0327,0.4456,"10.04.17_11:29:18",25,1,82,2,6,1,2,"219.jpg","160.jpg","72.jpg","200.jpg","128.jpg","216.jpg","160.jpg","116.jpg",0
1,1,1,2,1.6076,0.5272,"10.04.17_11:29:25",25,1,83,1,6,3,3,"34.jpg","226.jpg","368.jpg","214.jpg","340.jpg","241.jpg","368.jpg","131.jpg",1
1,0,0,4,1.5065,1.1539,"10.04.17_11:29:32",25,1,84,1,6,1,1,"308.jpg","293.jpg","20.jpg","261.jpg","226.jpg","339.jpg","308.jpg","nope",1
1,0,0,4,1.1936,0.911,"10.04.17_11:29:38",25,1,85,1,6,5,5,"209.jpg","32.jpg","380.jpg","188.jpg","186.jpg","50.jpg","186.jpg","nope",1
1,1,0,2,2.4873,0.5167,"10.04.17_11:29:46",25,1,86,2,6,4,3,"242.jpg","347.jpg","374.jpg","235.jpg","117.jpg","208.jpg","374.jpg","48.jpg",0
1,1,1,3,2.1232,1.0829,"10.04.17_11:29:53",25,1,87,1,6,5,5,"38.jpg","53.jpg","390.jpg","196.jpg","389.jpg","227.jpg","389.jpg","83.jpg",1
1,1,0,2,2.477,0.7996,"10.04.17_11:30:01",25,1,88,2,6,1,6,"284.jpg","212.jpg","122.jpg","55.jpg","238.jpg","321.jpg","321.jpg","383.jpg",0
1,1,1,4,1.9316,0.8403,"10.04.17_11:30:08",25,1,89,1,6,5,5,"379.jpg","224.jpg","167.jpg","181.jpg","3.jpg","134.jpg","3.jpg","328.jpg",1
1,1,0,2,1.4762,0.7492,"10.04.17_11:30:15",25,1,90,1,6,3,3,"202.jpg","144.jpg","154.jpg","4.jpg","201.jpg","58.jpg","154.jpg","207.jpg",0
1,1,0,2,1.0921,0.6374,"10.04.17_11:30:52",25,2,91,2,6,6,1,"144.jpg","365.jpg","395.jpg","263.jpg","43.jpg","198.jpg","144.jpg","218.jpg",0
1,1,1,3,1.8912,0.6985,"10.04.17_11:30:59",25,2,92,2,6,6,1,"312.jpg","276.jpg","273.jpg","244.jpg","143.jpg","98.jpg","312.jpg","365.jpg",1
1,0,0,3,0.5366,0.476,"10.04.17_11:31:04",25,2,93,1,6,3,3,"122.jpg","239.jpg","20.jpg","158.jpg","264.jpg","108.jpg","20.jpg","nope",1
1,0,0,2,2.5481,0.8703,"10.04.17_11:31:12",25,2,94,2,6,3,4,"207.jpg","158.jpg","250.jpg","108.jpg","276.jpg","290.jpg","108.jpg","nope",1
1,1,0,2,1.7699,1.0019,"10.04.17_11:31:19",25,2,95,2,6,6,5,"336.jpg","26.jpg","2.jpg","369.jpg","167.jpg","340.jpg","167.jpg","112.jpg",0
1,0,0,1,2.0728,0.476,"10.04.17_11:31:26",25,2,96,1,6,4,4,"223.jpg","174.jpg","277.jpg","133.jpg","327.jpg","232.jpg","133.jpg","nope",1
1,0,1,3,1.5184,1.0332,"10.04.17_11:31:33",25,2,97,1,6,2,2,"204.jpg","369.jpg","31.jpg","197.jpg","56.jpg","163.jpg","369.jpg","nope",0
1,1,0,2,1.3258,1.155,"10.04.17_11:31:40",25,2,98,1,6,5,5,"183.jpg","59.jpg","228.jpg","14.jpg","309.jpg","64.jpg","309.jpg","17.jpg",0
1,1,1,2,1.5073,0.4972,"10.04.17_11:31:47",25,2,99,1,6,2,2,"24.jpg","74.jpg","128.jpg","216.jpg","48.jpg","125.jpg","74.jpg","68.jpg",1
1,1,1,3,0.9818,0.9225,"10.04.17_11:31:53",25,2,100,1,6,6,6,"2.jpg","38.jpg","185.jpg","47.jpg","82.jpg","161.jpg","161.jpg","326.jpg",1
1,1,0,2,1.6178,0.4862,"10.04.17_11:32:00",25,2,101,2,6,4,5,"33.jpg","152.jpg","310.jpg","277.jpg","279.jpg","205.jpg","279.jpg","281.jpg",0
1,0,0,4,1.6885,0.8305,"10.04.17_11:32:07",25,2,102,1,6,5,5,"61.jpg","303.jpg","310.jpg","280.jpg","340.jpg","268.jpg","340.jpg","nope",1
1,0,0,4,1.4661,0.6784,"10.04.17_11:32:13",25,2,103,1,6,5,5,"17.jpg","324.jpg","355.jpg","137.jpg","303.jpg","43.jpg","303.jpg","nope",1
1,0,0,2,1.6885,1.0323,"10.04.17_11:32:21",25,2,104,2,6,3,2,"105.jpg","34.jpg","176.jpg","65.jpg","352.jpg","202.jpg","34.jpg","nope",1
1,1,1,4,1.5171,0.9214,"10.04.17_11:32:28",25,2,105,1,6,5,5,"397.jpg","387.jpg","181.jpg","101.jpg","189.jpg","40.jpg","189.jpg","62.jpg",1
1,0,0,3,1.2639,0.7489,"10.04.17_11:32:34",25,2,106,2,6,5,4,"117.jpg","365.jpg","401.jpg","37.jpg","225.jpg","29.jpg","37.jpg","nope",1
1,1,1,2,2.6793,1.1537,"10.04.17_11:32:42",25,2,107,2,6,6,5,"227.jpg","212.jpg","230.jpg","268.jpg","194.jpg","98.jpg","194.jpg","214.jpg",1
1,1,1,2,2.2445,1.1537,"10.04.17_11:32:50",25,2,108,2,6,1,6,"232.jpg","331.jpg","314.jpg","320.jpg","134.jpg","79.jpg","79.jpg","184.jpg",1
1,1,1,3,1.274,0.5167,"10.04.17_11:32:56",25,2,109,1,6,6,6,"61.jpg","99.jpg","194.jpg","206.jpg","255.jpg","182.jpg","182.jpg","359.jpg",1
1,0,0,2,2.012,0.8399,"10.04.17_11:33:04",25,2,110,2,6,4,3,"35.jpg","60.jpg","82.jpg","153.jpg","112.jpg","102.jpg","82.jpg","nope",1
1,1,1,3,1.0843,1.194,"10.04.17_11:33:10",25,2,111,1,6,4,4,"143.jpg","100.jpg","310.jpg","39.jpg","196.jpg","259.jpg","39.jpg","42.jpg",1
1,0,0,4,2.0933,1.275,"10.04.17_11:33:18",25,2,112,1,6,1,1,"278.jpg","7.jpg","289.jpg","55.jpg","185.jpg","302.jpg","278.jpg","nope",1
1,0,0,2,2.0625,0.5167,"10.04.17_11:33:25",25,2,113,2,6,6,5,"45.jpg","324.jpg","124.jpg","343.jpg","139.jpg","29.jpg","139.jpg","nope",1
1,1,0,2,2.6086,0.719,"10.04.17_11:33:33",25,2,114,2,6,1,6,"185.jpg","251.jpg","96.jpg","139.jpg","240.jpg","255.jpg","255.jpg","193.jpg",0
1,0,0,1,2.7809,1.2752,"10.04.17_11:33:42",25,2,115,2,6,1,6,"14.jpg","154.jpg","399.jpg","176.jpg","230.jpg","232.jpg","232.jpg","nope",1
1,0,1,1,3.6299,1.2344,"10.04.17_11:33:51",25,2,116,3,6,3,6,"198.jpg","161.jpg","55.jpg","347.jpg","91.jpg","376.jpg","376.jpg","nope",0
1,0,0,4,1.7394,0.5164,"10.04.17_11:33:58",25,2,117,1,6,6,6,"175.jpg","36.jpg","333.jpg","148.jpg","393.jpg","347.jpg","347.jpg","nope",1
1,1,0,1,2.5277,0.9512,"10.04.17_11:34:05",25,2,118,2,6,3,2,"267.jpg","80.jpg","106.jpg","369.jpg","312.jpg","148.jpg","80.jpg","339.jpg",0
1,1,1,2,1.2538,0.8003,"10.04.17_11:34:12",25,2,119,2,6,4,5,"270.jpg","225.jpg","330.jpg","306.jpg","300.jpg","278.jpg","300.jpg","22.jpg",1
1,0,1,1,2.7006,0.9113,"10.04.17_11:34:20",25,2,120,2,6,4,5,"11.jpg","377.jpg","13.jpg","96.jpg","84.jpg","118.jpg","84.jpg","nope",0
1,1,0,1,1.6279,0.7094,"10.04.17_11:34:27",25,2,121,2,6,4,5,"45.jpg","161.jpg","130.jpg","3.jpg","239.jpg","24.jpg","239.jpg","334.jpg",0
1,1,1,2,1.264,0.8406,"10.04.17_11:34:33",25,2,122,1,6,3,3,"105.jpg","239.jpg","176.jpg","5.jpg","158.jpg","160.jpg","176.jpg","88.jpg",1
1,1,1,2,1.9818,0.8304,"10.04.17_11:34:41",25,2,123,2,6,4,3,"91.jpg","27.jpg","267.jpg","193.jpg","33.jpg","271.jpg","267.jpg","60.jpg",1
1,1,1,3,1.4867,0.6183,"10.04.17_11:34:47",25,2,124,1,6,5,5,"360.jpg","236.jpg","196.jpg","76.jpg","261.jpg","245.jpg","261.jpg","75.jpg",1
1,0,0,2,1.6885,0.8703,"10.04.17_11:34:54",25,2,125,2,6,3,4,"208.jpg","54.jpg","338.jpg","325.jpg","276.jpg","347.jpg","325.jpg","nope",1
1,1,1,3,2.5075,1.548,"10.04.17_11:35:03",25,2,126,1,6,6,6,"7.jpg","246.jpg","254.jpg","188.jpg","3.jpg","94.jpg","94.jpg","317.jpg",1
1,1,0,2,3.5387,1.0323,"10.04.17_11:35:12",25,2,127,3,6,1,4,"50.jpg","90.jpg","156.jpg","112.jpg","261.jpg","38.jpg","112.jpg","259.jpg",0
1,1,1,2,1.7803,0.4763,"10.04.17_11:35:18",25,2,128,2,6,5,6,"275.jpg","391.jpg","116.jpg","267.jpg","360.jpg","221.jpg","221.jpg","330.jpg",1
1,1,1,2,1.2805,0.8909,"10.04.17_11:35:25",25,2,129,1,6,3,3,"113.jpg","284.jpg","397.jpg","329.jpg","168.jpg","283.jpg","397.jpg","76.jpg",1
1,0,0,2,1.8609,0.3044,"10.04.17_11:35:32",25,2,130,2,6,3,4,"22.jpg","35.jpg","271.jpg","288.jpg","324.jpg","338.jpg","288.jpg","nope",1
1,0,0,4,1.6183,0.4761,"10.04.17_11:35:38",25,2,131,1,6,4,4,"365.jpg","210.jpg","132.jpg","273.jpg","216.jpg","196.jpg","273.jpg","nope",1
1,1,1,4,2.2042,0.7594,"10.04.17_11:35:46",25,2,132,2,6,2,1,"224.jpg","74.jpg","246.jpg","30.jpg","164.jpg","184.jpg","224.jpg","292.jpg",1
1,0,0,4,1.4966,0.5669,"10.04.17_11:35:52",25,2,133,3,6,1,5,"338.jpg","27.jpg","108.jpg","239.jpg","299.jpg","176.jpg","299.jpg","nope",1
1,1,0,2,2.6794,0.5167,"10.04.17_11:36:00",25,2,134,2,6,1,6,"193.jpg","52.jpg","21.jpg","46.jpg","294.jpg","342.jpg","342.jpg","401.jpg",0
1,0,0,2,1.8604,0.6786,"10.04.17_11:36:07",25,2,135,2,6,6,5,"320.jpg","259.jpg","195.jpg","37.jpg","356.jpg","155.jpg","356.jpg","nope",1
1,1,0,2,1.8807,0.4763,"10.04.17_11:36:14",25,2,136,3,6,4,1,"115.jpg","285.jpg","219.jpg","324.jpg","66.jpg","325.jpg","115.jpg","168.jpg",0
1,1,1,4,1.4661,0.608,"10.04.17_11:36:20",25,2,137,1,6,6,6,"180.jpg","379.jpg","83.jpg","79.jpg","99.jpg","360.jpg","360.jpg","20.jpg",1
1,0,1,2,1.3043,0.8409,"10.04.17_11:36:27",25,2,138,1,6,3,3,"194.jpg","28.jpg","86.jpg","25.jpg","247.jpg","201.jpg","86.jpg","nope",0
1,0,0,4,1.8401,0.7186,"10.04.17_11:36:34",25,2,139,2,6,2,3,"341.jpg","299.jpg","184.jpg","363.jpg","398.jpg","58.jpg","184.jpg","nope",1
1,0,0,2,2.1233,0.5265,"10.04.17_11:36:41",25,2,140,3,6,2,6,"121.jpg","23.jpg","372.jpg","188.jpg","131.jpg","25.jpg","25.jpg","nope",1
1,1,1,2,1.9822,0.3954,"10.04.17_11:36:48",25,2,141,2,6,2,1,"29.jpg","64.jpg","21.jpg","392.jpg","137.jpg","239.jpg","29.jpg","118.jpg",1
1,1,0,2,3.0129,0.7593,"10.04.17_11:36:56",25,2,142,3,6,5,2,"37.jpg","179.jpg","189.jpg","361.jpg","262.jpg","298.jpg","179.jpg","331.jpg",0
1,0,0,3,1.2235,0.668,"10.04.17_11:37:02",25,2,143,2,6,6,5,"131.jpg","27.jpg","189.jpg","167.jpg","38.jpg","210.jpg","38.jpg","nope",1
1,1,0,1,2.3659,1.2255,"10.04.17_11:37:10",25,2,144,3,6,1,3,"146.jpg","263.jpg","264.jpg","16.jpg","241.jpg","283.jpg","264.jpg","387.jpg",0
1,1,1,1,1.9821,1.275,"10.04.17_11:37:18",25,2,145,1,6,5,5,"85.jpg","130.jpg","291.jpg","207.jpg","146.jpg","176.jpg","146.jpg","376.jpg",1
1,1,1,2,2.0323,1.821,"10.04.17_11:37:26",25,2,146,2,6,2,3,"143.jpg","321.jpg","206.jpg","296.jpg","292.jpg","357.jpg","206.jpg","315.jpg",1
1,0,0,3,1.7492,0.5164,"10.04.17_11:37:33",25,2,147,1,6,2,2,"66.jpg","47.jpg","48.jpg","313.jpg","334.jpg","110.jpg","47.jpg","nope",1
1,1,0,2,1.9716,0.4358,"10.04.17_11:37:40",25,2,148,2,6,6,5,"353.jpg","125.jpg","400.jpg","282.jpg","211.jpg","158.jpg","211.jpg","94.jpg",0
1,1,0,1,3.3874,0.5572,"10.04.17_11:37:48",25,2,149,3,6,4,1,"73.jpg","152.jpg","272.jpg","58.jpg","193.jpg","67.jpg","73.jpg","306.jpg",0
1,1,0,2,2.5175,1.8012,"10.04.17_11:37:57",25,2,150,2,6,4,3,"170.jpg","366.jpg","266.jpg","346.jpg","188.jpg","28.jpg","266.jpg","113.jpg",0
1,0,0,2,1.9717,0.8808,"10.04.17_11:38:04",25,2,151,2,6,4,3,"123.jpg","171.jpg","53.jpg","264.jpg","167.jpg","346.jpg","53.jpg","nope",1
1,1,1,2,1.6482,0.7189,"10.04.17_11:38:11",25,2,152,2,6,1,6,"256.jpg","142.jpg","97.jpg","231.jpg","354.jpg","107.jpg","107.jpg","320.jpg",1
1,1,1,2,1.4968,0.8001,"10.04.17_11:38:18",25,2,153,1,6,1,1,"265.jpg","216.jpg","243.jpg","175.jpg","242.jpg","58.jpg","265.jpg","300.jpg",1
1,1,1,3,1.4057,0.6695,"10.04.17_11:38:24",25,2,154,1,6,5,5,"104.jpg","86.jpg","122.jpg","192.jpg","310.jpg","48.jpg","310.jpg","225.jpg",1
1,0,0,3,1.5875,0.5973,"10.04.17_11:38:31",25,2,155,1,6,5,5,"58.jpg","172.jpg","89.jpg","324.jpg","245.jpg","147.jpg","245.jpg","nope",1
1,1,1,3,1.6081,0.5065,"10.04.17_11:38:38",25,2,156,2,6,6,5,"72.jpg","351.jpg","333.jpg","259.jpg","272.jpg","181.jpg","272.jpg","248.jpg",1
1,1,1,3,1.6481,0.5975,"10.04.17_11:38:44",25,2,157,1,6,2,2,"54.jpg","10.jpg","66.jpg","254.jpg","56.jpg","287.jpg","10.jpg","354.jpg",1
1,0,1,2,1.6076,0.5575,"10.04.17_11:38:51",25,2,158,2,6,6,5,"266.jpg","227.jpg","269.jpg","177.jpg","391.jpg","156.jpg","391.jpg","nope",0
1,1,0,1,2.4977,0.7595,"10.04.17_11:38:59",25,2,159,3,6,5,3,"84.jpg","285.jpg","399.jpg","397.jpg","245.jpg","238.jpg","399.jpg","23.jpg",0
1,1,0,1,1.3751,0.5976,"10.04.17_11:39:05",25,2,160,2,6,1,2,"391.jpg","269.jpg","11.jpg","339.jpg","134.jpg","209.jpg","269.jpg","14.jpg",0
1,0,0,3,1.4964,0.476,"10.04.17_11:39:11",25,2,161,1,6,5,5,"218.jpg","248.jpg","242.jpg","184.jpg","87.jpg","162.jpg","87.jpg","nope",1
1,1,0,2,2.5785,0.5166,"10.04.17_11:39:19",25,2,162,2,6,3,2,"372.jpg","237.jpg","349.jpg","186.jpg","85.jpg","148.jpg","237.jpg","34.jpg",0
1,0,0,1,2.0626,0.3954,"10.04.17_11:39:26",25,2,163,2,6,3,4,"9.jpg","2.jpg","56.jpg","365.jpg","5.jpg","157.jpg","365.jpg","nope",1
1,1,0,2,1.9615,0.3954,"10.04.17_11:39:33",25,2,164,2,6,2,3,"7.jpg","248.jpg","344.jpg","298.jpg","345.jpg","130.jpg","344.jpg","356.jpg",0
1,0,0,1,2.649,0.6381,"10.04.17_11:39:40",25,2,165,2,6,5,6,"229.jpg","137.jpg","94.jpg","301.jpg","252.jpg","105.jpg","105.jpg","nope",1
1,0,0,1,1.9517,0.5973,"10.04.17_11:39:47",25,2,166,2,6,2,3,"76.jpg","10.jpg","5.jpg","246.jpg","85.jpg","283.jpg","5.jpg","nope",1
1,0,0,1,5.5206,1.5885,"10.04.17_11:39:59",25,2,167,2,6,1,6,"335.jpg","147.jpg","387.jpg","137.jpg","356.jpg","263.jpg","263.jpg","nope",1
1,0,0,1,2.8513,1.1238,"10.04.17_11:40:07",25,2,168,1,6,3,3,"35.jpg","369.jpg","49.jpg","361.jpg","282.jpg","97.jpg","49.jpg","nope",1
1,0,0,2,5.0454,1.1941,"10.04.17_11:40:18",25,2,169,2,6,1,2,"318.jpg","98.jpg","115.jpg","228.jpg","18.jpg","364.jpg","98.jpg","nope",1
1,1,0,2,1.2639,0.5572,"10.04.17_11:40:24",25,2,170,2,6,5,4,"389.jpg","105.jpg","159.jpg","371.jpg","30.jpg","181.jpg","371.jpg","296.jpg",0
1,0,0,2,1.9717,0.5569,"10.04.17_11:40:31",25,2,171,2,6,4,5,"183.jpg","5.jpg","140.jpg","377.jpg","43.jpg","171.jpg","43.jpg","nope",1
1,0,0,3,1.4668,0.476,"10.04.17_11:40:38",25,2,172,1,6,4,4,"129.jpg","391.jpg","330.jpg","23.jpg","146.jpg","286.jpg","23.jpg","nope",1
1,1,0,2,3.0937,1.0323,"10.04.17_11:40:46",25,2,173,2,6,1,6,"106.jpg","366.jpg","239.jpg","345.jpg","76.jpg","387.jpg","387.jpg","275.jpg",0
1,0,0,1,3.5587,1.75,"10.04.17_11:40:56",25,2,174,2,6,2,1,"287.jpg","161.jpg","356.jpg","375.jpg","177.jpg","81.jpg","287.jpg","nope",1
1,1,0,2,2.9323,0.6381,"10.04.17_11:41:04",25,2,175,1,6,3,3,"76.jpg","311.jpg","298.jpg","146.jpg","215.jpg","361.jpg","298.jpg","1.jpg",0
1,0,0,3,1.3348,1.477,"10.04.17_11:41:11",25,2,176,1,6,1,1,"51.jpg","393.jpg","267.jpg","7.jpg","350.jpg","99.jpg","51.jpg","nope",1
1,0,0,2,2.609,0.719,"10.04.17_11:41:19",25,2,177,2,6,5,6,"112.jpg","51.jpg","13.jpg","289.jpg","397.jpg","315.jpg","315.jpg","nope",1
1,1,1,4,1.7088,1.2352,"10.04.17_11:41:27",25,2,178,1,6,1,1,"50.jpg","351.jpg","401.jpg","124.jpg","103.jpg","155.jpg","50.jpg","381.jpg",1
1,1,1,3,1.1326,0.9211,"10.04.17_11:41:33",25,2,179,1,6,2,2,"246.jpg","207.jpg","326.jpg","150.jpg","233.jpg","212.jpg","207.jpg","313.jpg",1
1,0,1,2,2.4974,0.7595,"10.04.17_11:41:41",25,2,180,2,6,6,1,"173.jpg","111.jpg","324.jpg","302.jpg","301.jpg","90.jpg","173.jpg","nope",0
1,1,1,3,1.4463,0.3955,"10.04.17_11:42:48",25,3,181,1,6,6,6,"296.jpg","362.jpg","162.jpg","394.jpg","153.jpg","233.jpg","233.jpg","377.jpg",1
1,0,0,3,1.6582,0.5167,"10.04.17_11:42:54",25,3,182,2,6,5,4,"29.jpg","100.jpg","350.jpg","168.jpg","58.jpg","78.jpg","168.jpg","nope",1
1,0,0,3,1.4461,1.0728,"10.04.17_11:43:01",25,3,183,1,6,4,4,"240.jpg","253.jpg","109.jpg","306.jpg","305.jpg","106.jpg","306.jpg","nope",1
1,0,1,2,0.7892,0.6384,"10.04.17_11:43:07",25,3,184,1,6,3,3,"153.jpg","314.jpg","216.jpg","163.jpg","235.jpg","140.jpg","216.jpg","nope",0
1,1,1,3,1.0617,0.4359,"10.04.17_11:43:13",25,3,185,1,6,3,3,"163.jpg","225.jpg","373.jpg","65.jpg","299.jpg","155.jpg","373.jpg","145.jpg",1
1,0,0,2,1.5371,0.5574,"10.04.17_11:43:19",25,3,186,3,6,5,1,"381.jpg","385.jpg","265.jpg","256.jpg","216.jpg","294.jpg","381.jpg","nope",1
1,1,1,1,3.5291,1.3561,"10.04.17_11:43:29",25,3,187,3,6,6,3,"395.jpg","310.jpg","88.jpg","9.jpg","2.jpg","103.jpg","88.jpg","106.jpg",1
1,1,0,2,1.5773,0.7592,"10.04.17_11:43:36",25,3,188,2,6,4,5,"395.jpg","243.jpg","249.jpg","259.jpg","314.jpg","175.jpg","314.jpg","26.jpg",0
1,1,0,2,2.3962,0.638,"10.04.17_11:43:43",25,3,189,3,6,4,2,"135.jpg","284.jpg","243.jpg","383.jpg","202.jpg","160.jpg","284.jpg","219.jpg",0
1,0,0,2,1.9716,0.7187,"10.04.17_11:43:50",25,3,190,1,6,2,2,"237.jpg","322.jpg","374.jpg","256.jpg","85.jpg","339.jpg","322.jpg","nope",1
1,1,1,2,1.4864,0.3958,"10.04.17_11:43:57",25,3,191,1,6,2,2,"147.jpg","93.jpg","236.jpg","174.jpg","206.jpg","375.jpg","93.jpg","220.jpg",1
1,1,1,3,2.5781,1.5884,"10.04.17_11:44:05",25,3,192,1,6,5,5,"319.jpg","131.jpg","385.jpg","384.jpg","192.jpg","219.jpg","192.jpg","261.jpg",1
1,1,1,2,1.0213,0.6377,"10.04.17_11:44:11",25,3,193,1,6,1,1,"354.jpg","400.jpg","17.jpg","96.jpg","32.jpg","151.jpg","354.jpg","255.jpg",1
1,0,0,2,0.779,2.4679,"10.04.17_11:44:19",25,3,194,1,6,3,3,"288.jpg","136.jpg","113.jpg","345.jpg","148.jpg","284.jpg","113.jpg","nope",1
1,0,0,2,2.1335,0.4764,"10.04.17_11:44:26",25,3,195,2,6,2,1,"280.jpg","297.jpg","255.jpg","260.jpg","32.jpg","138.jpg","280.jpg","nope",1
1,0,0,2,1.4965,0.5977,"10.04.17_11:44:33",25,3,196,2,6,1,2,"265.jpg","83.jpg","153.jpg","93.jpg","384.jpg","42.jpg","83.jpg","nope",1
1,0,0,2,1.264,0.3952,"10.04.17_11:44:39",25,3,197,2,6,3,4,"301.jpg","230.jpg","8.jpg","328.jpg","296.jpg","392.jpg","328.jpg","nope",1
1,0,0,3,1.0213,0.5168,"10.04.17_11:44:45",25,3,198,1,6,4,4,"285.jpg","17.jpg","84.jpg","6.jpg","254.jpg","384.jpg","6.jpg","nope",1
1,1,1,4,1.456,1.083,"10.04.17_11:44:52",25,3,199,1,6,4,4,"353.jpg","78.jpg","157.jpg","135.jpg","243.jpg","32.jpg","135.jpg","52.jpg",1
1,1,0,2,2.1137,0.4056,"10.04.17_11:44:59",25,3,200,2,6,3,4,"161.jpg","38.jpg","330.jpg","382.jpg","221.jpg","277.jpg","382.jpg","120.jpg",0
1,0,0,2,2.1739,0.6378,"10.04.17_11:45:06",25,3,201,2,6,5,4,"10.jpg","394.jpg","384.jpg","35.jpg","243.jpg","39.jpg","35.jpg","nope",1
1,0,0,2,1.4156,0.4764,"10.04.17_11:45:12",25,3,202,2,6,4,5,"172.jpg","138.jpg","72.jpg","204.jpg","318.jpg","106.jpg","318.jpg","nope",1
1,1,0,2,1.4257,0.476,"10.04.17_11:45:19",25,3,203,1,6,3,3,"276.jpg","215.jpg","353.jpg","248.jpg","270.jpg","344.jpg","353.jpg","319.jpg",0
1,0,0,2,1.9009,0.4356,"10.04.17_11:45:25",25,3,204,1,6,6,6,"126.jpg","218.jpg","385.jpg","76.jpg","205.jpg","230.jpg","230.jpg","nope",1
1,0,0,3,1.2337,0.6785,"10.04.17_11:45:32",25,3,205,2,6,6,1,"209.jpg","365.jpg","377.jpg","119.jpg","292.jpg","291.jpg","209.jpg","nope",1
1,1,1,3,1.7801,1.1945,"10.04.17_11:45:39",25,3,206,2,6,1,6,"88.jpg","72.jpg","375.jpg","148.jpg","232.jpg","18.jpg","18.jpg","196.jpg",1
1,0,1,2,2.0222,3.1864,"10.04.17_11:45:49",25,3,207,1,6,4,4,"154.jpg","278.jpg","172.jpg","136.jpg","360.jpg","277.jpg","136.jpg","nope",0
1,1,0,1,1.9112,1.1539,"10.04.17_11:45:56",25,3,208,3,6,5,3,"200.jpg","345.jpg","149.jpg","57.jpg","274.jpg","248.jpg","149.jpg","169.jpg",0
1,1,0,2,1.729,0.7897,"10.04.17_11:46:03",25,3,209,2,6,6,5,"390.jpg","43.jpg","107.jpg","88.jpg","203.jpg","262.jpg","203.jpg","212.jpg",0
1,1,0,2,1.3448,0.4356,"10.04.17_11:46:09",25,3,210,2,6,2,3,"79.jpg","143.jpg","96.jpg","152.jpg","142.jpg","355.jpg","96.jpg","327.jpg",0
1,1,0,2,2.3052,2.1045,"10.04.17_11:46:18",25,3,211,2,6,5,4,"11.jpg","181.jpg","119.jpg","156.jpg","135.jpg","334.jpg","156.jpg","267.jpg",0
1,0,0,2,1.4662,1.2348,"10.04.17_11:46:25",25,3,212,2,6,4,5,"39.jpg","321.jpg","370.jpg","177.jpg","141.jpg","202.jpg","141.jpg","nope",1
1,1,1,3,1.1427,0.5577,"10.04.17_11:46:32",25,3,213,1,6,1,1,"16.jpg","99.jpg","362.jpg","220.jpg","265.jpg","34.jpg","16.jpg","176.jpg",1
1,0,0,3,1.1531,0.4762,"10.04.17_11:46:38",25,3,214,1,6,3,3,"217.jpg","5.jpg","175.jpg","237.jpg","222.jpg","342.jpg","175.jpg","nope",1
1,1,1,4,1.3448,0.5168,"10.04.17_11:46:44",25,3,215,1,6,5,5,"239.jpg","137.jpg","334.jpg","136.jpg","286.jpg","319.jpg","286.jpg","2.jpg",1
1,0,0,2,2.6592,0.7189,"10.04.17_11:46:52",25,3,216,1,6,2,2,"325.jpg","296.jpg","291.jpg","378.jpg","343.jpg","218.jpg","296.jpg","nope",1
1,1,0,2,1.4161,0.4356,"10.04.17_11:46:58",25,3,217,2,6,2,3,"11.jpg","135.jpg","282.jpg","126.jpg","326.jpg","233.jpg","282.jpg","124.jpg",0
1,0,0,3,1.3048,1.3457,"10.04.17_11:47:05",25,3,218,2,6,4,5,"188.jpg","323.jpg","170.jpg","321.jpg","11.jpg","336.jpg","11.jpg","nope",1
1,1,1,3,1.3752,1.5076,"10.04.17_11:47:13",25,3,219,1,6,6,6,"378.jpg","30.jpg","203.jpg","144.jpg","221.jpg","253.jpg","253.jpg","58.jpg",1
1,0,0,2,1.6281,0.4763,"10.04.17_11:47:19",25,3,220,2,6,1,6,"268.jpg","183.jpg","191.jpg","121.jpg","347.jpg","240.jpg","240.jpg","nope",1
1,1,0,1,2.6999,0.4364,"10.04.17_11:47:27",25,3,221,3,6,2,4,"187.jpg","210.jpg","22.jpg","106.jpg","146.jpg","52.jpg","106.jpg","363.jpg",0
1,1,1,2,1.5066,1.5074,"10.04.17_11:47:34",25,3,222,2,6,2,1,"178.jpg","253.jpg","217.jpg","49.jpg","274.jpg","12.jpg","178.jpg","230.jpg",1
1,1,1,3,0.8191,0.7595,"10.04.17_11:47:40",25,3,223,1,6,6,6,"323.jpg","302.jpg","87.jpg","152.jpg","223.jpg","164.jpg","164.jpg","19.jpg",1
1,1,1,3,0.8596,0.5976,"10.04.17_11:47:46",25,3,224,1,6,1,1,"366.jpg","396.jpg","280.jpg","29.jpg","240.jpg","356.jpg","366.jpg","298.jpg",1
1,1,0,2,2.6996,0.6788,"10.04.17_11:47:54",25,3,225,3,6,6,3,"234.jpg","152.jpg","226.jpg","98.jpg","116.jpg","183.jpg","226.jpg","355.jpg",0
1,1,1,1,2.8108,0.9211,"10.04.17_11:48:02",25,3,226,1,6,3,3,"75.jpg","284.jpg","14.jpg","280.jpg","396.jpg","37.jpg","14.jpg","70.jpg",1
1,1,1,4,1.2946,1.002,"10.04.17_11:48:09",25,3,227,1,6,3,3,"86.jpg","221.jpg","256.jpg","31.jpg","289.jpg","220.jpg","256.jpg","61.jpg",1
1,0,0,2,1.0617,0.5572,"10.04.17_11:48:15",25,3,228,1,6,6,6,"147.jpg","311.jpg","114.jpg","346.jpg","359.jpg","30.jpg","30.jpg","nope",1
1,1,1,3,1.6178,0.7192,"10.04.17_11:48:22",25,3,229,1,6,5,5,"375.jpg","149.jpg","392.jpg","272.jpg","378.jpg","134.jpg","378.jpg","280.jpg",1
1,0,0,2,1.4565,0.5976,"10.04.17_11:48:28",25,3,230,3,6,1,4,"42.jpg","306.jpg","342.jpg","236.jpg","144.jpg","103.jpg","236.jpg","nope",1
1,1,1,2,0.9506,0.3957,"10.04.17_11:48:34",25,3,231,1,6,5,5,"397.jpg","155.jpg","236.jpg","319.jpg","234.jpg","224.jpg","234.jpg","287.jpg",1
1,0,0,3,1.0618,0.7998,"10.04.17_11:48:40",25,3,232,1,6,3,3,"375.jpg","319.jpg","208.jpg","111.jpg","190.jpg","304.jpg","208.jpg","nope",1
1,0,0,2,2.2147,0.8402,"10.04.17_11:48:48",25,3,233,2,6,2,1,"251.jpg","177.jpg","242.jpg","121.jpg","15.jpg","206.jpg","251.jpg","nope",1
1,0,0,3,1.0617,0.719,"10.04.17_11:48:54",25,3,234,1,6,2,2,"288.jpg","174.jpg","321.jpg","398.jpg","145.jpg","281.jpg","174.jpg","nope",1
1,0,0,3,2.0223,0.4056,"10.04.17_11:49:01",25,3,235,1,6,2,2,"190.jpg","335.jpg","138.jpg","344.jpg","5.jpg","73.jpg","335.jpg","nope",1
1,1,0,2,2.5281,0.436,"10.04.17_11:49:08",25,3,236,2,6,1,2,"248.jpg","243.jpg","389.jpg","19.jpg","286.jpg","182.jpg","243.jpg","7.jpg",0
1,0,0,4,0.9606,0.6783,"10.04.17_11:49:14",25,3,237,1,6,5,5,"324.jpg","309.jpg","334.jpg","377.jpg","311.jpg","52.jpg","311.jpg","nope",1
1,0,0,3,1.2943,1.0827,"10.04.17_11:49:21",25,3,238,2,6,4,5,"54.jpg","105.jpg","289.jpg","377.jpg","200.jpg","362.jpg","200.jpg","nope",1
1,1,0,2,1.9519,0.6386,"10.04.17_11:49:28",25,3,239,2,6,5,6,"373.jpg","195.jpg","189.jpg","138.jpg","90.jpg","111.jpg","111.jpg","74.jpg",0
1,1,1,2,1.3752,0.4052,"10.04.17_11:49:34",25,3,240,2,6,5,6,"301.jpg","80.jpg","83.jpg","258.jpg","359.jpg","58.jpg","58.jpg","39.jpg",1
1,0,0,2,1.8605,0.396,"10.04.17_11:49:41",25,3,241,2,6,2,3,"267.jpg","161.jpg","169.jpg","41.jpg","300.jpg","180.jpg","169.jpg","nope",1
1,0,0,1,3.0741,1.6283,"10.04.17_11:49:50",25,3,242,2,6,6,1,"102.jpg","355.jpg","72.jpg","3.jpg","310.jpg","215.jpg","102.jpg","nope",1
1,0,0,4,1.1897,0.8949,"10.04.17_11:49:57",25,3,243,1,6,6,6,"95.jpg","87.jpg","238.jpg","394.jpg","370.jpg","317.jpg","317.jpg","nope",1
1,1,0,2,1.8908,0.4053,"10.04.17_11:50:04",25,3,244,3,6,4,6,"299.jpg","130.jpg","54.jpg","114.jpg","370.jpg","268.jpg","268.jpg","393.jpg",0
1,1,1,3,1.1831,0.8705,"10.04.17_11:50:10",25,3,245,1,6,6,6,"4.jpg","325.jpg","316.jpg","79.jpg","112.jpg","68.jpg","68.jpg","197.jpg",1
1,1,0,2,2.0227,0.7591,"10.04.17_11:50:17",25,3,246,2,6,5,4,"28.jpg","211.jpg","273.jpg","117.jpg","254.jpg","395.jpg","117.jpg","398.jpg",0
1,0,0,3,1.3651,0.6378,"10.04.17_11:50:24",25,3,247,2,6,2,3,"25.jpg","20.jpg","40.jpg","343.jpg","178.jpg","15.jpg","40.jpg","nope",1
1,1,0,3,1.3485,0.7302,"10.04.17_11:50:30",25,3,248,2,6,6,1,"254.jpg","156.jpg","348.jpg","79.jpg","244.jpg","127.jpg","254.jpg","153.jpg",0
1,1,1,4,1.5776,0.4767,"10.04.17_11:50:37",25,3,249,1,6,1,1,"99.jpg","174.jpg","318.jpg","359.jpg","348.jpg","314.jpg","99.jpg","136.jpg",1
1,0,0,4,1.1528,0.7999,"10.04.17_11:50:43",25,3,250,1,6,2,2,"210.jpg","185.jpg","6.jpg","35.jpg","34.jpg","248.jpg","185.jpg","nope",1
1,1,1,2,1.5573,1.0424,"10.04.17_11:50:50",25,3,251,1,6,4,4,"371.jpg","206.jpg","81.jpg","341.jpg","142.jpg","82.jpg","341.jpg","56.jpg",1
1,1,0,2,1.6687,0.4767,"10.04.17_11:50:57",25,3,252,2,6,3,2,"107.jpg","393.jpg","18.jpg","91.jpg","46.jpg","305.jpg","393.jpg","216.jpg",0
1,0,0,4,1.1224,0.7292,"10.04.17_11:51:03",25,3,253,1,6,3,3,"115.jpg","234.jpg","351.jpg","314.jpg","317.jpg","180.jpg","351.jpg","nope",1
1,0,1,2,1.2336,0.7187,"10.04.17_11:51:09",25,3,254,1,6,4,4,"255.jpg","72.jpg","352.jpg","191.jpg","267.jpg","345.jpg","191.jpg","nope",0
1,0,0,3,1.8705,0.719,"10.04.17_11:51:16",25,3,255,1,6,1,1,"205.jpg","225.jpg","130.jpg","243.jpg","362.jpg","321.jpg","205.jpg","nope",1
1,1,1,4,1.3953,0.5977,"10.04.17_11:51:23",25,3,256,1,6,1,1,"333.jpg","149.jpg","358.jpg","283.jpg","193.jpg","228.jpg","333.jpg","183.jpg",1
1,1,1,3,0.9101,0.8001,"10.04.17_11:51:29",25,3,257,1,6,1,1,"319.jpg","271.jpg","286.jpg","324.jpg","22.jpg","237.jpg","319.jpg","50.jpg",1
1,1,1,1,3.2056,0.6789,"10.04.17_11:51:37",25,3,258,3,6,4,6,"65.jpg","307.jpg","64.jpg","80.jpg","171.jpg","277.jpg","277.jpg","375.jpg",1
1,0,0,1,1.8706,0.4462,"10.04.17_11:51:44",25,3,259,3,6,2,5,"381.jpg","200.jpg","177.jpg","42.jpg","101.jpg","398.jpg","101.jpg","nope",1
1,0,0,3,1.6684,1.3053,"10.04.17_11:51:52",25,3,260,2,6,6,5,"13.jpg","290.jpg","222.jpg","264.jpg","181.jpg","8.jpg","181.jpg","nope",1
1,0,0,2,2.4573,1.3961,"10.04.17_11:52:00",25,3,261,2,6,2,3,"392.jpg","60.jpg","262.jpg","87.jpg","385.jpg","211.jpg","262.jpg","nope",1
1,0,0,2,1.6285,0.6385,"10.04.17_11:52:07",25,3,262,2,6,2,1,"270.jpg","77.jpg","252.jpg","218.jpg","349.jpg","359.jpg","270.jpg","nope",1
1,1,0,2,1.5876,0.5673,"10.04.17_11:52:13",25,3,263,2,6,5,4,"123.jpg","15.jpg","333.jpg","246.jpg","36.jpg","362.jpg","246.jpg","400.jpg",0
1,0,0,2,1.2943,0.5266,"10.04.17_11:52:19",25,3,264,1,6,2,2,"127.jpg","295.jpg","148.jpg","166.jpg","361.jpg","75.jpg","295.jpg","nope",1
1,1,0,1,2.3155,1.5181,"10.04.17_11:52:28",25,3,265,3,6,2,4,"263.jpg","378.jpg","233.jpg","97.jpg","100.jpg","322.jpg","97.jpg","108.jpg",0
1,0,1,2,1.2741,1.0427,"10.04.17_11:52:34",25,3,266,1,6,3,3,"89.jpg","125.jpg","12.jpg","148.jpg","106.jpg","50.jpg","12.jpg","nope",0
1,0,0,2,1.0213,1.0426,"10.04.17_11:52:41",25,3,267,1,6,1,1,"363.jpg","241.jpg","321.jpg","375.jpg","253.jpg","55.jpg","363.jpg","nope",1
1,1,0,1,1.3553,0.4865,"10.04.17_11:52:47",25,3,268,2,6,3,2,"87.jpg","362.jpg","296.jpg","101.jpg","397.jpg","329.jpg","362.jpg","341.jpg",0
1,1,1,2,1.0112,1.084,"10.04.17_11:52:54",25,3,269,1,6,6,6,"22.jpg","372.jpg","274.jpg","257.jpg","231.jpg","395.jpg","395.jpg","10.jpg",1
1,1,1,1,2.1436,0.5171,"10.04.17_11:53:01",25,3,270,2,6,1,2,"345.jpg","124.jpg","289.jpg","227.jpg","193.jpg","364.jpg","124.jpg","32.jpg",1
1,1,1,3,1.8098,0.3547,"10.04.17_12:03:41",25,4,271,1,6,1,1,"26.jpg","141.jpg","349.jpg","172.jpg","148.jpg","386.jpg","26.jpg","357.jpg",1
1,0,0,3,1.2741,0.5878,"10.04.17_12:03:47",25,4,272,3,6,2,5,"21.jpg","59.jpg","27.jpg","310.jpg","334.jpg","393.jpg","334.jpg","nope",1
1,0,0,2,2.1233,0.4052,"10.04.17_12:03:54",25,4,273,2,6,6,5,"389.jpg","14.jpg","285.jpg","48.jpg","386.jpg","267.jpg","386.jpg","nope",1
1,1,1,4,1.0213,0.4358,"10.04.17_12:04:00",25,4,274,1,6,6,6,"39.jpg","274.jpg","226.jpg","210.jpg","17.jpg","70.jpg","70.jpg","323.jpg",1
1,0,0,2,2.0323,0.436,"10.04.17_12:04:07",25,4,275,2,6,6,5,"290.jpg","120.jpg","395.jpg","317.jpg","129.jpg","278.jpg","129.jpg","nope",1
1,0,0,1,2.3154,0.4047,"10.04.17_12:04:14",25,4,276,2,6,2,3,"141.jpg","231.jpg","155.jpg","397.jpg","203.jpg","46.jpg","155.jpg","nope",1
1,0,0,3,1.0416,0.5977,"10.04.17_12:04:20",25,4,277,1,6,2,2,"116.jpg","90.jpg","197.jpg","245.jpg","398.jpg","106.jpg","90.jpg","nope",1
1,0,0,2,1.7593,0.4359,"10.04.17_12:04:26",25,4,278,2,6,3,2,"151.jpg","307.jpg","316.jpg","332.jpg","371.jpg","250.jpg","307.jpg","nope",1
1,1,0,1,2.6288,1.0829,"10.04.17_12:04:35",25,4,279,2,6,1,6,"194.jpg","217.jpg","74.jpg","338.jpg","325.jpg","339.jpg","339.jpg","295.jpg",0
1,0,0,2,1.3549,0.5165,"10.04.17_12:04:41",25,4,280,2,6,5,4,"243.jpg","233.jpg","170.jpg","71.jpg","159.jpg","113.jpg","71.jpg","nope",1
1,1,0,1,1.4665,0.8807,"10.04.17_12:04:48",25,4,281,1,6,6,6,"370.jpg","396.jpg","385.jpg","280.jpg","64.jpg","283.jpg","283.jpg","57.jpg",0
1,1,1,2,1.4762,0.3146,"10.04.17_12:04:54",25,4,282,1,6,4,4,"46.jpg","255.jpg","190.jpg","196.jpg","175.jpg","87.jpg","196.jpg","284.jpg",1
1,0,0,1,3.1443,2.5588,"10.04.17_12:05:04",25,4,283,1,6,6,6,"280.jpg","228.jpg","167.jpg","155.jpg","60.jpg","162.jpg","162.jpg","nope",1
1,0,0,2,1.5572,0.6178,"10.04.17_12:05:11",25,4,284,2,6,6,1,"180.jpg","91.jpg","386.jpg","383.jpg","364.jpg","189.jpg","180.jpg","nope",1
1,1,1,2,2.8317,0.4056,"10.04.17_12:05:18",25,4,285,1,6,3,3,"341.jpg","374.jpg","359.jpg","382.jpg","131.jpg","76.jpg","359.jpg","67.jpg",1
1,0,0,2,1.1931,0.3649,"10.04.17_12:05:24",25,4,286,3,6,3,1,"48.jpg","68.jpg","82.jpg","361.jpg","288.jpg","146.jpg","48.jpg","nope",1
1,0,0,4,1.1123,0.6075,"10.04.17_12:05:30",25,4,287,2,6,6,5,"128.jpg","109.jpg","100.jpg","230.jpg","148.jpg","25.jpg","148.jpg","nope",1
1,0,0,2,1.0315,0.4053,"10.04.17_12:05:36",25,4,288,1,6,6,6,"32.jpg","234.jpg","390.jpg","319.jpg","52.jpg","380.jpg","380.jpg","nope",1
1,1,1,3,0.9505,1.5986,"10.04.17_12:05:43",25,4,289,1,6,3,3,"356.jpg","348.jpg","257.jpg","394.jpg","16.jpg","313.jpg","257.jpg","31.jpg",1
1,1,0,2,1.2032,0.3648,"10.04.17_12:05:49",25,4,290,2,6,4,3,"204.jpg","145.jpg","370.jpg","287.jpg","267.jpg","184.jpg","370.jpg","392.jpg",0
1,0,0,3,1.1123,0.3648,"10.04.17_12:05:55",25,4,291,2,6,3,4,"346.jpg","59.jpg","99.jpg","320.jpg","334.jpg","18.jpg","320.jpg","nope",1
1,0,0,4,1.355,0.7189,"10.04.17_12:06:02",25,4,292,1,6,5,5,"359.jpg","30.jpg","360.jpg","63.jpg","187.jpg","258.jpg","187.jpg","nope",1
1,1,0,2,1.2339,0.446,"10.04.17_12:06:08",25,4,293,1,6,4,4,"377.jpg","329.jpg","100.jpg","127.jpg","208.jpg","202.jpg","127.jpg","238.jpg",0
1,0,0,4,1.4257,1.0018,"10.04.17_12:06:15",25,4,294,1,6,1,1,"46.jpg","344.jpg","291.jpg","197.jpg","153.jpg","52.jpg","46.jpg","nope",1
1,1,1,4,1.0012,0.3955,"10.04.17_12:06:20",25,4,295,1,6,4,4,"392.jpg","338.jpg","293.jpg","259.jpg","251.jpg","34.jpg","259.jpg","399.jpg",1
1,1,0,1,2.8312,0.5572,"10.04.17_12:06:28",25,4,296,2,6,3,2,"171.jpg","126.jpg","177.jpg","223.jpg","86.jpg","158.jpg","126.jpg","340.jpg",0
1,1,0,2,2.7605,0.3547,"10.04.17_12:06:36",25,4,297,2,6,1,6,"187.jpg","93.jpg","230.jpg","178.jpg","143.jpg","396.jpg","396.jpg","347.jpg",0
1,0,0,1,1.3549,0.3651,"10.04.17_12:06:42",25,4,298,2,6,5,4,"169.jpg","347.jpg","264.jpg","338.jpg","57.jpg","188.jpg","338.jpg","nope",1
1,1,1,3,1.0728,0.4459,"10.04.17_12:06:48",25,4,299,1,6,6,6,"205.jpg","126.jpg","14.jpg","351.jpg","167.jpg","285.jpg","285.jpg","309.jpg",1
1,0,1,2,1.7492,0.6889,"10.04.17_12:06:55",25,4,300,2,6,5,6,"34.jpg","138.jpg","327.jpg","260.jpg","220.jpg","197.jpg","197.jpg","nope",0
1,1,0,1,2.3053,0.8407,"10.04.17_12:07:02",25,4,301,2,6,2,3,"275.jpg","154.jpg","56.jpg","155.jpg","248.jpg","334.jpg","56.jpg","98.jpg",0
1,1,1,2,1.2741,0.4767,"10.04.17_12:07:08",25,4,302,1,6,6,6,"338.jpg","391.jpg","33.jpg","398.jpg","277.jpg","345.jpg","345.jpg","129.jpg",1
1,0,1,1,1.082,1.7099,"10.04.17_12:07:16",25,4,303,1,6,3,3,"281.jpg","146.jpg","323.jpg","160.jpg","17.jpg","6.jpg","323.jpg","nope",0
1,1,1,2,1.2033,0.396,"10.04.17_12:07:22",25,4,304,1,6,5,5,"68.jpg","333.jpg","358.jpg","214.jpg","242.jpg","342.jpg","242.jpg","16.jpg",1
1,0,0,2,3.2588,0.4886,"10.04.17_12:07:30",25,4,305,1,6,5,5,"148.jpg","385.jpg","343.jpg","199.jpg","63.jpg","190.jpg","63.jpg","nope",1
1,0,0,3,1.7189,0.6819,"10.04.17_12:07:37",25,4,306,1,6,1,1,"343.jpg","349.jpg","19.jpg","335.jpg","360.jpg","376.jpg","343.jpg","nope",1
1,1,0,1,1.8707,0.4374,"10.04.17_12:07:43",25,4,307,3,6,3,1,"274.jpg","202.jpg","263.jpg","256.jpg","223.jpg","156.jpg","274.jpg","146.jpg",0
1,1,1,3,1.1124,0.641,"10.04.17_12:07:50",25,4,308,1,6,3,3,"151.jpg","234.jpg","231.jpg","386.jpg","19.jpg","124.jpg","231.jpg","188.jpg",1
1,1,0,3,1.5066,0.3971,"10.04.17_12:07:56",25,4,309,1,6,4,4,"362.jpg","305.jpg","109.jpg","375.jpg","321.jpg","347.jpg","375.jpg","236.jpg",0
1,0,0,2,1.6784,1.2295,"10.04.17_12:08:03",25,4,310,2,6,4,5,"216.jpg","325.jpg","357.jpg","400.jpg","336.jpg","231.jpg","336.jpg","nope",1
1,0,0,3,1.082,0.3561,"10.04.17_12:08:09",25,4,311,1,6,5,5,"159.jpg","165.jpg","397.jpg","50.jpg","143.jpg","61.jpg","143.jpg","nope",1
1,0,0,2,1.4763,0.3566,"10.04.17_12:08:15",25,4,312,2,6,1,6,"8.jpg","314.jpg","159.jpg","303.jpg","282.jpg","281.jpg","281.jpg","nope",1
1,1,1,3,1.1596,0.5268,"10.04.17_12:08:22",25,4,313,2,6,6,5,"366.jpg","248.jpg","250.jpg","215.jpg","394.jpg","388.jpg","394.jpg","352.jpg",1
1,0,0,3,1.7901,0.8401,"10.04.17_12:08:29",25,4,314,1,6,6,6,"134.jpg","343.jpg","254.jpg","174.jpg","196.jpg","52.jpg","52.jpg","nope",1
1,0,0,2,2.74,0.6381,"10.04.17_12:08:36",25,4,315,3,6,3,6,"335.jpg","94.jpg","159.jpg","182.jpg","92.jpg","384.jpg","384.jpg","nope",1
1,1,1,2,0.9,1.629,"10.04.17_12:08:43",25,4,316,1,6,2,2,"289.jpg","19.jpg","267.jpg","88.jpg","234.jpg","305.jpg","19.jpg","310.jpg",1
1,0,0,2,2.3861,0.6483,"10.04.17_12:08:51",25,4,317,2,6,3,2,"159.jpg","145.jpg","371.jpg","116.jpg","55.jpg","346.jpg","145.jpg","nope",1
1,0,0,2,0.9915,0.7998,"10.04.17_12:08:57",25,4,318,1,6,3,3,"116.jpg","141.jpg","238.jpg","212.jpg","336.jpg","200.jpg","238.jpg","nope",1
1,0,0,3,1.1527,0.5168,"10.04.17_12:09:03",25,4,319,2,6,6,1,"223.jpg","344.jpg","67.jpg","338.jpg","102.jpg","58.jpg","223.jpg","nope",1
1,1,0,2,1.3247,0.8706,"10.04.17_12:09:10",25,4,320,2,6,2,1,"293.jpg","299.jpg","324.jpg","160.jpg","118.jpg","181.jpg","293.jpg","64.jpg",0
1,0,0,2,4.0952,1.5982,"10.04.17_12:09:20",25,4,321,2,6,2,1,"77.jpg","230.jpg","195.jpg","200.jpg","168.jpg","227.jpg","77.jpg","nope",1
1,1,0,1,2.6593,0.3954,"10.04.17_12:09:27",25,4,322,2,6,1,2,"368.jpg","8.jpg","296.jpg","126.jpg","239.jpg","197.jpg","8.jpg","217.jpg",0
1,0,0,3,1.1431,0.4462,"10.04.17_12:09:33",25,4,323,2,6,2,3,"29.jpg","164.jpg","4.jpg","366.jpg","20.jpg","186.jpg","4.jpg","nope",1
1,1,1,3,0.991,0.7594,"10.04.17_12:09:40",25,4,324,2,6,1,2,"394.jpg","330.jpg","343.jpg","125.jpg","54.jpg","162.jpg","330.jpg","203.jpg",1
1,1,1,4,1.1225,0.4356,"10.04.17_12:09:46",25,4,325,1,6,3,3,"148.jpg","359.jpg","219.jpg","5.jpg","97.jpg","52.jpg","219.jpg","89.jpg",1
1,0,1,1,0.9506,3.3091,"10.04.17_12:09:54",25,4,326,1,6,5,5,"49.jpg","193.jpg","87.jpg","392.jpg","252.jpg","39.jpg","252.jpg","nope",0
1,1,0,1,1.5066,0.4358,"10.04.17_12:10:01",25,4,327,2,6,3,2,"279.jpg","17.jpg","148.jpg","133.jpg","72.jpg","16.jpg","17.jpg","157.jpg",0
1,1,1,2,1.9517,0.5171,"10.04.17_12:10:08",25,4,328,2,6,2,1,"137.jpg","376.jpg","98.jpg","300.jpg","292.jpg","395.jpg","137.jpg","251.jpg",1
1,0,0,2,1.5167,0.9212,"10.04.17_12:10:14",25,4,329,1,6,1,1,"379.jpg","163.jpg","18.jpg","13.jpg","259.jpg","90.jpg","379.jpg","nope",1
1,1,1,2,2.4771,0.3149,"10.04.17_12:10:22",25,4,330,2,6,6,5,"172.jpg","162.jpg","300.jpg","272.jpg","327.jpg","393.jpg","327.jpg","379.jpg",1
1,1,1,1,2.1139,0.5575,"10.04.17_12:10:29",25,4,331,2,6,1,6,"96.jpg","92.jpg","212.jpg","51.jpg","382.jpg","228.jpg","228.jpg","97.jpg",1
1,0,0,4,1.0314,0.6786,"10.04.17_12:10:35",25,4,332,1,6,5,5,"13.jpg","392.jpg","32.jpg","372.jpg","398.jpg","266.jpg","398.jpg","nope",1
1,1,0,2,1.2437,0.4357,"10.04.17_12:10:41",25,4,333,1,6,1,1,"166.jpg","363.jpg","199.jpg","34.jpg","249.jpg","88.jpg","166.jpg","229.jpg",0
1,0,0,3,1.598,1.1636,"10.04.17_12:10:48",25,4,334,1,6,2,2,"399.jpg","31.jpg","115.jpg","213.jpg","37.jpg","90.jpg","31.jpg","nope",1
1,0,1,2,2.0324,0.5976,"10.04.17_12:10:55",25,4,335,3,6,4,6,"317.jpg","149.jpg","86.jpg","102.jpg","108.jpg","331.jpg","331.jpg","nope",0
1,0,0,3,0.9809,0.6075,"10.04.17_12:11:01",25,4,336,1,6,6,6,"370.jpg","12.jpg","27.jpg","301.jpg","288.jpg","28.jpg","28.jpg","nope",1
1,0,0,3,0.8799,0.4769,"10.04.17_12:11:07",25,4,337,1,6,2,2,"272.jpg","258.jpg","308.jpg","99.jpg","84.jpg","386.jpg","258.jpg","nope",1
1,1,0,2,1.9919,0.6479,"10.04.17_12:11:14",25,4,338,2,6,3,4,"283.jpg","150.jpg","285.jpg","95.jpg","303.jpg","232.jpg","95.jpg","82.jpg",0
1,1,1,2,3.5389,0.4058,"10.04.17_12:11:22",25,4,339,1,6,6,6,"168.jpg","107.jpg","101.jpg","126.jpg","24.jpg","134.jpg","134.jpg","336.jpg",1
1,0,0,3,3.2358,0.9514,"10.04.17_12:11:31",25,4,340,2,6,5,4,"193.jpg","377.jpg","28.jpg","361.jpg","72.jpg","238.jpg","361.jpg","nope",1
1,1,0,2,1.2443,0.517,"10.04.17_12:11:37",25,4,341,1,6,4,4,"326.jpg","129.jpg","135.jpg","147.jpg","283.jpg","398.jpg","147.jpg","111.jpg",0
1,1,0,1,3.2962,0.3649,"10.04.17_12:11:45",25,4,342,2,6,2,1,"260.jpg","342.jpg","235.jpg","12.jpg","77.jpg","316.jpg","260.jpg","210.jpg",0
1,0,0,3,1.0719,0.5165,"10.04.17_12:11:51",25,4,343,2,6,4,5,"304.jpg","291.jpg","350.jpg","27.jpg","329.jpg","181.jpg","329.jpg","nope",1
1,1,1,3,0.9913,0.4056,"10.04.17_12:11:57",25,4,344,1,6,2,2,"140.jpg","326.jpg","331.jpg","257.jpg","65.jpg","337.jpg","326.jpg","46.jpg",1
1,1,0,1,2.2142,0.3245,"10.04.17_12:12:04",25,4,345,2,6,2,3,"186.jpg","367.jpg","294.jpg","144.jpg","296.jpg","207.jpg","294.jpg","297.jpg",0
1,1,1,3,0.7585,0.3547,"10.04.17_12:12:10",25,4,346,1,6,4,4,"84.jpg","26.jpg","399.jpg","227.jpg","71.jpg","56.jpg","227.jpg","53.jpg",1
1,0,0,1,1.8705,0.7599,"10.04.17_12:12:17",25,4,347,3,6,6,2,"203.jpg","275.jpg","333.jpg","247.jpg","26.jpg","120.jpg","275.jpg","nope",1
1,1,1,4,0.8798,0.2537,"10.04.17_12:12:22",25,4,348,1,6,5,5,"245.jpg","108.jpg","47.jpg","25.jpg","114.jpg","123.jpg","114.jpg","211.jpg",1
1,0,1,2,0.718,0.6383,"10.04.17_12:12:28",25,4,349,1,6,1,1,"91.jpg","12.jpg","179.jpg","19.jpg","321.jpg","58.jpg","91.jpg","nope",0
1,0,0,3,0.8999,0.4052,"10.04.17_12:12:34",25,4,350,1,6,2,2,"196.jpg","24.jpg","274.jpg","356.jpg","114.jpg","184.jpg","24.jpg","nope",1
1,0,0,2,1.3146,1.9116,"10.04.17_12:12:41",25,4,351,2,6,6,1,"1.jpg","194.jpg","296.jpg","129.jpg","352.jpg","376.jpg","1.jpg","nope",1
1,1,0,1,1.9518,0.2839,"10.04.17_12:12:48",25,4,352,3,6,6,2,"332.jpg","349.jpg","289.jpg","85.jpg","361.jpg","367.jpg","349.jpg","246.jpg",0
1,0,0,3,1.0718,0.5572,"10.04.17_12:12:54",25,4,353,2,6,1,2,"140.jpg","109.jpg","299.jpg","59.jpg","72.jpg","114.jpg","109.jpg","nope",1
1,1,1,4,1.0821,0.3651,"10.04.17_12:13:00",25,4,354,1,6,2,2,"49.jpg","276.jpg","392.jpg","16.jpg","125.jpg","70.jpg","276.jpg","241.jpg",1
1,0,0,2,0.6978,0.3649,"10.04.17_12:13:06",25,4,355,1,6,5,5,"266.jpg","76.jpg","202.jpg","389.jpg","54.jpg","155.jpg","54.jpg","nope",1
1,1,0,2,1.7593,0.2742,"10.04.17_12:13:12",25,4,356,2,6,3,4,"95.jpg","105.jpg","307.jpg","229.jpg","155.jpg","339.jpg","229.jpg","73.jpg",0
1,0,0,4,1.1227,0.6782,"10.04.17_12:13:18",25,4,357,1,6,4,4,"218.jpg","201.jpg","325.jpg","62.jpg","107.jpg","195.jpg","62.jpg","nope",1
1,1,0,1,1.3953,0.2636,"10.04.17_12:13:24",25,4,358,2,6,5,4,"67.jpg","33.jpg","358.jpg","69.jpg","375.jpg","286.jpg","69.jpg","199.jpg",0
1,1,0,2,2.9522,0.2435,"10.04.17_12:13:32",25,4,359,2,6,3,2,"129.jpg","198.jpg","75.jpg","53.jpg","106.jpg","179.jpg","198.jpg","105.jpg",0
1,0,0,1,1.7599,0.3244,"10.04.17_12:13:38",25,4,360,3,6,6,2,"331.jpg","116.jpg","256.jpg","24.jpg","249.jpg","354.jpg","116.jpg","nope",1
10,1,0,2,6.1777,1.7803,"11.04.17_10:13:02",23,1,1,2,6,3,2,"366.jpg","72.jpg","337.jpg","191.jpg","211.jpg","353.jpg","72.jpg","374.jpg",0
10,0,0,2,7.279,1.4369,"11.04.17_10:13:16",23,1,2,2,6,6,5,"216.jpg","60.jpg","221.jpg","339.jpg","55.jpg","356.jpg","55.jpg","nope",1
10,0,0,3,1.4359,1.8174,"11.04.17_10:13:23",23,1,3,1,6,3,3,"72.jpg","254.jpg","274.jpg","16.jpg","27.jpg","272.jpg","274.jpg","nope",1
10,0,0,3,2.2546,1.2345,"11.04.17_10:13:31",23,1,4,2,6,5,6,"37.jpg","364.jpg","322.jpg","336.jpg","320.jpg","341.jpg","341.jpg","nope",1
10,0,0,3,3.933,0.9615,"11.04.17_10:13:41",23,1,5,2,6,3,4,"10.jpg","158.jpg","214.jpg","188.jpg","103.jpg","335.jpg","188.jpg","nope",1
10,1,0,2,5.6517,0.6991,"11.04.17_10:13:52",23,1,6,2,6,6,5,"53.jpg","304.jpg","267.jpg","352.jpg","147.jpg","248.jpg","147.jpg","143.jpg",0
10,1,1,2,5.6317,2.2052,"11.04.17_10:14:04",23,1,7,2,6,4,3,"178.jpg","41.jpg","376.jpg","323.jpg","301.jpg","161.jpg","376.jpg","118.jpg",1
10,0,0,4,0.7079,2.4884,"11.04.17_10:14:12",23,1,8,1,6,5,5,"233.jpg","103.jpg","375.jpg","241.jpg","31.jpg","167.jpg","31.jpg","nope",1
10,1,0,2,2.2244,2.0936,"11.04.17_10:14:21",23,1,9,2,6,1,6,"392.jpg","242.jpg","232.jpg","31.jpg","72.jpg","180.jpg","180.jpg","64.jpg",0
10,0,0,4,2.0932,0.8404,"11.04.17_10:14:28",23,1,10,1,6,2,2,"398.jpg","226.jpg","212.jpg","392.jpg","192.jpg","98.jpg","226.jpg","nope",1
10,0,0,2,4.8332,1.7809,"11.04.17_10:14:39",23,1,11,2,6,5,4,"239.jpg","248.jpg","54.jpg","217.jpg","283.jpg","36.jpg","217.jpg","nope",1
10,0,0,2,9.3518,1.2855,"11.04.17_10:14:54",23,1,12,1,6,2,2,"236.jpg","1.jpg","369.jpg","329.jpg","392.jpg","298.jpg","1.jpg","nope",1
10,0,0,2,7.4009,1.2047,"11.04.17_10:15:07",23,1,13,2,6,1,6,"23.jpg","112.jpg","226.jpg","247.jpg","260.jpg","169.jpg","169.jpg","nope",1
10,0,1,2,2.0222,2.1348,"11.04.17_10:15:16",23,1,14,2,6,3,4,"89.jpg","106.jpg","112.jpg","378.jpg","198.jpg","46.jpg","378.jpg","nope",0
10,1,1,3,1.83,1.356,"11.04.17_10:15:24",23,1,15,2,6,3,2,"17.jpg","119.jpg","173.jpg","6.jpg","53.jpg","121.jpg","119.jpg","88.jpg",1
10,1,0,2,2.4569,0.9712,"11.04.17_10:15:32",23,1,16,1,6,4,4,"12.jpg","317.jpg","307.jpg","363.jpg","1.jpg","269.jpg","363.jpg","230.jpg",0
10,0,1,2,0.7787,2.2856,"11.04.17_10:15:39",23,1,17,1,6,6,6,"364.jpg","5.jpg","173.jpg","97.jpg","248.jpg","371.jpg","371.jpg","nope",0
10,0,0,4,1.9417,1.0126,"11.04.17_10:15:47",23,1,18,1,6,5,5,"19.jpg","123.jpg","18.jpg","239.jpg","168.jpg","154.jpg","168.jpg","nope",1
10,0,1,2,0.7989,1.3158,"11.04.17_10:15:53",23,1,19,1,6,1,1,"304.jpg","305.jpg","269.jpg","31.jpg","339.jpg","29.jpg","304.jpg","nope",0
10,0,1,2,4.1655,0.7694,"11.04.17_10:16:03",23,1,20,2,6,3,4,"89.jpg","145.jpg","342.jpg","262.jpg","142.jpg","323.jpg","262.jpg","nope",0
10,1,1,2,3.6499,0.618,"11.04.17_10:16:11",23,1,21,2,6,1,6,"195.jpg","117.jpg","61.jpg","85.jpg","131.jpg","139.jpg","139.jpg","26.jpg",1
10,1,1,1,6.3593,2.1951,"11.04.17_10:16:24",23,1,22,2,6,2,3,"79.jpg","323.jpg","218.jpg","74.jpg","18.jpg","168.jpg","218.jpg","363.jpg",1
10,1,0,1,2.467,1.3555,"11.04.17_10:16:33",23,1,23,2,6,1,2,"392.jpg","125.jpg","173.jpg","334.jpg","289.jpg","237.jpg","125.jpg","114.jpg",0
10,1,1,2,0.7888,4.1254,"11.04.17_10:16:42",23,1,24,1,6,6,6,"116.jpg","339.jpg","187.jpg","219.jpg","27.jpg","291.jpg","291.jpg","303.jpg",1
10,0,0,2,6.0963,0.8503,"11.04.17_10:16:54",23,1,25,2,6,1,2,"330.jpg","314.jpg","129.jpg","237.jpg","41.jpg","207.jpg","314.jpg","nope",1
10,0,0,3,2.0627,0.9612,"11.04.17_10:17:01",23,1,26,3,6,5,3,"326.jpg","375.jpg","281.jpg","56.jpg","316.jpg","27.jpg","281.jpg","nope",1
10,1,1,2,2.8819,1.6698,"11.04.17_10:17:10",23,1,27,1,6,6,6,"345.jpg","106.jpg","78.jpg","113.jpg","63.jpg","400.jpg","400.jpg","147.jpg",1
10,0,1,2,1.4058,3.8663,"11.04.17_10:17:20",23,1,28,2,6,5,6,"26.jpg","329.jpg","81.jpg","68.jpg","66.jpg","245.jpg","245.jpg","nope",0
10,1,0,3,3.1448,1.1946,"11.04.17_10:17:29",23,1,29,2,6,5,4,"111.jpg","152.jpg","59.jpg","105.jpg","379.jpg","151.jpg","105.jpg","144.jpg",0
10,0,0,3,1.4055,1.0232,"11.04.17_10:17:35",23,1,30,2,6,5,6,"119.jpg","130.jpg","71.jpg","105.jpg","89.jpg","308.jpg","308.jpg","nope",1
10,0,0,3,1.4661,1.4673,"11.04.17_10:17:43",23,1,31,1,6,6,6,"317.jpg","109.jpg","399.jpg","30.jpg","309.jpg","370.jpg","370.jpg","nope",1
10,0,1,2,2.6187,0.8851,"11.04.17_10:17:51",23,1,32,1,6,6,6,"43.jpg","203.jpg","167.jpg","128.jpg","401.jpg","114.jpg","114.jpg","nope",0
10,1,1,4,2.2244,1.821,"11.04.17_10:17:59",23,1,33,3,6,2,5,"222.jpg","271.jpg","27.jpg","191.jpg","22.jpg","378.jpg","22.jpg","326.jpg",1
10,1,0,4,1.8102,0.8206,"11.04.17_10:18:06",23,1,34,1,6,1,1,"196.jpg","112.jpg","14.jpg","197.jpg","151.jpg","226.jpg","196.jpg","166.jpg",0
10,0,0,2,3.114,1.6596,"11.04.17_10:18:16",23,1,35,1,6,4,4,"272.jpg","128.jpg","9.jpg","299.jpg","346.jpg","20.jpg","299.jpg","nope",1
10,0,1,1,17.6481,0.4159,"11.04.17_10:18:38",23,1,36,3,6,1,5,"192.jpg","269.jpg","117.jpg","217.jpg","284.jpg","358.jpg","284.jpg","nope",0
10,1,0,2,2.4168,0.547,"11.04.17_10:18:46",23,1,37,1,6,2,2,"308.jpg","350.jpg","105.jpg","204.jpg","90.jpg","228.jpg","350.jpg","206.jpg",0
10,1,1,1,7.9872,0.6994,"11.04.17_10:18:59",23,1,38,2,6,2,3,"192.jpg","228.jpg","347.jpg","98.jpg","314.jpg","246.jpg","347.jpg","123.jpg",1
10,0,0,4,1.4359,1.0428,"11.04.17_10:19:06",23,1,39,1,6,3,3,"58.jpg","281.jpg","95.jpg","90.jpg","114.jpg","126.jpg","95.jpg","nope",1
10,0,0,1,10.0803,0.5069,"11.04.17_10:19:21",23,1,40,2,6,5,6,"224.jpg","36.jpg","260.jpg","344.jpg","237.jpg","161.jpg","161.jpg","nope",1
10,0,0,3,1.8403,0.8104,"11.04.17_10:19:28",23,1,41,1,6,3,3,"256.jpg","99.jpg","401.jpg","107.jpg","368.jpg","117.jpg","401.jpg","nope",1
10,0,0,3,1.638,0.3451,"11.04.17_10:19:34",23,1,42,1,6,3,3,"116.jpg","165.jpg","201.jpg","129.jpg","247.jpg","392.jpg","201.jpg","nope",1
10,0,0,3,5.9549,0.6589,"11.04.17_10:19:46",23,1,43,1,6,5,5,"230.jpg","296.jpg","373.jpg","377.jpg","194.jpg","29.jpg","194.jpg","nope",1
10,0,1,2,1.1729,0.3047,"11.04.17_10:19:51",23,1,44,1,6,2,2,"29.jpg","320.jpg","387.jpg","297.jpg","142.jpg","10.jpg","320.jpg","nope",0
10,0,0,3,1.5573,0.7796,"11.04.17_10:19:58",23,1,45,1,6,1,1,"366.jpg","285.jpg","367.jpg","59.jpg","211.jpg","32.jpg","366.jpg","nope",1
10,0,0,4,1.0011,4.4097,"11.04.17_10:20:08",23,1,46,1,6,4,4,"190.jpg","9.jpg","131.jpg","157.jpg","294.jpg","290.jpg","157.jpg","nope",1
10,1,0,3,1.0112,0.6087,"11.04.17_10:20:14",23,1,47,1,6,2,2,"159.jpg","69.jpg","220.jpg","307.jpg","260.jpg","230.jpg","69.jpg","342.jpg",0
10,0,0,3,1.8706,0.3858,"11.04.17_10:20:21",23,1,48,2,6,6,5,"59.jpg","298.jpg","86.jpg","13.jpg","132.jpg","54.jpg","132.jpg","nope",1
10,0,0,3,2.649,0.4665,"11.04.17_10:20:29",23,1,49,2,6,1,2,"73.jpg","127.jpg","237.jpg","374.jpg","124.jpg","200.jpg","127.jpg","nope",1
10,0,0,3,1.7796,1.2859,"11.04.17_10:20:36",23,1,50,1,6,1,1,"27.jpg","298.jpg","58.jpg","194.jpg","18.jpg","103.jpg","27.jpg","nope",1
10,0,0,3,1.8607,0.7397,"11.04.17_10:20:43",23,1,51,1,6,6,6,"378.jpg","23.jpg","241.jpg","261.jpg","153.jpg","6.jpg","6.jpg","nope",1
10,0,0,4,1.1729,0.9026,"11.04.17_10:20:50",23,1,52,1,6,2,2,"276.jpg","192.jpg","66.jpg","397.jpg","401.jpg","398.jpg","192.jpg","nope",1
10,0,0,3,1.2741,0.4671,"11.04.17_10:20:56",23,1,53,2,6,2,1,"348.jpg","165.jpg","148.jpg","192.jpg","147.jpg","115.jpg","348.jpg","nope",1
10,0,0,2,6.1068,0.7704,"11.04.17_10:21:07",23,1,54,3,6,1,4,"228.jpg","400.jpg","121.jpg","77.jpg","122.jpg","316.jpg","77.jpg","nope",1
10,0,0,2,0.7787,0.8102,"11.04.17_10:21:13",23,1,55,1,6,5,5,"353.jpg","74.jpg","184.jpg","208.jpg","258.jpg","211.jpg","258.jpg","nope",1
10,1,1,2,2.3052,1.2759,"11.04.17_10:21:21",23,1,56,2,6,6,5,"117.jpg","20.jpg","76.jpg","187.jpg","234.jpg","11.jpg","234.jpg","231.jpg",1
10,0,1,1,5.9952,0.3046,"11.04.17_10:21:32",23,1,57,2,6,3,2,"102.jpg","335.jpg","292.jpg","290.jpg","39.jpg","170.jpg","335.jpg","nope",0
10,0,1,2,1.7289,1.0126,"11.04.17_10:21:39",23,1,58,2,6,4,3,"40.jpg","73.jpg","283.jpg","290.jpg","135.jpg","154.jpg","283.jpg","nope",0
10,0,0,2,6.5217,0.4256,"11.04.17_10:21:51",23,1,59,2,6,5,6,"305.jpg","326.jpg","142.jpg","21.jpg","71.jpg","223.jpg","223.jpg","nope",1
10,0,0,3,1.527,0.8914,"11.04.17_10:21:58",23,1,60,1,6,5,5,"193.jpg","312.jpg","116.jpg","229.jpg","353.jpg","7.jpg","353.jpg","nope",1
10,1,0,3,1.4461,0.4664,"11.04.17_10:22:04",23,1,61,2,6,4,3,"52.jpg","352.jpg","343.jpg","171.jpg","247.jpg","39.jpg","343.jpg","316.jpg",0
10,1,0,3,0.9506,0.7395,"11.04.17_10:22:10",23,1,62,1,6,2,2,"120.jpg","394.jpg","144.jpg","326.jpg","389.jpg","165.jpg","394.jpg","99.jpg",0
10,1,1,4,1.3554,0.7701,"11.04.17_10:22:17",23,1,63,1,6,2,2,"82.jpg","312.jpg","127.jpg","255.jpg","102.jpg","188.jpg","312.jpg","277.jpg",1
10,1,0,3,14.1544,0.6181,"11.04.17_10:22:36",23,1,64,2,6,2,3,"210.jpg","255.jpg","88.jpg","7.jpg","31.jpg","107.jpg","88.jpg","340.jpg",0
10,0,1,2,5.3589,0.5478,"11.04.17_10:22:46",23,1,65,2,6,2,3,"164.jpg","285.jpg","318.jpg","290.jpg","80.jpg","15.jpg","318.jpg","nope",0
10,0,0,3,1.4661,1.0427,"11.04.17_10:22:53",23,1,66,2,6,4,3,"291.jpg","222.jpg","269.jpg","128.jpg","113.jpg","219.jpg","269.jpg","nope",1
10,1,0,2,4.2877,0.659,"11.04.17_10:23:03",23,1,67,2,6,2,3,"317.jpg","147.jpg","136.jpg","262.jpg","233.jpg","12.jpg","136.jpg","336.jpg",0
10,0,1,2,5.9458,0.5878,"11.04.17_10:23:14",23,1,68,3,6,6,4,"397.jpg","392.jpg","352.jpg","154.jpg","331.jpg","26.jpg","154.jpg","nope",0
10,1,1,2,1.6183,1.1242,"11.04.17_10:23:21",23,1,69,1,6,5,5,"334.jpg","381.jpg","89.jpg","149.jpg","377.jpg","336.jpg","377.jpg","399.jpg",1
10,1,0,3,1.6385,0.4665,"11.04.17_10:23:27",23,1,70,2,6,3,4,"25.jpg","208.jpg","149.jpg","71.jpg","244.jpg","118.jpg","71.jpg","226.jpg",0
10,0,1,1,3.3874,0.6592,"11.04.17_10:23:36",23,1,71,2,6,5,6,"43.jpg","321.jpg","62.jpg","173.jpg","122.jpg","124.jpg","124.jpg","nope",0
10,0,0,2,1.3862,0.7394,"11.04.17_10:23:42",23,1,72,1,6,2,2,"384.jpg","373.jpg","243.jpg","299.jpg","361.jpg","37.jpg","373.jpg","nope",1
10,1,1,2,2.8311,0.578,"11.04.17_10:23:50",23,1,73,1,6,1,1,"159.jpg","92.jpg","232.jpg","256.jpg","72.jpg","377.jpg","159.jpg","154.jpg",1
10,0,0,3,1.1632,0.9312,"11.04.17_10:23:57",23,1,74,1,6,6,6,"318.jpg","254.jpg","341.jpg","84.jpg","180.jpg","173.jpg","173.jpg","nope",1
10,0,0,2,2.457,0.3959,"11.04.17_10:24:04",23,1,75,1,6,4,4,"320.jpg","340.jpg","364.jpg","59.jpg","129.jpg","121.jpg","59.jpg","nope",1
10,0,0,2,5.7224,0.5983,"11.04.17_10:24:15",23,1,76,2,6,1,2,"58.jpg","41.jpg","109.jpg","18.jpg","130.jpg","397.jpg","41.jpg","nope",1
10,0,0,2,3.6297,0.5372,"11.04.17_10:24:23",23,1,77,3,6,4,6,"136.jpg","268.jpg","314.jpg","46.jpg","208.jpg","187.jpg","187.jpg","nope",1
10,0,0,2,3.0432,0.6588,"11.04.17_10:24:32",23,1,78,1,6,3,3,"103.jpg","300.jpg","182.jpg","125.jpg","116.jpg","398.jpg","182.jpg","nope",1
10,1,0,3,0.8494,0.386,"11.04.17_10:24:37",23,1,79,1,6,2,2,"389.jpg","298.jpg","255.jpg","37.jpg","106.jpg","89.jpg","298.jpg","224.jpg",0
10,1,1,4,1.2538,0.7799,"11.04.17_10:24:44",23,1,80,2,6,3,2,"198.jpg","128.jpg","79.jpg","203.jpg","156.jpg","224.jpg","128.jpg","242.jpg",1
10,1,1,2,2.7603,0.467,"11.04.17_10:24:51",23,1,81,2,6,5,4,"379.jpg","301.jpg","255.jpg","137.jpg","91.jpg","216.jpg","137.jpg","223.jpg",1
10,1,0,2,1.3953,0.426,"11.04.17_10:24:58",23,1,82,2,6,5,6,"378.jpg","298.jpg","363.jpg","223.jpg","232.jpg","326.jpg","326.jpg","394.jpg",0
10,1,0,1,1.9009,1.2764,"11.04.17_10:25:05",23,1,83,2,6,4,5,"335.jpg","59.jpg","300.jpg","136.jpg","219.jpg","218.jpg","219.jpg","124.jpg",0
10,0,0,4,1.5472,1.3159,"11.04.17_10:25:12",23,1,84,1,6,5,5,"200.jpg","152.jpg","159.jpg","137.jpg","242.jpg","291.jpg","242.jpg","nope",1
10,0,0,4,2.6895,0.4162,"11.04.17_10:25:20",23,1,85,1,6,3,3,"76.jpg","13.jpg","294.jpg","84.jpg","101.jpg","280.jpg","294.jpg","nope",1
10,1,0,2,11.2436,1.0127,"11.04.17_10:25:37",23,1,86,2,6,2,1,"261.jpg","43.jpg","266.jpg","64.jpg","109.jpg","59.jpg","261.jpg","253.jpg",0
10,1,1,3,3.1545,1.5896,"11.04.17_10:25:46",23,1,87,1,6,4,4,"180.jpg","376.jpg","118.jpg","96.jpg","313.jpg","128.jpg","96.jpg","309.jpg",1
10,1,1,3,6.2282,1.0834,"11.04.17_10:25:58",23,1,88,1,6,4,4,"289.jpg","330.jpg","178.jpg","165.jpg","399.jpg","393.jpg","165.jpg","197.jpg",1
10,0,0,4,1.446,0.5376,"11.04.17_10:26:04",23,1,89,1,6,1,1,"301.jpg","132.jpg","382.jpg","260.jpg","146.jpg","390.jpg","301.jpg","nope",1
10,0,0,4,1.1024,0.3856,"11.04.17_10:26:10",23,1,90,1,6,4,4,"45.jpg","275.jpg","22.jpg","197.jpg","390.jpg","25.jpg","197.jpg","nope",1
10,0,1,1,5.7342,2.2866,"11.04.17_10:27:19",23,2,91,3,6,1,4,"7.jpg","228.jpg","309.jpg","311.jpg","197.jpg","241.jpg","311.jpg","nope",0
10,0,0,3,1.4461,0.8209,"11.04.17_10:27:26",23,2,92,2,6,6,5,"110.jpg","215.jpg","163.jpg","106.jpg","211.jpg","140.jpg","211.jpg","nope",1
10,1,1,2,6.0971,0.5375,"11.04.17_10:27:37",23,2,93,2,6,5,6,"78.jpg","142.jpg","106.jpg","5.jpg","124.jpg","34.jpg","34.jpg","370.jpg",1
10,1,0,2,4.7732,0.7392,"11.04.17_10:27:47",23,2,94,2,6,2,3,"343.jpg","249.jpg","130.jpg","199.jpg","328.jpg","15.jpg","130.jpg","167.jpg",0
10,1,1,4,2.417,0.8209,"11.04.17_10:27:55",23,2,95,1,6,2,2,"366.jpg","342.jpg","225.jpg","76.jpg","303.jpg","227.jpg","342.jpg","330.jpg",1
10,0,0,2,1.4459,0.8197,"11.04.17_10:28:02",23,2,96,1,6,2,2,"360.jpg","141.jpg","97.jpg","142.jpg","82.jpg","132.jpg","141.jpg","nope",1
10,0,0,2,4.2673,0.5066,"11.04.17_10:28:11",23,2,97,2,6,4,3,"8.jpg","134.jpg","247.jpg","34.jpg","325.jpg","51.jpg","247.jpg","nope",1
10,0,0,2,1.0619,0.9316,"11.04.17_10:28:17",23,2,98,1,6,5,5,"380.jpg","342.jpg","297.jpg","214.jpg","375.jpg","165.jpg","375.jpg","nope",1
10,0,0,2,1.5673,0.507,"11.04.17_10:28:24",23,2,99,1,6,3,3,"221.jpg","67.jpg","94.jpg","34.jpg","41.jpg","374.jpg","94.jpg","nope",1
10,0,0,2,4.5004,0.78,"11.04.17_10:28:34",23,2,100,2,6,6,5,"270.jpg","22.jpg","12.jpg","351.jpg","383.jpg","241.jpg","383.jpg","nope",1
10,1,0,2,1.4967,0.9313,"11.04.17_10:28:40",23,2,101,3,6,2,4,"75.jpg","245.jpg","23.jpg","100.jpg","400.jpg","219.jpg","100.jpg","273.jpg",0
10,1,1,2,1.7095,0.4665,"11.04.17_10:28:47",23,2,102,2,6,3,4,"211.jpg","331.jpg","337.jpg","80.jpg","333.jpg","329.jpg","80.jpg","319.jpg",1
10,1,0,2,1.7293,0.4663,"11.04.17_10:28:54",23,2,103,1,6,4,4,"192.jpg","278.jpg","273.jpg","14.jpg","256.jpg","61.jpg","14.jpg","161.jpg",0
10,0,0,2,1.8806,0.4265,"11.04.17_10:29:00",23,2,104,2,6,2,3,"192.jpg","27.jpg","40.jpg","135.jpg","345.jpg","287.jpg","40.jpg","nope",1
10,1,1,3,1.558,0.9346,"11.04.17_10:29:07",23,2,105,1,6,5,5,"306.jpg","207.jpg","206.jpg","365.jpg","382.jpg","31.jpg","382.jpg","5.jpg",1
10,1,1,3,1.2512,0.4299,"11.04.17_10:29:14",23,2,106,2,6,3,2,"111.jpg","315.jpg","365.jpg","205.jpg","179.jpg","333.jpg","315.jpg","13.jpg",1
10,0,0,2,3.0738,0.7392,"11.04.17_10:29:22",23,2,107,1,6,4,4,"100.jpg","317.jpg","65.jpg","207.jpg","213.jpg","337.jpg","207.jpg","nope",1
10,0,0,3,1.0516,0.7403,"11.04.17_10:29:28",23,2,108,1,6,3,3,"240.jpg","141.jpg","220.jpg","351.jpg","295.jpg","373.jpg","220.jpg","nope",1
10,0,0,2,5.3285,1.9728,"11.04.17_10:29:40",23,2,109,1,6,6,6,"117.jpg","276.jpg","301.jpg","271.jpg","233.jpg","257.jpg","257.jpg","nope",1
10,1,0,2,2.2148,0.5774,"11.04.17_10:29:47",23,2,110,2,6,2,3,"185.jpg","73.jpg","374.jpg","22.jpg","251.jpg","328.jpg","374.jpg","33.jpg",0
10,1,1,4,1.3953,1.437,"11.04.17_10:29:54",23,2,111,1,6,5,5,"131.jpg","199.jpg","139.jpg","39.jpg","356.jpg","112.jpg","356.jpg","247.jpg",1
10,1,1,4,0.6675,0.4664,"11.04.17_10:30:00",23,2,112,1,6,5,5,"189.jpg","401.jpg","387.jpg","4.jpg","75.jpg","152.jpg","75.jpg","245.jpg",1
10,1,0,2,5.8643,1.0128,"11.04.17_10:30:11",23,2,113,2,6,5,4,"319.jpg","199.jpg","60.jpg","228.jpg","263.jpg","144.jpg","228.jpg","259.jpg",0
10,1,0,2,0.5057,1.2045,"11.04.17_10:30:17",23,2,114,1,6,5,5,"250.jpg","385.jpg","336.jpg","375.jpg","253.jpg","281.jpg","253.jpg","111.jpg",0
10,0,1,2,1.8401,0.6581,"11.04.17_10:30:24",23,2,115,2,6,1,2,"124.jpg","83.jpg","351.jpg","335.jpg","216.jpg","180.jpg","83.jpg","nope",0
10,1,1,4,1.8604,1.5184,"11.04.17_10:30:32",23,2,116,2,6,1,2,"122.jpg","76.jpg","179.jpg","88.jpg","360.jpg","72.jpg","76.jpg","333.jpg",1
10,1,1,2,1.7694,0.4668,"11.04.17_10:30:39",23,2,117,3,6,4,2,"333.jpg","63.jpg","396.jpg","294.jpg","133.jpg","280.jpg","63.jpg","186.jpg",1
10,1,0,2,1.4763,0.5374,"11.04.17_10:30:45",23,2,118,2,6,3,2,"144.jpg","56.jpg","141.jpg","281.jpg","215.jpg","37.jpg","56.jpg","94.jpg",0
10,1,1,4,1.3347,0.6893,"11.04.17_10:30:52",23,2,119,1,6,3,3,"366.jpg","118.jpg","252.jpg","135.jpg","20.jpg","377.jpg","252.jpg","238.jpg",1
10,0,0,3,1.9008,0.8106,"11.04.17_10:30:59",23,2,120,2,6,1,6,"40.jpg","133.jpg","323.jpg","66.jpg","217.jpg","321.jpg","321.jpg","nope",1
10,1,1,2,0.7382,0.5071,"11.04.17_10:31:05",23,2,121,1,6,4,4,"257.jpg","270.jpg","330.jpg","46.jpg","348.jpg","105.jpg","46.jpg","314.jpg",1
10,0,0,2,18.0062,1.5893,"11.04.17_10:31:29",23,2,122,2,6,2,3,"167.jpg","292.jpg","104.jpg","198.jpg","220.jpg","234.jpg","104.jpg","nope",1
10,1,1,4,2.2146,0.9323,"11.04.17_10:31:36",23,2,123,2,6,6,1,"199.jpg","53.jpg","150.jpg","258.jpg","98.jpg","174.jpg","199.jpg","275.jpg",1
10,0,0,2,6.4608,0.5474,"11.04.17_10:31:48",23,2,124,2,6,4,5,"294.jpg","157.jpg","317.jpg","242.jpg","167.jpg","274.jpg","167.jpg","nope",1
10,0,0,2,1.446,0.6078,"11.04.17_10:31:54",23,2,125,1,6,2,2,"265.jpg","292.jpg","328.jpg","59.jpg","284.jpg","143.jpg","292.jpg","nope",1
10,1,1,2,4.3676,0.4971,"11.04.17_10:32:03",23,2,126,2,6,6,1,"121.jpg","181.jpg","61.jpg","51.jpg","63.jpg","379.jpg","121.jpg","301.jpg",1
10,1,0,2,2.4872,0.4662,"11.04.17_10:32:11",23,2,127,2,6,4,5,"262.jpg","238.jpg","257.jpg","294.jpg","239.jpg","10.jpg","239.jpg","22.jpg",0
10,1,0,2,3.1747,0.4051,"11.04.17_10:32:19",23,2,128,2,6,1,6,"83.jpg","322.jpg","87.jpg","62.jpg","321.jpg","10.jpg","10.jpg","339.jpg",0
10,1,1,2,2.7706,0.507,"11.04.17_10:32:27",23,2,129,1,6,3,3,"268.jpg","135.jpg","286.jpg","291.jpg","55.jpg","22.jpg","286.jpg","294.jpg",1
10,0,0,4,1.3954,1.9322,"11.04.17_10:32:34",23,2,130,2,6,2,3,"379.jpg","27.jpg","92.jpg","319.jpg","205.jpg","216.jpg","92.jpg","nope",1
10,0,0,2,2.1738,0.4563,"11.04.17_10:32:41",23,2,131,2,6,3,2,"212.jpg","393.jpg","197.jpg","334.jpg","134.jpg","290.jpg","393.jpg","nope",1
10,0,1,2,1.4358,0.548,"11.04.17_10:32:48",23,2,132,1,6,6,6,"401.jpg","303.jpg","169.jpg","328.jpg","148.jpg","216.jpg","216.jpg","nope",0
10,1,1,2,0.8494,0.3858,"11.04.17_10:32:53",23,2,133,1,6,2,2,"196.jpg","214.jpg","141.jpg","10.jpg","275.jpg","179.jpg","214.jpg","85.jpg",1
10,1,1,4,1.0921,0.355,"11.04.17_10:32:59",23,2,134,1,6,2,2,"31.jpg","110.jpg","334.jpg","172.jpg","70.jpg","138.jpg","110.jpg","220.jpg",1
10,0,0,4,1.2034,0.6383,"11.04.17_10:33:06",23,2,135,1,6,2,2,"319.jpg","272.jpg","335.jpg","195.jpg","116.jpg","367.jpg","272.jpg","nope",1
10,1,1,3,0.718,0.7296,"11.04.17_10:33:11",23,2,136,1,6,5,5,"192.jpg","288.jpg","302.jpg","401.jpg","37.jpg","355.jpg","37.jpg","78.jpg",1
10,0,1,2,3.023,0.6183,"11.04.17_10:33:20",23,2,137,2,6,6,1,"276.jpg","53.jpg","206.jpg","105.jpg","36.jpg","133.jpg","276.jpg","nope",0
10,1,0,2,3.4178,0.6582,"11.04.17_10:33:28",23,2,138,2,6,2,3,"113.jpg","98.jpg","126.jpg","59.jpg","245.jpg","187.jpg","126.jpg","390.jpg",0
10,1,0,1,1.3954,0.4257,"11.04.17_10:33:34",23,2,139,1,6,5,5,"392.jpg","322.jpg","400.jpg","161.jpg","193.jpg","48.jpg","193.jpg","396.jpg",0
10,1,1,4,0.5057,0.6184,"11.04.17_10:33:40",23,2,140,1,6,1,1,"107.jpg","46.jpg","360.jpg","117.jpg","325.jpg","249.jpg","107.jpg","137.jpg",1
10,0,1,2,1.7092,0.3451,"11.04.17_10:33:46",23,2,141,2,6,3,4,"68.jpg","291.jpg","212.jpg","334.jpg","51.jpg","270.jpg","334.jpg","nope",0
10,1,1,2,5.1768,10.6863,"11.04.17_10:34:07",23,2,142,2,6,5,6,"54.jpg","227.jpg","45.jpg","158.jpg","127.jpg","309.jpg","309.jpg","160.jpg",1
10,1,1,4,0.9303,0.3448,"11.04.17_10:34:12",23,2,143,2,6,3,4,"162.jpg","87.jpg","268.jpg","12.jpg","25.jpg","184.jpg","12.jpg","195.jpg",1
10,1,1,2,2.0727,0.5474,"11.04.17_10:34:19",23,2,144,2,6,1,6,"85.jpg","368.jpg","187.jpg","55.jpg","358.jpg","200.jpg","200.jpg","202.jpg",1
10,1,0,2,1.1124,0.6489,"11.04.17_10:34:26",23,2,145,1,6,2,2,"200.jpg","93.jpg","88.jpg","292.jpg","212.jpg","135.jpg","93.jpg","63.jpg",0
10,1,1,2,5.8945,0.4667,"11.04.17_10:34:36",23,2,146,3,6,1,3,"211.jpg","78.jpg","23.jpg","384.jpg","5.jpg","76.jpg","23.jpg","83.jpg",1
10,1,0,2,3.2556,0.4262,"11.04.17_10:34:44",23,2,147,3,6,5,2,"184.jpg","351.jpg","69.jpg","68.jpg","8.jpg","353.jpg","351.jpg","106.jpg",0
10,1,1,2,2.1638,0.7299,"11.04.17_10:34:52",23,2,148,2,6,6,1,"38.jpg","125.jpg","107.jpg","379.jpg","32.jpg","203.jpg","38.jpg","389.jpg",1
10,1,1,4,0.8899,0.3858,"11.04.17_10:34:57",23,2,149,1,6,1,1,"13.jpg","166.jpg","104.jpg","105.jpg","83.jpg","97.jpg","13.jpg","261.jpg",1
10,0,1,2,2.0828,0.3855,"11.04.17_10:35:04",23,2,150,2,6,6,5,"117.jpg","57.jpg","270.jpg","60.jpg","249.jpg","151.jpg","249.jpg","nope",0
10,1,0,3,1.0314,0.5066,"11.04.17_10:35:10",23,2,151,1,6,2,2,"97.jpg","65.jpg","61.jpg","366.jpg","122.jpg","338.jpg","65.jpg","371.jpg",0
10,0,0,2,0.7791,0.9312,"11.04.17_10:35:16",23,2,152,1,6,6,6,"273.jpg","160.jpg","39.jpg","265.jpg","84.jpg","270.jpg","270.jpg","nope",1
10,1,0,2,1.4662,0.3448,"11.04.17_10:35:23",23,2,153,2,6,4,3,"169.jpg","385.jpg","235.jpg","93.jpg","213.jpg","158.jpg","235.jpg","110.jpg",0
10,1,0,2,3.8722,1.0827,"11.04.17_10:35:32",23,2,154,2,6,3,2,"15.jpg","142.jpg","316.jpg","57.jpg","262.jpg","214.jpg","142.jpg","375.jpg",0
10,1,1,4,1.0012,1.5891,"11.04.17_10:35:39",23,2,155,1,6,4,4,"89.jpg","205.jpg","164.jpg","206.jpg","148.jpg","261.jpg","206.jpg","376.jpg",1
10,0,1,2,1.8911,0.6382,"11.04.17_10:35:46",23,2,156,1,6,6,6,"249.jpg","55.jpg","123.jpg","179.jpg","120.jpg","279.jpg","279.jpg","nope",0
10,1,0,2,2.5984,1.3962,"11.04.17_10:35:55",23,2,157,2,6,3,4,"90.jpg","89.jpg","192.jpg","172.jpg","29.jpg","319.jpg","172.jpg","205.jpg",0
10,0,0,1,4.1869,2.3574,"11.04.17_10:36:05",23,2,158,2,6,5,4,"373.jpg","129.jpg","130.jpg","204.jpg","385.jpg","213.jpg","204.jpg","nope",1
10,0,0,4,1.8099,0.3451,"11.04.17_10:36:12",23,2,159,1,6,1,1,"81.jpg","359.jpg","368.jpg","69.jpg","31.jpg","21.jpg","81.jpg","nope",1
10,1,1,3,1.5268,0.3448,"11.04.17_10:36:18",23,2,160,2,6,5,6,"298.jpg","221.jpg","236.jpg","363.jpg","282.jpg","28.jpg","28.jpg","212.jpg",1
10,0,0,3,1.3852,0.5471,"11.04.17_10:36:25",23,2,161,1,6,1,1,"24.jpg","72.jpg","380.jpg","201.jpg","76.jpg","347.jpg","24.jpg","nope",1
10,0,1,2,1.9211,0.3046,"11.04.17_10:36:31",23,2,162,2,6,6,5,"243.jpg","30.jpg","156.jpg","368.jpg","225.jpg","327.jpg","225.jpg","nope",0
10,0,0,2,1.709,0.3851,"11.04.17_10:36:38",23,2,163,3,6,6,4,"284.jpg","258.jpg","311.jpg","282.jpg","260.jpg","335.jpg","282.jpg","nope",1
10,1,1,4,1.0821,0.3553,"11.04.17_10:36:44",23,2,164,1,6,6,6,"38.jpg","318.jpg","323.jpg","111.jpg","73.jpg","381.jpg","381.jpg","383.jpg",1
10,0,0,3,1.7392,0.618,"11.04.17_10:36:51",23,2,165,1,6,3,3,"161.jpg","6.jpg","241.jpg","107.jpg","138.jpg","304.jpg","241.jpg","nope",1
10,0,0,3,0.9508,0.4663,"11.04.17_10:36:56",23,2,166,1,6,5,5,"69.jpg","163.jpg","17.jpg","351.jpg","332.jpg","104.jpg","332.jpg","nope",1
10,0,0,2,1.2745,0.4257,"11.04.17_10:37:03",23,2,167,2,6,3,4,"28.jpg","363.jpg","1.jpg","191.jpg","110.jpg","230.jpg","191.jpg","nope",1
10,1,1,4,1.7593,0.507,"11.04.17_10:37:09",23,2,168,1,6,1,1,"155.jpg","273.jpg","161.jpg","357.jpg","377.jpg","207.jpg","155.jpg","387.jpg",1
10,0,0,2,0.8899,0.3852,"11.04.17_10:37:15",23,2,169,1,6,3,3,"203.jpg","4.jpg","236.jpg","63.jpg","328.jpg","298.jpg","236.jpg","nope",1
10,1,0,1,5.3684,2.4377,"11.04.17_10:37:27",23,2,170,2,6,3,2,"292.jpg","398.jpg","388.jpg","49.jpg","45.jpg","30.jpg","398.jpg","151.jpg",0
10,1,1,3,1.8301,0.8509,"11.04.17_10:37:34",23,2,171,1,6,4,4,"7.jpg","138.jpg","215.jpg","166.jpg","218.jpg","105.jpg","166.jpg","260.jpg",1
10,1,1,3,0.7685,1.0627,"11.04.17_10:37:41",23,2,172,1,6,6,6,"158.jpg","76.jpg","142.jpg","14.jpg","351.jpg","42.jpg","42.jpg","133.jpg",1
10,0,0,2,7.4213,0.8908,"11.04.17_10:37:53",23,2,173,2,6,2,1,"158.jpg","21.jpg","152.jpg","167.jpg","20.jpg","175.jpg","158.jpg","nope",1
10,1,1,2,2.568,0.7295,"11.04.17_10:38:01",23,2,174,1,6,2,2,"133.jpg","36.jpg","28.jpg","262.jpg","79.jpg","286.jpg","36.jpg","180.jpg",1
10,0,1,2,2.5176,0.6586,"11.04.17_10:38:09",23,2,175,2,6,4,3,"274.jpg","245.jpg","11.jpg","269.jpg","139.jpg","64.jpg","11.jpg","nope",0
10,0,0,2,2.6394,0.3748,"11.04.17_10:38:16",23,2,176,1,6,5,5,"10.jpg","35.jpg","353.jpg","149.jpg","389.jpg","240.jpg","389.jpg","nope",1
10,0,0,1,4.9138,0.6984,"11.04.17_10:38:26",23,2,177,3,6,3,6,"248.jpg","3.jpg","130.jpg","250.jpg","104.jpg","58.jpg","58.jpg","nope",1
10,0,0,2,2.5883,0.5773,"11.04.17_10:38:34",23,2,178,2,6,3,4,"263.jpg","95.jpg","306.jpg","319.jpg","282.jpg","313.jpg","319.jpg","nope",1
10,1,1,2,6.6524,0.4366,"11.04.17_10:38:45",23,2,179,1,6,4,4,"150.jpg","40.jpg","373.jpg","17.jpg","28.jpg","25.jpg","17.jpg","132.jpg",1
10,1,1,4,0.9607,0.5779,"11.04.17_10:38:51",23,2,180,1,6,3,3,"158.jpg","16.jpg","190.jpg","147.jpg","137.jpg","215.jpg","190.jpg","332.jpg",1
10,0,0,2,2.1133,3.3374,"11.04.17_10:41:23",23,3,181,2,6,2,3,"216.jpg","64.jpg","222.jpg","200.jpg","236.jpg","11.jpg","222.jpg","nope",1
10,1,0,2,4.7012,0.8919,"11.04.17_10:41:33",23,3,182,3,6,2,4,"54.jpg","39.jpg","261.jpg","183.jpg","265.jpg","253.jpg","183.jpg","218.jpg",0
10,0,0,4,1.7898,0.4263,"11.04.17_10:41:40",23,3,183,1,6,5,5,"28.jpg","247.jpg","209.jpg","323.jpg","259.jpg","95.jpg","259.jpg","nope",1
10,0,0,3,1.436,0.467,"11.04.17_10:41:46",23,3,184,2,6,2,1,"115.jpg","375.jpg","361.jpg","290.jpg","131.jpg","369.jpg","115.jpg","nope",1
10,0,0,3,0.9202,0.5875,"11.04.17_10:41:52",23,3,185,1,6,6,6,"236.jpg","325.jpg","95.jpg","123.jpg","245.jpg","134.jpg","134.jpg","nope",1
10,1,0,2,2.275,0.5776,"11.04.17_10:41:59",23,3,186,3,6,6,3,"326.jpg","245.jpg","103.jpg","74.jpg","227.jpg","21.jpg","103.jpg","56.jpg",0
10,0,0,3,1.5371,0.3964,"11.04.17_10:42:05",23,3,187,2,6,4,3,"71.jpg","190.jpg","358.jpg","251.jpg","210.jpg","133.jpg","358.jpg","nope",1
10,0,0,2,1.1527,0.3553,"11.04.17_10:42:11",23,3,188,2,6,5,6,"306.jpg","94.jpg","257.jpg","98.jpg","153.jpg","365.jpg","365.jpg","nope",1
10,1,0,3,1.2944,0.426,"11.04.17_10:42:18",23,3,189,1,6,5,5,"121.jpg","207.jpg","51.jpg","349.jpg","78.jpg","58.jpg","78.jpg","55.jpg",0
10,0,0,2,1.2032,0.3875,"11.04.17_10:42:24",23,3,190,2,6,5,6,"148.jpg","93.jpg","234.jpg","104.jpg","322.jpg","3.jpg","3.jpg","nope",1
10,1,1,4,0.9202,0.3855,"11.04.17_10:42:29",23,3,191,1,6,5,5,"238.jpg","280.jpg","105.jpg","190.jpg","185.jpg","214.jpg","185.jpg","268.jpg",1
10,1,1,4,0.5259,0.3855,"11.04.17_10:42:35",23,3,192,1,6,3,3,"328.jpg","197.jpg","108.jpg","127.jpg","8.jpg","380.jpg","108.jpg","67.jpg",1
10,0,0,2,1.6582,0.3553,"11.04.17_10:42:41",23,3,193,2,6,4,3,"191.jpg","313.jpg","62.jpg","190.jpg","206.jpg","151.jpg","62.jpg","nope",1
10,0,0,4,1.0011,0.3452,"11.04.17_10:42:47",23,3,194,1,6,2,2,"372.jpg","49.jpg","71.jpg","386.jpg","24.jpg","369.jpg","49.jpg","nope",1
10,0,0,3,1.7087,0.3856,"11.04.17_10:42:53",23,3,195,2,6,1,2,"120.jpg","330.jpg","104.jpg","27.jpg","209.jpg","183.jpg","330.jpg","nope",1
10,1,0,2,1.6987,0.6182,"11.04.17_10:43:00",23,3,196,2,6,2,1,"16.jpg","372.jpg","107.jpg","213.jpg","387.jpg","132.jpg","16.jpg","35.jpg",0
10,1,1,3,0.4653,0.8917,"11.04.17_10:43:06",23,3,197,1,6,3,3,"245.jpg","90.jpg","21.jpg","49.jpg","315.jpg","365.jpg","21.jpg","304.jpg",1
10,1,1,4,0.6876,0.4362,"11.04.17_10:43:11",23,3,198,1,6,1,1,"316.jpg","48.jpg","278.jpg","211.jpg","59.jpg","291.jpg","316.jpg","146.jpg",1
10,1,1,2,1.2748,0.4261,"11.04.17_10:43:18",23,3,199,3,6,3,1,"7.jpg","401.jpg","173.jpg","255.jpg","157.jpg","159.jpg","7.jpg","139.jpg",1
10,1,1,4,0.6472,0.3448,"11.04.17_10:43:23",23,3,200,1,6,6,6,"128.jpg","48.jpg","104.jpg","213.jpg","270.jpg","237.jpg","237.jpg","176.jpg",1
10,0,0,3,1.1224,0.4157,"11.04.17_10:43:29",23,3,201,2,6,4,5,"17.jpg","73.jpg","263.jpg","117.jpg","122.jpg","7.jpg","122.jpg","nope",1
10,1,0,2,1.6585,0.3448,"11.04.17_10:43:35",23,3,202,2,6,2,1,"184.jpg","261.jpg","149.jpg","212.jpg","298.jpg","214.jpg","184.jpg","377.jpg",0
10,1,1,3,1.2034,0.8207,"11.04.17_10:43:42",23,3,203,1,6,4,4,"399.jpg","106.jpg","147.jpg","296.jpg","344.jpg","104.jpg","296.jpg","62.jpg",1
10,1,0,2,2.4671,0.355,"11.04.17_10:43:49",23,3,204,1,6,5,5,"76.jpg","234.jpg","233.jpg","321.jpg","329.jpg","64.jpg","329.jpg","229.jpg",0
10,0,0,2,1.0011,0.345,"11.04.17_10:43:55",23,3,205,2,6,3,2,"372.jpg","111.jpg","274.jpg","278.jpg","231.jpg","42.jpg","111.jpg","nope",1
10,0,0,2,1.3448,0.3148,"11.04.17_10:44:01",23,3,206,2,6,6,1,"388.jpg","53.jpg","352.jpg","335.jpg","140.jpg","50.jpg","388.jpg","nope",1
10,0,0,3,1.2538,0.4667,"11.04.17_10:44:07",23,3,207,2,6,1,6,"212.jpg","374.jpg","30.jpg","379.jpg","362.jpg","396.jpg","396.jpg","nope",1
10,1,1,2,1.3449,0.4272,"11.04.17_10:44:13",23,3,208,1,6,3,3,"364.jpg","166.jpg","30.jpg","140.jpg","296.jpg","119.jpg","30.jpg","136.jpg",1
10,1,1,3,0.4956,1.3156,"11.04.17_10:44:20",23,3,209,1,6,5,5,"82.jpg","214.jpg","375.jpg","69.jpg","146.jpg","340.jpg","146.jpg","286.jpg",1
10,1,1,2,1.8002,0.3852,"11.04.17_10:44:26",23,3,210,2,6,4,3,"160.jpg","110.jpg","333.jpg","223.jpg","205.jpg","244.jpg","333.jpg","48.jpg",1
10,1,1,4,0.9606,0.4261,"11.04.17_10:44:32",23,3,211,2,6,2,3,"330.jpg","130.jpg","4.jpg","378.jpg","341.jpg","338.jpg","4.jpg","225.jpg",1
10,1,1,3,1.1325,0.5472,"11.04.17_10:44:38",23,3,212,3,6,6,3,"106.jpg","95.jpg","354.jpg","121.jpg","352.jpg","344.jpg","354.jpg","200.jpg",1
10,0,0,3,1.1426,0.3957,"11.04.17_10:44:44",23,3,213,3,6,5,3,"260.jpg","259.jpg","232.jpg","131.jpg","108.jpg","25.jpg","232.jpg","nope",1
10,1,0,2,1.3751,0.3148,"11.04.17_10:44:50",23,3,214,2,6,6,5,"242.jpg","362.jpg","322.jpg","111.jpg","66.jpg","60.jpg","66.jpg","145.jpg",0
10,1,1,2,2.0934,1.2149,"11.04.17_10:44:58",23,3,215,2,6,4,5,"223.jpg","173.jpg","143.jpg","36.jpg","140.jpg","1.jpg","140.jpg","313.jpg",1
10,0,1,2,5.1062,0.3858,"11.04.17_10:45:08",23,3,216,3,6,2,6,"251.jpg","160.jpg","127.jpg","95.jpg","331.jpg","275.jpg","275.jpg","nope",0
10,0,0,2,1.0315,0.3172,"11.04.17_10:45:14",23,3,217,1,6,5,5,"4.jpg","119.jpg","147.jpg","269.jpg","307.jpg","381.jpg","307.jpg","nope",1
10,0,0,3,1.4157,0.6183,"11.04.17_10:45:20",23,3,218,1,6,6,6,"280.jpg","103.jpg","145.jpg","170.jpg","122.jpg","323.jpg","323.jpg","nope",1
10,1,1,2,3.4785,0.77,"11.04.17_10:45:29",23,3,219,2,6,1,6,"300.jpg","205.jpg","243.jpg","88.jpg","338.jpg","39.jpg","39.jpg","169.jpg",1
10,1,0,2,2.5482,0.4665,"11.04.17_10:45:36",23,3,220,2,6,6,5,"6.jpg","318.jpg","144.jpg","278.jpg","359.jpg","303.jpg","359.jpg","18.jpg",0
10,0,1,2,1.8403,0.4259,"11.04.17_10:45:43",23,3,221,3,6,2,4,"119.jpg","145.jpg","22.jpg","171.jpg","303.jpg","271.jpg","171.jpg","nope",0
10,0,0,2,1.0415,0.5374,"11.04.17_10:45:49",23,3,222,1,6,6,6,"97.jpg","309.jpg","230.jpg","69.jpg","74.jpg","101.jpg","101.jpg","nope",1
10,1,1,2,0.7686,0.4261,"11.04.17_10:45:55",23,3,223,1,6,6,6,"94.jpg","351.jpg","173.jpg","371.jpg","397.jpg","233.jpg","233.jpg","41.jpg",1
10,1,0,2,1.7594,0.355,"11.04.17_10:46:01",23,3,224,2,6,4,3,"142.jpg","167.jpg","372.jpg","275.jpg","13.jpg","250.jpg","372.jpg","236.jpg",0
10,0,1,2,3.933,0.4667,"11.04.17_10:46:10",23,3,225,2,6,3,4,"346.jpg","178.jpg","56.jpg","150.jpg","349.jpg","304.jpg","150.jpg","nope",0
10,1,1,4,0.4957,0.3455,"11.04.17_10:46:15",23,3,226,1,6,6,6,"72.jpg","78.jpg","39.jpg","181.jpg","305.jpg","120.jpg","120.jpg","233.jpg",1
10,0,1,1,1.4257,0.4565,"11.04.17_10:46:22",23,3,227,2,6,5,4,"278.jpg","328.jpg","55.jpg","163.jpg","295.jpg","17.jpg","163.jpg","nope",0
10,1,1,2,0.4653,0.4563,"11.04.17_10:46:27",23,3,228,1,6,4,4,"316.jpg","393.jpg","366.jpg","102.jpg","245.jpg","230.jpg","102.jpg","358.jpg",1
10,0,0,3,1.0718,0.4662,"11.04.17_10:46:33",23,3,229,1,6,3,3,"352.jpg","229.jpg","357.jpg","72.jpg","295.jpg","289.jpg","357.jpg","nope",1
10,1,1,2,2.0019,1.2045,"11.04.17_10:46:41",23,3,230,3,6,6,3,"152.jpg","171.jpg","145.jpg","61.jpg","36.jpg","330.jpg","145.jpg","23.jpg",1
10,0,1,2,1.9214,0.3448,"11.04.17_10:46:47",23,3,231,2,6,3,2,"191.jpg","244.jpg","333.jpg","71.jpg","375.jpg","14.jpg","244.jpg","nope",0
10,0,0,3,1.9213,0.6588,"11.04.17_10:46:54",23,3,232,1,6,6,6,"66.jpg","361.jpg","247.jpg","103.jpg","39.jpg","149.jpg","149.jpg","nope",1
10,1,0,2,0.9505,0.5471,"11.04.17_10:47:00",23,3,233,1,6,4,4,"54.jpg","257.jpg","183.jpg","198.jpg","66.jpg","299.jpg","198.jpg","307.jpg",0
10,1,1,4,1.2239,0.426,"11.04.17_10:47:06",23,3,234,1,6,1,1,"45.jpg","169.jpg","355.jpg","331.jpg","346.jpg","225.jpg","45.jpg","122.jpg",1
10,0,0,2,1.3449,0.4259,"11.04.17_10:47:13",23,3,235,1,6,3,3,"123.jpg","145.jpg","112.jpg","148.jpg","67.jpg","388.jpg","112.jpg","nope",1
10,1,1,3,0.5664,0.6585,"11.04.17_10:47:18",23,3,236,1,6,3,3,"291.jpg","136.jpg","325.jpg","349.jpg","131.jpg","385.jpg","325.jpg","187.jpg",1
10,0,0,2,3.2763,0.355,"11.04.17_10:47:26",23,3,237,2,6,3,2,"357.jpg","346.jpg","97.jpg","302.jpg","201.jpg","269.jpg","346.jpg","nope",1
10,1,1,4,1.2235,0.3853,"11.04.17_10:47:32",23,3,238,1,6,1,1,"287.jpg","294.jpg","107.jpg","86.jpg","22.jpg","102.jpg","287.jpg","51.jpg",1
10,0,0,2,1.6684,0.355,"11.04.17_10:47:39",23,3,239,3,6,4,6,"6.jpg","373.jpg","192.jpg","156.jpg","202.jpg","152.jpg","152.jpg","nope",1
10,0,1,2,1.9215,0.6175,"11.04.17_10:47:46",23,3,240,2,6,2,3,"207.jpg","232.jpg","118.jpg","69.jpg","126.jpg","271.jpg","118.jpg","nope",0
10,0,0,2,1.4056,2.2047,"11.04.17_10:47:54",23,3,241,3,6,4,1,"164.jpg","238.jpg","251.jpg","247.jpg","146.jpg","333.jpg","164.jpg","nope",1
10,0,0,2,1.7998,0.8509,"11.04.17_10:48:01",23,3,242,1,6,4,4,"378.jpg","340.jpg","27.jpg","135.jpg","177.jpg","222.jpg","135.jpg","nope",1
10,1,0,3,0.809,0.3451,"11.04.17_10:48:07",23,3,243,1,6,2,2,"110.jpg","267.jpg","218.jpg","393.jpg","12.jpg","70.jpg","267.jpg","352.jpg",0
10,0,0,2,1.4964,0.4257,"11.04.17_10:48:13",23,3,244,2,6,6,1,"175.jpg","271.jpg","57.jpg","361.jpg","182.jpg","366.jpg","175.jpg","nope",1
10,1,1,4,0.5866,0.3856,"11.04.17_10:48:18",23,3,245,1,6,1,1,"29.jpg","250.jpg","361.jpg","310.jpg","171.jpg","116.jpg","29.jpg","100.jpg",1
10,1,0,2,1.1933,1.346,"11.04.17_10:48:25",23,3,246,3,6,5,3,"258.jpg","289.jpg","254.jpg","219.jpg","147.jpg","265.jpg","254.jpg","172.jpg",0
10,1,1,3,1.2134,0.5776,"11.04.17_10:48:32",23,3,247,2,6,1,6,"231.jpg","90.jpg","305.jpg","301.jpg","112.jpg","32.jpg","32.jpg","306.jpg",1
10,1,0,2,2.3256,0.355,"11.04.17_10:48:39",23,3,248,2,6,3,2,"310.jpg","178.jpg","231.jpg","163.jpg","271.jpg","392.jpg","178.jpg","182.jpg",0
10,0,0,3,0.4552,0.3047,"11.04.17_10:48:44",23,3,249,1,6,5,5,"368.jpg","123.jpg","183.jpg","379.jpg","338.jpg","82.jpg","338.jpg","nope",1
10,1,0,2,1.2337,0.3851,"11.04.17_10:48:50",23,3,250,2,6,5,4,"323.jpg","89.jpg","40.jpg","52.jpg","225.jpg","120.jpg","52.jpg","325.jpg",0
10,1,1,4,0.7285,0.3853,"11.04.17_10:48:56",23,3,251,1,6,4,4,"383.jpg","294.jpg","298.jpg","367.jpg","143.jpg","302.jpg","367.jpg","369.jpg",1
10,0,0,2,0.6169,0.3451,"11.04.17_10:49:01",23,3,252,1,6,3,3,"197.jpg","179.jpg","248.jpg","234.jpg","48.jpg","174.jpg","248.jpg","nope",1
10,0,0,4,0.9202,4.3786,"11.04.17_10:49:11",23,3,253,1,6,1,1,"327.jpg","188.jpg","245.jpg","68.jpg","310.jpg","220.jpg","327.jpg","nope",1
10,0,0,2,2.4775,0.5771,"11.04.17_10:49:18",23,3,254,3,6,4,2,"175.jpg","18.jpg","142.jpg","97.jpg","132.jpg","328.jpg","18.jpg","nope",1
10,0,0,2,1.264,0.355,"11.04.17_10:49:24",23,3,255,2,6,3,4,"8.jpg","291.jpg","12.jpg","97.jpg","56.jpg","339.jpg","97.jpg","nope",1
10,1,0,3,2.6187,0.3451,"11.04.17_10:49:32",23,3,256,3,6,5,1,"33.jpg","40.jpg","226.jpg","122.jpg","23.jpg","227.jpg","33.jpg","207.jpg",0
10,1,0,2,1.4257,0.4659,"11.04.17_10:49:38",23,3,257,2,6,1,6,"17.jpg","79.jpg","356.jpg","198.jpg","186.jpg","250.jpg","250.jpg","328.jpg",0
10,0,0,2,1.2134,0.2435,"11.04.17_10:49:44",23,3,258,3,6,4,6,"261.jpg","216.jpg","281.jpg","28.jpg","359.jpg","64.jpg","64.jpg","nope",1
10,0,0,2,2.2345,0.6181,"11.04.17_10:49:51",23,3,259,2,6,4,3,"59.jpg","24.jpg","48.jpg","221.jpg","71.jpg","1.jpg","48.jpg","nope",1
10,0,1,2,1.5788,0.8306,"11.04.17_10:49:58",23,3,260,2,6,4,3,"276.jpg","100.jpg","273.jpg","327.jpg","190.jpg","278.jpg","273.jpg","nope",0
10,1,1,3,2.3056,2.3174,"11.04.17_10:50:07",23,3,261,1,6,6,6,"201.jpg","289.jpg","118.jpg","398.jpg","196.jpg","210.jpg","210.jpg","163.jpg",1
10,1,0,2,1.4056,0.3853,"11.04.17_10:50:13",23,3,262,2,6,6,1,"138.jpg","198.jpg","362.jpg","226.jpg","269.jpg","265.jpg","138.jpg","356.jpg",0
10,1,0,2,1.1528,0.8908,"11.04.17_10:50:20",23,3,263,1,6,5,5,"180.jpg","194.jpg","229.jpg","313.jpg","290.jpg","312.jpg","290.jpg","74.jpg",0
10,1,0,2,2.4676,0.8506,"11.04.17_10:50:28",23,3,264,2,6,3,4,"3.jpg","387.jpg","254.jpg","70.jpg","22.jpg","94.jpg","70.jpg","252.jpg",0
10,1,0,2,1.1932,0.4961,"11.04.17_10:50:34",23,3,265,2,6,2,3,"275.jpg","372.jpg","61.jpg","355.jpg","363.jpg","40.jpg","61.jpg","125.jpg",0
10,0,0,4,2.2749,0.497,"11.04.17_10:50:41",23,3,266,1,6,1,1,"47.jpg","156.jpg","297.jpg","218.jpg","148.jpg","380.jpg","47.jpg","nope",1
10,1,0,2,3.013,1.1172,"11.04.17_10:50:49",23,3,267,3,6,6,3,"140.jpg","382.jpg","390.jpg","69.jpg","208.jpg","266.jpg","390.jpg","37.jpg",0
10,1,1,2,2.2753,0.8506,"11.04.17_10:50:57",23,3,268,2,6,1,2,"48.jpg","2.jpg","92.jpg","120.jpg","366.jpg","258.jpg","2.jpg","266.jpg",1
10,0,0,2,8.736,1.7001,"11.04.17_10:51:12",23,3,269,1,6,4,4,"253.jpg","368.jpg","266.jpg","336.jpg","237.jpg","75.jpg","336.jpg","nope",1
10,1,1,4,0.8798,1.4676,"11.04.17_10:51:19",23,3,270,1,6,1,1,"385.jpg","163.jpg","226.jpg","59.jpg","400.jpg","51.jpg","385.jpg","11.jpg",1
10,1,1,2,1.0617,1.2455,"11.04.17_10:52:01",23,4,271,1,6,3,3,"209.jpg","69.jpg","302.jpg","162.jpg","59.jpg","385.jpg","302.jpg","258.jpg",1
10,0,0,2,1.6481,1.0022,"11.04.17_10:52:08",23,4,272,1,6,1,1,"123.jpg","192.jpg","122.jpg","345.jpg","377.jpg","347.jpg","123.jpg","nope",1
10,1,1,2,2.002,2.2462,"11.04.17_10:52:17",23,4,273,2,6,3,2,"67.jpg","364.jpg","372.jpg","64.jpg","246.jpg","288.jpg","364.jpg","87.jpg",1
10,1,1,4,1.3853,0.4663,"11.04.17_10:52:23",23,4,274,1,6,6,6,"106.jpg","258.jpg","367.jpg","112.jpg","35.jpg","260.jpg","260.jpg","183.jpg",1
10,0,0,3,1.9109,0.6586,"11.04.17_10:52:30",23,4,275,2,6,6,1,"99.jpg","180.jpg","350.jpg","159.jpg","241.jpg","239.jpg","99.jpg","nope",1
10,0,1,2,0.9105,1.2346,"11.04.17_10:52:37",23,4,276,1,6,2,2,"350.jpg","293.jpg","168.jpg","52.jpg","329.jpg","2.jpg","293.jpg","nope",0
10,0,0,2,1.4661,3.3678,"11.04.17_10:52:46",23,4,277,2,6,5,4,"46.jpg","306.jpg","257.jpg","360.jpg","350.jpg","156.jpg","360.jpg","nope",1
10,1,1,3,1.8806,2.5188,"11.04.17_10:52:55",23,4,278,3,6,3,6,"302.jpg","370.jpg","117.jpg","274.jpg","28.jpg","156.jpg","156.jpg","72.jpg",1
10,0,0,3,0.991,1.6593,"11.04.17_10:53:02",23,4,279,1,6,4,4,"24.jpg","376.jpg","149.jpg","300.jpg","305.jpg","185.jpg","300.jpg","nope",1
10,0,0,3,1.2741,0.8502,"11.04.17_10:53:09",23,4,280,2,6,1,6,"314.jpg","189.jpg","83.jpg","352.jpg","338.jpg","313.jpg","313.jpg","nope",1
10,0,0,2,2.225,0.5063,"11.04.17_10:53:16",23,4,281,1,6,6,6,"368.jpg","71.jpg","25.jpg","174.jpg","308.jpg","386.jpg","386.jpg","nope",1
10,1,1,4,0.8798,0.3044,"11.04.17_10:53:22",23,4,282,1,6,1,1,"256.jpg","131.jpg","53.jpg","5.jpg","225.jpg","361.jpg","256.jpg","337.jpg",1
10,1,0,2,1.3348,0.3148,"11.04.17_10:53:28",23,4,283,1,6,2,2,"276.jpg","153.jpg","59.jpg","236.jpg","309.jpg","373.jpg","153.jpg","329.jpg",0
10,0,0,2,1.8907,0.6481,"11.04.17_10:53:35",23,4,284,1,6,6,6,"244.jpg","141.jpg","2.jpg","330.jpg","17.jpg","229.jpg","229.jpg","nope",1
10,1,1,2,3.6701,0.3852,"11.04.17_10:53:43",23,4,285,2,6,4,5,"151.jpg","224.jpg","57.jpg","212.jpg","91.jpg","18.jpg","91.jpg","263.jpg",1
10,1,0,2,1.6481,0.3448,"11.04.17_10:53:50",23,4,286,3,6,4,6,"222.jpg","131.jpg","347.jpg","185.jpg","4.jpg","54.jpg","54.jpg","95.jpg",0
10,1,1,1,1.6485,0.8503,"11.04.17_10:53:57",23,4,287,2,6,4,5,"302.jpg","117.jpg","250.jpg","271.jpg","195.jpg","2.jpg","195.jpg","348.jpg",1
10,0,0,2,1.0719,0.5773,"11.04.17_10:54:03",23,4,288,2,6,5,6,"29.jpg","204.jpg","376.jpg","107.jpg","118.jpg","361.jpg","361.jpg","nope",1
10,0,0,3,1.0719,0.6178,"11.04.17_10:54:09",23,4,289,1,6,6,6,"180.jpg","194.jpg","128.jpg","235.jpg","336.jpg","117.jpg","117.jpg","nope",1
10,1,1,4,0.7989,0.8502,"11.04.17_10:54:15",23,4,290,1,6,6,6,"346.jpg","210.jpg","194.jpg","375.jpg","244.jpg","322.jpg","322.jpg","101.jpg",1
10,1,1,2,0.6675,0.3453,"11.04.17_10:54:20",23,4,291,1,6,3,3,"133.jpg","345.jpg","35.jpg","182.jpg","381.jpg","395.jpg","35.jpg","285.jpg",1
10,1,1,4,1.4675,0.8811,"11.04.17_10:54:27",23,4,292,2,6,2,3,"84.jpg","377.jpg","369.jpg","22.jpg","334.jpg","45.jpg","369.jpg","228.jpg",1
10,1,1,2,2.7604,0.7703,"11.04.17_10:54:35",23,4,293,2,6,2,3,"249.jpg","309.jpg","209.jpg","216.jpg","123.jpg","313.jpg","209.jpg","214.jpg",1
10,0,0,2,5.7935,0.3856,"11.04.17_10:54:46",23,4,294,3,6,3,1,"19.jpg","80.jpg","336.jpg","141.jpg","63.jpg","90.jpg","19.jpg","nope",1
10,0,0,2,1.0314,0.4257,"11.04.17_10:54:52",23,4,295,2,6,3,2,"260.jpg","133.jpg","27.jpg","139.jpg","291.jpg","299.jpg","133.jpg","nope",1
10,0,0,3,1.3853,0.3858,"11.04.17_10:54:58",23,4,296,1,6,2,2,"123.jpg","170.jpg","154.jpg","127.jpg","221.jpg","200.jpg","170.jpg","nope",1
10,1,1,1,3.4279,0.6384,"11.04.17_10:55:06",23,4,297,3,6,6,2,"374.jpg","181.jpg","190.jpg","138.jpg","259.jpg","168.jpg","181.jpg","173.jpg",1
10,0,1,2,0.5259,0.6181,"11.04.17_10:55:12",23,4,298,1,6,5,5,"110.jpg","261.jpg","111.jpg","197.jpg","395.jpg","364.jpg","395.jpg","nope",0
10,0,1,2,1.6584,0.3451,"11.04.17_10:55:18",23,4,299,3,6,4,6,"202.jpg","9.jpg","336.jpg","142.jpg","382.jpg","131.jpg","131.jpg","nope",0
10,0,0,3,1.3449,0.6486,"11.04.17_10:55:25",23,4,300,1,6,2,2,"352.jpg","355.jpg","387.jpg","282.jpg","252.jpg","166.jpg","355.jpg","nope",1
10,0,0,3,0.809,0.4967,"11.04.17_10:55:31",23,4,301,1,6,5,5,"141.jpg","206.jpg","298.jpg","222.jpg","362.jpg","37.jpg","362.jpg","nope",1
10,0,0,2,2.508,0.9615,"11.04.17_10:55:38",23,4,302,2,6,6,1,"297.jpg","219.jpg","260.jpg","26.jpg","288.jpg","380.jpg","297.jpg","nope",1
10,1,1,2,2.0424,0.4162,"11.04.17_10:55:45",23,4,303,1,6,6,6,"349.jpg","184.jpg","100.jpg","120.jpg","111.jpg","67.jpg","67.jpg","323.jpg",1
10,1,0,2,0.809,0.4257,"11.04.17_10:55:51",23,4,304,1,6,5,5,"54.jpg","10.jpg","304.jpg","86.jpg","271.jpg","160.jpg","271.jpg","246.jpg",0
10,1,1,2,1.7293,0.3861,"11.04.17_10:55:58",23,4,305,2,6,3,2,"305.jpg","85.jpg","279.jpg","344.jpg","242.jpg","180.jpg","85.jpg","162.jpg",1
10,1,1,4,0.5059,0.3145,"11.04.17_10:56:03",23,4,306,1,6,1,1,"349.jpg","324.jpg","377.jpg","378.jpg","208.jpg","300.jpg","349.jpg","24.jpg",1
10,1,0,2,1.8402,0.4257,"11.04.17_10:56:10",23,4,307,2,6,4,3,"43.jpg","200.jpg","384.jpg","6.jpg","387.jpg","226.jpg","384.jpg","351.jpg",0
10,1,1,2,0.8697,0.6184,"11.04.17_10:56:16",23,4,308,1,6,6,6,"2.jpg","73.jpg","198.jpg","391.jpg","80.jpg","352.jpg","352.jpg","292.jpg",1
10,0,0,2,1.1831,0.3448,"11.04.17_10:56:21",23,4,309,2,6,3,4,"391.jpg","158.jpg","114.jpg","179.jpg","181.jpg","39.jpg","179.jpg","nope",1
10,1,1,4,0.4552,0.3855,"11.04.17_10:56:27",23,4,310,1,6,1,1,"116.jpg","93.jpg","22.jpg","21.jpg","109.jpg","146.jpg","116.jpg","346.jpg",1
10,1,1,2,2.2649,0.6183,"11.04.17_10:56:34",23,4,311,2,6,6,1,"176.jpg","82.jpg","28.jpg","280.jpg","395.jpg","147.jpg","176.jpg","47.jpg",1
10,1,0,2,1.3751,0.4873,"11.04.17_10:56:40",23,4,312,2,6,4,3,"68.jpg","321.jpg","285.jpg","86.jpg","361.jpg","149.jpg","285.jpg","190.jpg",0
10,1,1,2,0.9511,0.4258,"11.04.17_10:56:46",23,4,313,1,6,4,4,"175.jpg","337.jpg","65.jpg","397.jpg","346.jpg","289.jpg","397.jpg","165.jpg",1
10,1,0,3,1.8504,0.5779,"11.04.17_10:56:53",23,4,314,2,6,2,1,"203.jpg","232.jpg","235.jpg","254.jpg","329.jpg","35.jpg","203.jpg","320.jpg",0
10,0,1,2,4.1756,0.4158,"11.04.17_10:57:02",23,4,315,2,6,6,1,"391.jpg","21.jpg","240.jpg","78.jpg","310.jpg","64.jpg","391.jpg","nope",0
10,1,0,2,1.729,0.3449,"11.04.17_10:57:09",23,4,316,2,6,1,6,"130.jpg","295.jpg","300.jpg","123.jpg","327.jpg","89.jpg","89.jpg","117.jpg",0
10,1,1,2,2.8617,0.3043,"11.04.17_10:57:16",23,4,317,3,6,4,2,"84.jpg","15.jpg","200.jpg","108.jpg","339.jpg","351.jpg","15.jpg","27.jpg",1
10,0,0,2,2.0424,0.2642,"11.04.17_10:57:23",23,4,318,2,6,1,2,"120.jpg","303.jpg","384.jpg","310.jpg","46.jpg","336.jpg","303.jpg","nope",1
10,1,0,2,1.3854,0.3043,"11.04.17_10:57:29",23,4,319,2,6,4,3,"54.jpg","337.jpg","240.jpg","139.jpg","300.jpg","265.jpg","240.jpg","281.jpg",0
10,0,0,3,1.4965,0.5375,"11.04.17_10:57:36",23,4,320,1,6,4,4,"383.jpg","184.jpg","194.jpg","230.jpg","92.jpg","204.jpg","230.jpg","nope",1
10,0,0,2,1.264,0.3853,"11.04.17_10:57:42",23,4,321,2,6,3,2,"296.jpg","60.jpg","141.jpg","133.jpg","338.jpg","394.jpg","60.jpg","nope",1
10,1,1,2,1.1488,1.175,"11.04.17_10:57:48",23,4,322,2,6,1,2,"200.jpg","162.jpg","387.jpg","122.jpg","342.jpg","208.jpg","162.jpg","52.jpg",1
10,1,1,2,1.2252,0.429,"11.04.17_10:57:55",23,4,323,2,6,3,2,"60.jpg","310.jpg","195.jpg","71.jpg","356.jpg","128.jpg","310.jpg","324.jpg",1
10,0,0,2,1.7487,0.3247,"11.04.17_10:58:01",23,4,324,2,6,1,6,"159.jpg","351.jpg","77.jpg","195.jpg","141.jpg","25.jpg","25.jpg","nope",1
10,0,0,2,1.9349,0.5068,"11.04.17_10:58:08",23,4,325,1,6,1,1,"295.jpg","68.jpg","371.jpg","96.jpg","167.jpg","254.jpg","295.jpg","nope",1
10,1,1,4,0.7383,0.4661,"11.04.17_10:58:14",23,4,326,1,6,4,4,"229.jpg","356.jpg","364.jpg","20.jpg","360.jpg","22.jpg","20.jpg","40.jpg",1
10,1,0,2,1.618,0.6583,"11.04.17_10:58:20",23,4,327,2,6,4,5,"294.jpg","361.jpg","305.jpg","90.jpg","50.jpg","211.jpg","50.jpg","201.jpg",0
10,1,0,2,1.2948,0.3149,"11.04.17_10:58:26",23,4,328,2,6,5,6,"291.jpg","332.jpg","215.jpg","10.jpg","269.jpg","74.jpg","74.jpg","227.jpg",0
10,1,1,2,0.4451,0.5371,"11.04.17_10:58:32",23,4,329,1,6,4,4,"50.jpg","198.jpg","331.jpg","224.jpg","145.jpg","76.jpg","224.jpg","128.jpg",1
10,1,0,2,0.8293,0.3548,"11.04.17_10:58:37",23,4,330,2,6,2,3,"113.jpg","260.jpg","43.jpg","340.jpg","191.jpg","78.jpg","43.jpg","30.jpg",0
10,1,1,2,1.1527,0.3854,"11.04.17_10:58:43",23,4,331,2,6,4,3,"1.jpg","237.jpg","202.jpg","262.jpg","35.jpg","360.jpg","202.jpg","271.jpg",1
10,1,0,2,1.8908,0.6989,"11.04.17_10:58:50",23,4,332,2,6,6,5,"304.jpg","40.jpg","186.jpg","255.jpg","160.jpg","38.jpg","160.jpg","360.jpg",0
10,1,1,4,0.668,0.3552,"11.04.17_10:58:56",23,4,333,1,6,1,1,"251.jpg","123.jpg","189.jpg","392.jpg","282.jpg","208.jpg","251.jpg","382.jpg",1
10,1,1,4,1.9615,0.618,"11.04.17_10:59:03",23,4,334,3,6,6,4,"284.jpg","383.jpg","242.jpg","380.jpg","39.jpg","335.jpg","380.jpg","188.jpg",1
10,1,1,4,0.4551,0.3451,"11.04.17_10:59:08",23,4,335,1,6,1,1,"265.jpg","46.jpg","87.jpg","219.jpg","301.jpg","23.jpg","265.jpg","6.jpg",1
10,1,0,2,3.5695,1.1236,"11.04.17_10:59:17",23,4,336,2,6,5,6,"148.jpg","182.jpg","271.jpg","46.jpg","367.jpg","208.jpg","208.jpg","290.jpg",0
10,0,0,4,1.1229,0.4161,"11.04.17_10:59:23",23,4,337,1,6,1,1,"368.jpg","124.jpg","327.jpg","245.jpg","375.jpg","179.jpg","368.jpg","nope",1
10,1,1,4,0.4249,0.3553,"11.04.17_10:59:28",23,4,338,1,6,1,1,"90.jpg","308.jpg","73.jpg","151.jpg","378.jpg","115.jpg","90.jpg","288.jpg",1
10,0,0,4,1.8099,1.246,"11.04.17_10:59:36",23,4,339,2,6,2,1,"174.jpg","240.jpg","35.jpg","48.jpg","99.jpg","278.jpg","174.jpg","nope",1
10,0,1,2,1.264,1.9736,"11.04.17_10:59:44",23,4,340,1,6,2,2,"169.jpg","324.jpg","210.jpg","68.jpg","43.jpg","248.jpg","324.jpg","nope",0
10,0,0,2,3.1443,0.4257,"11.04.17_10:59:52",23,4,341,2,6,1,2,"322.jpg","399.jpg","18.jpg","101.jpg","160.jpg","152.jpg","399.jpg","nope",1
10,0,0,3,1.1124,0.6586,"11.04.17_10:59:58",23,4,342,1,6,3,3,"372.jpg","291.jpg","68.jpg","155.jpg","302.jpg","355.jpg","68.jpg","nope",1
10,0,0,2,1.7391,0.7392,"11.04.17_11:00:05",23,4,343,1,6,2,2,"95.jpg","243.jpg","205.jpg","217.jpg","334.jpg","223.jpg","243.jpg","nope",1
10,0,0,2,0.5765,0.3549,"11.04.17_11:00:10",23,4,344,1,6,5,5,"199.jpg","210.jpg","10.jpg","397.jpg","57.jpg","149.jpg","57.jpg","nope",1
10,0,0,4,2.326,0.8105,"11.04.17_11:00:18",23,4,345,2,6,3,4,"117.jpg","280.jpg","91.jpg","339.jpg","336.jpg","4.jpg","339.jpg","nope",1
10,0,0,2,2.8211,0.4674,"11.04.17_11:00:25",23,4,346,2,6,1,2,"378.jpg","186.jpg","239.jpg","384.jpg","259.jpg","345.jpg","186.jpg","nope",1
10,0,0,2,1.0011,0.8202,"11.04.17_11:00:32",23,4,347,2,6,1,6,"30.jpg","90.jpg","358.jpg","321.jpg","272.jpg","231.jpg","231.jpg","nope",1
10,1,1,2,0.6776,0.3148,"11.04.17_11:00:37",23,4,348,1,6,2,2,"17.jpg","177.jpg","198.jpg","43.jpg","334.jpg","264.jpg","177.jpg","217.jpg",1
10,1,0,2,1.7189,0.5066,"11.04.17_11:00:44",23,4,349,2,6,1,6,"49.jpg","315.jpg","295.jpg","210.jpg","188.jpg","189.jpg","189.jpg","130.jpg",0
10,1,1,3,0.6169,0.4159,"11.04.17_11:00:49",23,4,350,1,6,4,4,"368.jpg","152.jpg","250.jpg","387.jpg","396.jpg","45.jpg","387.jpg","58.jpg",1
10,0,0,3,0.9707,0.8207,"11.04.17_11:00:55",23,4,351,1,6,6,6,"116.jpg","89.jpg","166.jpg","222.jpg","149.jpg","113.jpg","113.jpg","nope",1
10,0,0,2,1.8098,0.355,"11.04.17_11:01:02",23,4,352,2,6,4,3,"96.jpg","371.jpg","227.jpg","392.jpg","256.jpg","365.jpg","227.jpg","nope",1
10,0,0,3,2.1637,1.0831,"11.04.17_11:01:10",23,4,353,2,6,2,3,"365.jpg","317.jpg","264.jpg","334.jpg","91.jpg","80.jpg","264.jpg","nope",1
10,1,1,2,1.7092,0.426,"11.04.17_11:01:16",23,4,354,2,6,5,4,"364.jpg","260.jpg","320.jpg","205.jpg","352.jpg","204.jpg","205.jpg","19.jpg",1
10,0,0,2,1.9211,0.3145,"11.04.17_11:01:23",23,4,355,2,6,1,2,"220.jpg","215.jpg","96.jpg","386.jpg","121.jpg","168.jpg","215.jpg","nope",1
10,1,1,2,0.809,0.3154,"11.04.17_11:01:28",23,4,356,1,6,6,6,"106.jpg","266.jpg","153.jpg","288.jpg","335.jpg","87.jpg","87.jpg","367.jpg",1
10,0,0,2,1.3954,0.3855,"11.04.17_11:01:35",23,4,357,2,6,5,6,"12.jpg","322.jpg","104.jpg","113.jpg","333.jpg","151.jpg","151.jpg","nope",1
10,0,0,2,1.2842,0.6085,"11.04.17_11:01:41",23,4,358,3,6,1,4,"161.jpg","339.jpg","350.jpg","288.jpg","225.jpg","356.jpg","288.jpg","nope",1
10,0,0,2,0.7795,0.3864,"11.04.17_11:01:47",23,4,359,1,6,5,5,"119.jpg","228.jpg","324.jpg","33.jpg","289.jpg","379.jpg","289.jpg","nope",1
10,0,0,3,2.0517,0.438,"11.04.17_11:01:53",23,4,360,2,6,5,4,"4.jpg","131.jpg","26.jpg","86.jpg","342.jpg","238.jpg","86.jpg","nope",1
11,0,0,1,0.9607,0.6685,"11.04.17_17:13:01",19,1,1,1,6,5,5,"247.jpg","5.jpg","291.jpg","27.jpg","304.jpg","8.jpg","304.jpg","nope",1
11,0,0,1,2.0725,0.8204,"11.04.17_17:13:09",19,1,2,2,6,3,2,"159.jpg","64.jpg","104.jpg","298.jpg","34.jpg","12.jpg","64.jpg","nope",1
11,1,0,1,5.52,1.2956,"11.04.17_17:13:20",19,1,3,3,6,4,6,"346.jpg","43.jpg","301.jpg","135.jpg","241.jpg","65.jpg","65.jpg","117.jpg",0
11,0,0,1,5.4495,1.6494,"11.04.17_17:13:32",19,1,4,3,6,3,6,"191.jpg","248.jpg","355.jpg","359.jpg","68.jpg","311.jpg","311.jpg","nope",1
11,0,0,1,3.1951,1.1028,"11.04.17_17:13:41",19,1,5,2,6,4,5,"34.jpg","13.jpg","370.jpg","190.jpg","251.jpg","317.jpg","251.jpg","nope",1
