Subj_idx,Stimulus,Response,Confidence,RT_decConf,NoiseLevel_Deg,Trial,Accuracy,WedgeClicked,MouseClick_x,MouseClick_y,FlippedWheel,AQ,Age,Sex
1,2,1,3,0.59218,6.2748,1,0,3,755,456,0,16,19,0
1,2,2,3,0.63392,10.604,2,1,6,1144,539,0,16,19,0
1,1,1,4,0.53306,3.7129,3,1,4,862,408,0,16,19,0
1,2,2,4,0.35192,3.7129,4,1,5,1185,406,0,16,19,0
1,2,1,4,0.61972,17.922,5,0,4,726,390,0,16,19,0
1,2,1,3,0.67136,6.2748,6,0,3,743,527,0,16,19,0
1,2,2,3,0.34703,0,7,1,6,1118,508,0,16,19,0
1,2,2,3,0.5383,30.288,8,1,6,1052,503,0,16,19,0
1,2,2,3,0.92997,2.197,9,1,6,1105,510,0,16,19,0
1,1,1,3,0.48708,30.288,10,1,3,746,452,0,16,19,0
1,2,1,2,0.74808,30.288,11,0,2,826,555,0,16,19,0
1,2,1,3,0.39347,6.2748,12,0,3,864,518,0,16,19,0
1,1,2,3,0.46386,0,13,0,6,1104,523,0,16,19,0
1,1,1,3,0.39918,3.7129,14,1,3,825,518,0,16,19,0
1,2,2,3,0.43051,0,15,1,6,1184,499,0,16,19,0
1,1,1,4,0.44834,6.2748,16,1,4,814,335,0,16,19,0
1,1,1,3,0.59446,6.2748,17,1,3,746,509,0,16,19,0
1,1,1,2,0.29787,2.197,18,1,2,838,550,0,16,19,0
1,2,1,2,0.4691,17.922,19,0,2,708,562,0,16,19,0
1,2,1,4,0.22991,0,20,0,4,914,491,0,16,19,0
1,2,2,3,0.92384,17.922,21,1,6,1206,496,0,16,19,0
1,1,1,3,0.41396,17.922,22,1,3,751,519,0,16,19,0
1,1,2,1,3.2504,51.186,23,0,8,1093,723,0,16,19,0
1,1,1,3,0.49301,6.2748,24,1,3,745,472,0,16,19,0
1,2,2,3,0.46332,2.197,25,1,6,1091,503,0,16,19,0
1,1,1,3,0.44614,10.604,26,1,3,830,493,0,16,19,0
1,2,1,3,0.45059,3.7129,27,0,3,802,526,0,16,19,0
1,1,1,3,0.35807,6.2748,28,1,3,863,538,0,16,19,0
1,1,1,3,0.52179,3.7129,29,1,3,704,476,0,16,19,0
1,1,1,3,0.78924,3.7129,30,1,3,778,507,0,16,19,0
1,1,1,3,0.55388,6.2748,31,1,3,851,491,0,16,19,0
1,2,1,3,0.57324,51.186,32,0,3,877,531,0,16,19,0
1,1,2,3,0.28423,6.2748,33,0,6,1108,490,0,16,19,0
1,2,2,2,0.73894,51.186,34,1,7,1128,610,0,16,19,0
1,1,1,3,0.37992,3.7129,35,1,3,695,486,0,16,19,0
1,2,2,3,0.48438,2.197,36,1,6,1095,474,0,16,19,0
1,2,2,1,0.36626,10.604,37,1,8,1129,690,0,16,19,0
1,2,2,1,0.95964,6.2748,38,1,8,1095,683,0,16,19,0
1,1,1,3,0.50144,3.7129,39,1,3,808,489,0,16,19,0
1,1,1,2,0.42373,3.7129,40,1,2,789,619,0,16,19,0
1,2,2,3,0.87213,6.2748,41,1,6,1219,493,0,16,19,0
1,2,1,3,0.65497,0,42,0,3,860,512,0,16,19,0
1,2,2,3,0.34715,17.922,43,1,6,1218,494,0,16,19,0
1,2,1,3,0.44262,0,44,0,3,745,522,0,16,19,0
1,1,1,1,0.53011,10.604,45,1,1,873,641,0,16,19,0
1,1,1,1,0.64685,30.288,46,1,1,815,688,0,16,19,0
1,1,1,3,0.50316,2.197,47,1,3,818,493,0,16,19,0
1,1,2,3,0.38566,51.186,48,0,6,1103,503,0,16,19,0
1,2,2,3,1.2094,30.288,49,1,6,1089,522,0,16,19,0
1,1,2,2,0.33032,0,50,0,7,1039,580,0,16,19,0
1,2,2,2,0.31734,6.2748,51,1,7,1032,562,0,16,19,0
1,1,1,2,0.32403,0,52,1,2,823,574,0,16,19,0
1,1,1,4,0.33436,51.186,53,1,4,838,464,0,16,19,0
1,1,1,4,0.47883,3.7129,54,1,4,881,456,0,16,19,0
1,1,2,3,0.35512,2.197,55,0,6,1185,497,0,16,19,0
1,1,2,3,0.76032,10.604,56,0,6,1026,525,0,16,19,0
1,2,2,2,0.50938,30.288,57,1,7,1071,569,0,16,19,0
1,2,2,3,0.42799,3.7129,58,1,6,1107,496,0,16,19,0
1,2,2,3,0.67517,6.2748,59,1,6,1021,522,0,16,19,0
1,1,1,3,0.31216,17.922,60,1,3,884,522,0,16,19,0
1,1,1,1,0.37413,2.197,61,1,1,838,634,0,16,19,0
1,1,1,1,0.38545,17.922,62,1,1,860,613,0,16,19,0
1,2,1,1,0.57815,2.197,63,0,1,903,604,0,16,19,0
1,2,2,3,0.71418,0,64,1,6,1238,489,0,16,19,0
1,2,2,1,0.4729,30.288,65,1,8,1025,620,0,16,19,0
1,1,2,2,0.58525,2.197,66,0,7,1124,594,0,16,19,0
1,2,2,2,0.47389,30.288,67,1,7,1188,570,0,16,19,0
1,1,2,3,0.69586,6.2748,68,0,6,1133,529,0,16,19,0
1,2,2,2,0.34665,51.186,69,1,7,1039,542,0,16,19,0
1,2,2,2,0.42136,30.288,70,1,7,1088,542,0,16,19,0
1,2,1,2,0.69064,51.186,71,0,2,830,553,0,16,19,0
1,1,1,2,0.64505,10.604,72,1,2,769,612,0,16,19,0
1,2,2,3,0.76979,10.604,73,1,6,1201,533,0,16,19,0
1,1,2,2,0.91734,51.186,74,0,7,1230,614,0,16,19,0
1,2,2,3,0.43012,51.186,75,1,6,1103,510,0,16,19,0
1,2,2,3,0.55512,6.2748,76,1,6,1030,523,0,16,19,0
1,2,1,3,0.58051,0,77,0,3,760,490,0,16,19,0
1,1,1,2,0.5884,17.922,78,1,2,779,544,0,16,19,0
1,1,1,3,0.69621,17.922,79,1,3,896,524,0,16,19,0
1,1,2,3,0.47759,6.2748,80,0,6,1143,530,0,16,19,0
1,2,2,2,0.48696,51.186,81,1,7,1053,570,0,16,19,0
1,2,1,3,0.57698,51.186,82,0,3,815,530,0,16,19,0
1,1,1,3,0.56502,17.922,83,1,3,860,504,0,16,19,0
1,1,1,2,0.39328,2.197,84,1,2,679,609,0,16,19,0
1,1,1,3,0.54688,2.197,85,1,3,830,487,0,16,19,0
1,2,2,3,0.46611,30.288,86,1,6,1135,530,0,16,19,0
1,1,2,3,0.61766,3.7129,87,0,6,1033,523,0,16,19,0
1,1,1,3,0.44312,17.922,88,1,3,736,529,0,16,19,0
1,2,1,1,0.66353,10.604,89,0,1,812,642,0,16,19,0
1,1,2,3,0.35955,17.922,90,0,6,1128,538,0,16,19,0
1,1,2,3,0.4116,17.922,91,0,6,1052,533,0,16,19,0
1,1,1,3,0.59929,17.922,92,1,3,709,487,0,16,19,0
1,2,1,2,1.9053,51.186,93,0,2,747,543,0,16,19,0
1,1,1,4,0.72623,2.197,94,1,4,928,513,0,16,19,0
1,1,1,3,0.6035,30.288,95,1,3,853,533,0,16,19,0
1,1,1,3,0.30263,17.922,96,1,3,815,538,0,16,19,0
1,1,1,3,0.47963,30.288,97,1,3,768,516,0,16,19,0
1,2,1,3,0.61209,51.186,98,0,3,831,527,0,16,19,0
1,1,1,2,0.62928,10.604,99,1,2,819,556,0,16,19,0
1,1,1,1,0.51904,10.604,100,1,4,891,492,1,16,19,0
1,2,2,2,0.44979,17.922,101,1,6,1175,472,1,16,19,0
1,2,2,2,0.3521,0,102,1,6,1107,515,1,16,19,0
1,1,1,2,0.53231,30.288,103,1,3,776,532,1,16,19,0
1,2,2,2,0.27407,10.604,104,1,6,1142,470,1,16,19,0
1,1,1,2,0.3702,30.288,105,1,3,813,504,1,16,19,0
1,2,2,2,0.36769,2.197,106,1,6,1153,522,1,16,19,0
1,2,2,3,0.5394,17.922,107,1,7,1194,596,1,16,19,0
1,1,1,3,0.29283,17.922,108,1,2,851,575,1,16,19,0
1,2,1,3,1.1141,3.7129,109,0,2,837,566,1,16,19,0
1,2,2,3,0.55654,30.288,110,1,7,1090,587,1,16,19,0
1,1,1,3,0.38059,51.186,111,1,2,855,544,1,16,19,0
1,1,1,2,0.46155,0,112,1,3,816,499,1,16,19,0
1,2,1,1,0.27122,6.2748,113,0,4,896,483,1,16,19,0
1,1,1,2,0.48664,30.288,114,1,3,800,454,1,16,19,0
1,2,1,1,0.42568,51.186,115,0,4,851,435,1,16,19,0
1,1,1,2,0.39298,2.197,116,1,3,844,517,1,16,19,0
1,1,1,1,0.42536,10.604,117,1,4,890,446,1,16,19,0
1,1,1,3,0.38335,0,118,1,2,682,572,1,16,19,0
1,2,2,4,0.68547,0,119,1,8,1104,670,1,16,19,0
1,1,1,1,0.39337,30.288,120,1,4,863,418,1,16,19,0
1,2,2,4,0.69978,6.2748,121,1,8,1132,651,1,16,19,0
1,2,1,2,0.43852,30.288,122,0,3,789,461,1,16,19,0
1,2,1,2,0.4022,17.922,123,0,3,825,506,1,16,19,0
1,1,1,2,0.49056,51.186,124,1,3,780,497,1,16,19,0
1,2,1,1,0.46882,17.922,125,0,4,797,434,1,16,19,0
1,1,1,2,0.50145,0,126,1,3,855,538,1,16,19,0
1,1,1,2,0.46664,17.922,127,1,3,719,513,1,16,19,0
1,1,2,2,0.24929,10.604,128,0,6,1143,521,1,16,19,0
1,2,2,3,0.43627,2.197,129,1,7,1142,542,1,16,19,0
1,1,1,3,0.40299,6.2748,130,1,2,741,583,1,16,19,0
1,2,2,3,0.55245,0,131,1,7,1066,556,1,16,19,0
1,1,1,3,0.31871,17.922,132,1,2,780,551,1,16,19,0
1,1,1,3,0.42004,2.197,133,1,2,772,594,1,16,19,0
1,1,1,3,0.63249,6.2748,134,1,2,871,557,1,16,19,0
1,1,1,1,0.48418,17.922,135,1,4,864,478,1,16,19,0
1,2,2,2,0.37217,51.186,136,1,6,1149,507,1,16,19,0
1,1,1,2,0.42654,30.288,137,1,3,852,528,1,16,19,0
1,1,1,3,0.41749,3.7129,138,1,2,754,598,1,16,19,0
1,1,1,3,0.40787,6.2748,139,1,2,873,565,1,16,19,0
1,1,1,4,0.38482,10.604,140,1,1,891,629,1,16,19,0
1,2,2,4,0.27183,3.7129,141,1,8,1067,637,1,16,19,0
1,1,1,3,0.41727,30.288,142,1,2,786,587,1,16,19,0
1,2,2,3,0.46668,17.922,143,1,7,1190,595,1,16,19,0
1,2,2,3,0.47436,17.922,144,1,7,1144,632,1,16,19,0
1,1,2,3,0.5196,0,145,0,7,1184,578,1,16,19,0
1,2,2,3,0.50807,2.197,146,1,7,1186,593,1,16,19,0
1,1,2,3,0.6837,10.604,147,0,7,1073,555,1,16,19,0
1,2,2,3,0.39775,3.7129,148,1,7,1041,556,1,16,19,0
1,2,2,2,0.53012,17.922,149,1,6,1084,470,1,16,19,0
1,2,1,3,0.3251,10.604,150,0,2,806,582,1,16,19,0
1,2,1,2,0.33217,17.922,151,0,3,828,493,1,16,19,0
1,2,1,3,0.60812,0,152,0,2,870,559,1,16,19,0
1,1,1,3,0.37387,51.186,153,1,2,843,573,1,16,19,0
1,1,1,4,0.38002,2.197,154,1,1,909,580,1,16,19,0
1,2,1,3,0.32422,51.186,155,0,2,904,544,1,16,19,0
1,1,1,3,0.2865,3.7129,156,1,2,881,547,1,16,19,0
1,1,1,3,0.40719,30.288,157,1,2,888,553,1,16,19,0
1,2,1,3,0.28092,2.197,158,0,2,880,567,1,16,19,0
1,1,1,3,0.52546,30.288,159,1,2,918,557,1,16,19,0
1,2,1,3,0.42379,0,160,0,2,873,579,1,16,19,0
1,1,1,3,0.40201,3.7129,161,1,2,829,578,1,16,19,0
1,1,1,3,0.64523,51.186,162,1,2,902,560,1,16,19,0
1,1,1,3,0.79354,30.288,163,1,2,902,566,1,16,19,0
1,2,1,3,0.19309,6.2748,164,0,2,903,556,1,16,19,0
1,2,2,3,0.50084,30.288,165,1,7,1185,570,1,16,19,0
1,1,1,4,0.40298,3.7129,166,1,1,830,652,1,16,19,0
1,1,1,2,0.75709,6.2748,167,1,3,719,491,1,16,19,0
1,1,2,2,0.36683,6.2748,168,0,6,1105,505,1,16,19,0
1,2,2,3,0.40656,3.7129,169,1,7,1199,624,1,16,19,0
1,2,2,3,0.28347,6.2748,170,1,7,1081,552,1,16,19,0
1,1,2,1,0.26444,51.186,171,0,5,1075,470,1,16,19,0
1,1,1,3,0.40184,3.7129,172,1,2,803,565,1,16,19,0
1,2,2,3,0.39022,3.7129,173,1,7,1083,597,1,16,19,0
1,1,2,3,0.33598,0,174,0,7,1066,561,1,16,19,0
1,2,2,4,0.76456,51.186,175,1,8,1039,606,1,16,19,0
1,2,2,3,0.31297,17.922,176,1,7,1031,573,1,16,19,0
1,1,2,3,0.42104,30.288,177,0,7,1096,601,1,16,19,0
1,1,2,4,0.55262,51.186,178,0,8,1152,685,1,16,19,0
1,2,2,3,0.49174,2.197,179,1,7,1050,591,1,16,19,0
1,2,2,4,0.43309,30.288,180,1,8,1035,613,1,16,19,0
1,1,1,3,0.39511,6.2748,181,1,2,803,605,1,16,19,0
1,1,1,2,0.80178,10.604,182,1,3,830,508,1,16,19,0
1,2,1,1,0.41082,51.186,183,0,4,875,409,1,16,19,0
1,2,2,1,0.49048,51.186,184,1,5,1143,413,1,16,19,0
1,1,1,3,0.85399,0,185,1,2,832,566,1,16,19,0
1,2,1,2,0.47137,30.288,186,0,3,762,485,1,16,19,0
1,2,2,1,0.45794,30.288,187,1,5,1096,447,1,16,19,0
1,2,2,1,0.65061,30.288,188,1,5,1061,466,1,16,19,0
1,2,2,1,0.54865,0,189,1,5,987,496,1,16,19,0
1,2,2,1,0.63492,30.288,190,1,5,993,508,1,16,19,0
1,1,2,2,0.46583,51.186,191,0,6,1035,497,1,16,19,0
1,2,1,2,0.32034,30.288,192,0,3,749,524,1,16,19,0
1,2,2,1,0.70376,3.7129,193,1,5,1102,439,1,16,19,0
1,2,1,2,0.75411,17.922,194,0,3,801,451,1,16,19,0
1,2,1,2,0.46262,51.186,195,0,3,800,448,1,16,19,0
1,1,1,3,0.47247,10.604,196,1,2,841,601,1,16,19,0
1,2,1,1,0.53483,2.197,197,0,4,855,458,1,16,19,0
1,2,1,1,0.40882,10.604,198,0,4,809,437,1,16,19,0
1,1,1,1,0.69438,10.604,199,1,4,863,450,1,16,19,0
1,2,1,4,0.69755,2.197,200,0,4,759,401,0,16,19,0
1,2,1,2,0.69663,17.922,201,0,2,773,557,0,16,19,0
1,1,1,3,0.38831,10.604,202,1,3,837,507,0,16,19,0
1,2,1,3,0.28431,2.197,203,0,3,789,514,0,16,19,0
1,2,1,3,0.80587,0,204,0,3,817,527,0,16,19,0
1,1,1,3,0.66959,17.922,205,1,3,906,521,0,16,19,0
1,2,1,3,0.42746,2.197,206,0,3,789,516,0,16,19,0
1,1,1,3,0.38375,2.197,207,1,3,895,530,0,16,19,0
1,2,1,3,0.4004,10.604,208,0,3,763,472,0,16,19,0
1,2,1,3,0.27746,51.186,209,0,3,802,531,0,16,19,0
1,2,1,3,0.33757,30.288,210,0,3,845,527,0,16,19,0
1,2,1,3,0.4035,10.604,211,0,3,855,512,0,16,19,0
1,2,1,3,0.45182,6.2748,212,0,3,747,504,0,16,19,0
1,2,1,3,0.52492,3.7129,213,0,3,794,499,0,16,19,0
1,2,1,2,0.48999,2.197,214,0,2,794,545,0,16,19,0
1,2,1,2,0.3916,30.288,215,0,2,853,542,0,16,19,0
1,1,1,3,0.34222,0,216,1,3,812,501,0,16,19,0
1,2,1,3,0.42751,2.197,217,0,3,869,518,0,16,19,0
1,2,1,3,0.78069,3.7129,218,0,3,799,529,0,16,19,0
1,2,1,3,0.5767,3.7129,219,0,3,731,508,0,16,19,0
1,1,1,2,0.39202,10.604,220,1,2,775,552,0,16,19,0
1,2,1,3,0.38542,6.2748,221,0,3,899,523,0,16,19,0
1,2,1,2,0.28481,10.604,222,0,2,730,545,0,16,19,0
1,1,1,3,0.36079,2.197,223,1,3,823,509,0,16,19,0
1,2,1,3,0.33485,3.7129,224,0,3,887,538,0,16,19,0
1,1,1,3,0.38149,30.288,225,1,3,759,516,0,16,19,0
1,2,2,2,0.37422,2.197,226,1,7,1211,546,0,16,19,0
1,2,2,2,0.46364,30.288,227,1,7,1044,573,0,16,19,0
1,1,1,3,0.36822,2.197,228,1,3,761,501,0,16,19,0
1,2,1,3,0.40159,17.922,229,0,3,816,526,0,16,19,0
1,2,1,3,0.3887,3.7129,230,0,3,849,511,0,16,19,0
1,2,1,3,0.2904,17.922,231,0,3,888,531,0,16,19,0
1,1,1,3,0.27404,6.2748,232,1,3,821,526,0,16,19,0
1,2,1,3,0.44406,0,233,0,3,783,533,0,16,19,0
1,1,1,3,0.3244,6.2748,234,1,3,887,513,0,16,19,0
1,1,1,3,0.32945,0,235,1,3,708,507,0,16,19,0
1,1,1,3,0.47581,0,236,1,3,792,519,0,16,19,0
1,2,2,2,0.59415,2.197,237,1,7,1169,639,0,16,19,0
1,2,2,1,0.44647,3.7129,238,1,8,1028,600,0,16,19,0
1,2,1,2,0.42091,3.7129,239,0,2,727,559,0,16,19,0
1,1,1,2,0.36457,3.7129,240,1,2,750,564,0,16,19,0
1,2,1,2,0.32921,0,241,0,2,713,573,0,16,19,0
1,1,1,2,0.46824,0,242,1,2,763,584,0,16,19,0
1,2,1,2,0.35969,3.7129,243,0,2,733,576,0,16,19,0
1,1,1,4,0.2567,30.288,244,1,4,881,465,0,16,19,0
1,1,1,3,0.3606,10.604,245,1,3,852,520,0,16,19,0
1,2,1,2,0.49727,6.2748,246,0,2,804,551,0,16,19,0
1,2,2,3,0.65038,3.7129,247,1,6,1210,532,0,16,19,0
1,2,1,3,0.57066,3.7129,248,0,3,700,537,0,16,19,0
1,2,1,3,0.51244,17.922,249,0,3,830,487,0,16,19,0
1,2,1,3,0.51207,17.922,250,0,3,821,467,0,16,19,0
1,2,1,3,0.60884,6.2748,251,0,3,824,523,0,16,19,0
1,1,1,3,0.65393,0,252,1,3,857,514,0,16,19,0
1,1,1,3,0.41409,2.197,253,1,3,692,514,0,16,19,0
1,1,1,3,0.47041,10.604,254,1,3,836,507,0,16,19,0
1,1,1,2,0.40997,17.922,255,1,2,871,550,0,16,19,0
1,1,1,3,0.46897,3.7129,256,1,3,828,501,0,16,19,0
1,1,1,3,0.52459,30.288,257,1,3,768,494,0,16,19,0
1,2,2,2,0.28963,3.7129,258,1,7,1162,557,0,16,19,0
1,2,2,3,0.68087,0,259,1,6,1091,517,0,16,19,0
1,2,2,3,0.33774,3.7129,260,1,6,1060,523,0,16,19,0
1,1,2,2,0.22589,30.288,261,0,7,1009,568,0,16,19,0
1,2,2,3,0.48414,6.2748,262,1,6,1114,536,0,16,19,0
1,2,1,3,0.27585,17.922,263,0,3,799,512,0,16,19,0
1,2,1,3,0.38892,2.197,264,0,3,834,527,0,16,19,0
1,1,1,3,0.40957,51.186,265,1,3,775,502,0,16,19,0
1,1,1,2,0.46342,51.186,266,1,2,896,545,0,16,19,0
1,2,1,2,0.31367,3.7129,267,0,2,864,550,0,16,19,0
1,1,1,2,0.40833,30.288,268,1,2,733,661,0,16,19,0
1,2,1,1,0.77724,17.922,269,0,1,815,664,0,16,19,0
1,1,1,2,0.57467,3.7129,270,1,2,793,609,0,16,19,0
1,1,1,2,0.62969,30.288,271,1,2,778,640,0,16,19,0
1,2,2,2,0.57687,6.2748,272,1,7,1198,574,0,16,19,0
1,2,2,2,0.40211,3.7129,273,1,7,1044,565,0,16,19,0
1,1,1,3,0.2964,2.197,274,1,3,746,467,0,16,19,0
1,2,2,3,0.7811,2.197,275,1,6,1227,485,0,16,19,0
1,2,2,1,0.56084,10.604,276,1,8,1094,682,0,16,19,0
1,1,1,1,0.62181,2.197,277,1,1,874,606,0,16,19,0
1,2,1,3,0.5649,3.7129,278,0,3,757,489,0,16,19,0
1,2,1,3,0.48042,2.197,279,0,3,866,527,0,16,19,0
1,1,1,2,0.42451,51.186,280,1,2,774,564,0,16,19,0
1,2,2,2,0.31586,3.7129,281,1,7,1206,568,0,16,19,0
1,2,2,3,0.25489,6.2748,282,1,6,1087,532,0,16,19,0
1,1,1,2,0.40693,51.186,283,1,2,734,574,0,16,19,0
1,1,1,3,1.0237,3.7129,284,1,3,687,473,0,16,19,0
1,1,1,1,0.35104,51.186,285,1,1,724,678,0,16,19,0
1,2,2,3,0.55039,3.7129,286,1,6,1169,525,0,16,19,0
1,1,1,3,0.46895,10.604,287,1,3,732,532,0,16,19,0
1,2,2,3,0.29534,2.197,288,1,6,1034,521,0,16,19,0
1,1,1,3,0.46378,3.7129,289,1,3,746,531,0,16,19,0
1,2,2,2,0.33962,0,290,1,7,1122,578,0,16,19,0
1,2,1,2,0.4534,3.7129,291,0,2,766,550,0,16,19,0
1,1,1,2,0.40849,0,292,1,2,767,604,0,16,19,0
1,1,1,2,0.54384,17.922,293,1,2,809,602,0,16,19,0
1,2,2,2,1.3371,30.288,294,1,7,1227,602,0,16,19,0
1,2,1,2,0.99194,17.922,295,0,2,766,570,0,16,19,0
1,1,1,3,0.44865,10.604,296,1,3,844,516,0,16,19,0
1,2,1,1,0.3423,51.186,297,0,1,872,622,0,16,19,0
1,2,2,2,0.37464,51.186,298,1,7,1056,555,0,16,19,0
1,2,2,2,0.3387,6.2748,299,1,7,1009,552,0,16,19,0
1,2,2,2,0.52073,0,300,1,6,1092,491,1,16,19,0
1,1,1,3,0.70408,6.2748,301,1,2,732,599,1,16,19,0
1,2,2,3,0.37048,17.922,302,1,7,1126,542,1,16,19,0
1,2,2,2,0.39941,6.2748,303,1,6,1125,455,1,16,19,0
1,1,1,2,0.42772,6.2748,304,1,3,698,521,1,16,19,0
1,2,2,1,0.32492,6.2748,305,1,5,1034,464,1,16,19,0
1,1,1,4,0.6333,3.7129,306,1,1,783,658,1,16,19,0
1,1,1,4,0.54254,17.922,307,1,1,813,673,1,16,19,0
1,1,2,2,0.37591,17.922,308,0,6,1107,506,1,16,19,0
1,2,2,2,0.5743,6.2748,309,1,6,1080,497,1,16,19,0
1,2,1,2,0.90234,30.288,310,0,3,765,480,1,16,19,0
1,2,2,3,0.55165,2.197,311,1,7,1153,585,1,16,19,0
1,2,1,3,0.63431,6.2748,312,0,2,697,578,1,16,19,0
1,2,1,3,0.42705,6.2748,313,0,2,828,583,1,16,19,0
1,1,1,3,0.45511,17.922,314,1,2,898,552,1,16,19,0
1,1,1,3,0.26947,2.197,315,1,2,893,571,1,16,19,0
1,1,1,3,0.36243,51.186,316,1,2,789,553,1,16,19,0
1,2,1,3,0.43114,2.197,317,0,2,850,598,1,16,19,0
1,1,1,3,0.41491,0,318,1,2,853,548,1,16,19,0
1,1,1,3,0.3266,10.604,319,1,2,899,562,1,16,19,0
1,2,1,3,0.43911,17.922,320,0,2,896,544,1,16,19,0
1,1,1,3,0.48285,51.186,321,1,2,869,566,1,16,19,0
1,1,1,3,0.55755,10.604,322,1,2,890,578,1,16,19,0
1,1,1,3,0.43056,2.197,323,1,2,894,564,1,16,19,0
1,1,1,3,0.31299,17.922,324,1,2,880,581,1,16,19,0
1,1,1,4,0.34199,10.604,325,1,1,890,612,1,16,19,0
1,1,1,3,0.39641,10.604,326,1,2,882,550,1,16,19,0
1,2,1,4,0.28209,3.7129,327,0,1,880,600,1,16,19,0
1,2,1,3,0.38428,10.604,328,0,2,906,557,1,16,19,0
1,2,1,3,0.20108,6.2748,329,0,2,900,543,1,16,19,0
1,1,1,3,0.41206,10.604,330,1,2,852,592,1,16,19,0
1,1,1,3,0.38405,2.197,331,1,2,866,571,1,16,19,0
1,2,1,1,0.3135,17.922,332,0,4,826,451,1,16,19,0
1,2,2,3,0.61014,2.197,333,1,7,1183,548,1,16,19,0
1,2,1,2,0.20812,2.197,334,0,3,671,514,1,16,19,0
1,1,1,3,0.24291,2.197,335,1,2,724,635,1,16,19,0
1,2,1,2,0.55704,51.186,336,0,3,834,498,1,16,19,0
1,2,2,1,0.58281,0,337,1,5,1047,452,1,16,19,0
1,1,1,2,0.51585,51.186,338,1,3,888,536,1,16,19,0
1,2,2,2,0.39238,2.197,339,1,6,1054,526,1,16,19,0
1,1,1,2,0.70097,2.197,340,1,3,805,522,1,16,19,0
1,2,1,3,0.62179,51.186,341,0,2,799,613,1,16,19,0
1,2,1,1,0.96727,17.922,342,0,4,839,424,1,16,19,0
1,2,2,2,0.58679,30.288,343,1,6,1180,463,1,16,19,0
1,1,2,1,0.55687,0,344,0,5,1076,422,1,16,19,0
1,2,2,1,0.34118,10.604,345,1,5,1138,426,1,16,19,0
1,2,2,2,0.34989,3.7129,346,1,6,1086,488,1,16,19,0
1,2,2,4,0.39396,51.186,347,1,8,1013,597,1,16,19,0
1,2,2,2,0.58161,6.2748,348,1,6,1020,535,1,16,19,0
1,2,1,3,0.62294,30.288,349,0,2,728,591,1,16,19,0
1,1,1,3,0.41934,6.2748,350,1,2,804,601,1,16,19,0
1,1,1,3,0.80769,10.604,351,1,2,777,560,1,16,19,0
1,1,1,3,0.33061,51.186,352,1,2,777,617,1,16,19,0
1,1,1,3,0.274,10.604,353,1,2,857,551,1,16,19,0
1,1,1,3,0.26235,3.7129,354,1,2,707,574,1,16,19,0
1,2,2,3,0.51706,2.197,355,1,7,1226,615,1,16,19,0
1,2,1,1,0.29182,3.7129,356,0,4,925,492,1,16,19,0
1,2,2,2,0.39465,2.197,357,1,6,1015,532,1,16,19,0
1,2,2,2,0.54202,6.2748,358,1,6,1001,521,1,16,19,0
1,2,2,2,0.5707,3.7129,359,1,6,1109,534,1,16,19,0
1,1,1,2,0.51217,10.604,360,1,3,689,469,1,16,19,0
1,1,1,2,0.30425,30.288,361,1,3,807,501,1,16,19,0
1,1,1,3,0.35789,3.7129,362,1,2,725,556,1,16,19,0
1,2,1,3,0.38591,17.922,363,0,2,857,585,1,16,19,0
1,2,2,2,0.49167,2.197,364,1,6,1156,457,1,16,19,0
1,2,2,3,0.43236,6.2748,365,1,7,1043,566,1,16,19,0
1,1,1,3,0.32668,17.922,366,1,2,726,608,1,16,19,0
1,1,1,3,0.41206,3.7129,367,1,2,847,558,1,16,19,0
1,1,1,3,0.36977,2.197,368,1,2,895,569,1,16,19,0
1,1,1,3,0.26449,10.604,369,1,2,880,562,1,16,19,0
1,2,2,1,0.36844,51.186,370,1,5,1063,446,1,16,19,0
1,2,2,2,0.37215,30.288,371,1,6,1123,524,1,16,19,0
1,2,2,3,0.87913,2.197,372,1,7,1150,585,1,16,19,0
1,2,2,1,0.43856,10.604,373,1,5,1066,478,1,16,19,0
1,2,2,3,0.3005,0,374,1,7,1032,560,1,16,19,0
1,2,2,1,0.53888,51.186,375,1,5,1037,488,1,16,19,0
1,1,2,1,0.5573,10.604,376,0,5,1058,437,1,16,19,0
1,1,2,1,0.5693,6.2748,377,0,5,1044,458,1,16,19,0
1,1,2,3,0.72017,2.197,378,0,7,1122,602,1,16,19,0
1,1,1,3,0.58092,3.7129,379,1,2,683,581,1,16,19,0
1,2,1,3,0.35772,0,380,0,2,810,554,1,16,19,0
1,2,2,3,0.31873,30.288,381,1,7,1089,559,1,16,19,0
1,2,1,3,0.34777,30.288,382,0,2,737,629,1,16,19,0
1,1,1,3,0.54183,17.922,383,1,2,853,587,1,16,19,0
1,1,1,3,0.54535,6.2748,384,1,2,887,559,1,16,19,0
1,2,1,4,0.17688,6.2748,385,0,1,863,611,1,16,19,0
1,1,1,1,0.48319,30.288,386,1,4,843,466,1,16,19,0
1,1,1,4,0.2455,3.7129,387,1,1,913,573,1,16,19,0
1,2,1,3,0.29054,2.197,388,0,2,729,585,1,16,19,0
1,2,1,3,0.45732,30.288,389,0,2,854,571,1,16,19,0
1,2,1,3,0.48359,51.186,390,0,2,891,571,1,16,19,0
1,1,1,2,0.26963,10.604,391,1,3,792,528,1,16,19,0
1,1,1,3,0.28602,10.604,392,1,2,911,564,1,16,19,0
1,2,1,3,0.30505,0,393,0,2,813,557,1,16,19,0
1,2,1,4,0.28763,10.604,394,0,1,909,578,1,16,19,0
1,1,1,2,0.24669,3.7129,395,1,3,831,531,1,16,19,0
1,2,1,4,0.30272,6.2748,396,0,1,798,634,1,16,19,0
1,2,1,2,0.24914,10.604,397,0,3,884,511,1,16,19,0
1,1,1,4,0.35743,0,398,1,1,905,574,1,16,19,0
1,1,1,3,0.72638,30.288,399,1,2,854,548,1,16,19,0
1,1,1,1,0.34479,17.922,400,1,1,862,609,0,16,19,0
1,2,1,3,0.28038,0,401,0,3,854,482,0,16,19,0
1,1,1,4,0.83919,2.197,402,1,4,886,424,0,16,19,0
1,2,2,3,0.44934,6.2748,403,1,6,1079,477,0,16,19,0
1,1,1,3,0.5037,2.197,404,1,3,753,477,0,16,19,0
1,1,1,4,0.35677,10.604,405,1,4,854,426,0,16,19,0
1,1,2,2,0.34977,30.288,406,0,7,1096,562,0,16,19,0
1,1,2,2,0.43024,30.288,407,0,7,1050,570,0,16,19,0
1,1,2,2,0.28682,0,408,0,7,1039,560,0,16,19,0
1,1,2,2,0.45636,3.7129,409,0,7,1075,598,0,16,19,0
1,2,2,2,0.34924,2.197,410,1,7,1090,575,0,16,19,0
1,1,1,3,0.38962,17.922,411,1,3,703,462,0,16,19,0
1,2,1,4,0.44448,51.186,412,0,4,766,419,0,16,19,0
1,1,1,3,0.42311,51.186,413,1,3,752,530,0,16,19,0
1,2,1,3,0.41115,51.186,414,0,3,881,527,0,16,19,0
1,1,1,4,0.27429,17.922,415,1,4,870,448,0,16,19,0
1,2,1,3,0.5057,2.197,416,0,3,783,484,0,16,19,0
1,1,1,3,0.44462,30.288,417,1,3,757,433,0,16,19,0
1,1,1,3,0.40416,10.604,418,1,3,736,515,0,16,19,0
1,1,1,3,0.47435,6.2748,419,1,3,834,507,0,16,19,0
1,1,1,2,0.47768,2.197,420,1,2,824,598,0,16,19,0
1,2,1,1,0.509,2.197,421,0,1,854,628,0,16,19,0
1,1,1,1,0.48171,6.2748,422,1,1,881,613,0,16,19,0
1,2,1,1,0.47778,30.288,423,0,1,894,589,0,16,19,0
1,2,1,1,0.27414,30.288,424,0,1,896,589,0,16,19,0
1,1,1,3,0.63548,10.604,425,1,3,706,472,0,16,19,0
1,1,1,2,1.1022,2.197,426,1,2,893,549,0,16,19,0
1,1,1,3,0.67661,0,427,1,3,892,525,0,16,19,0
1,1,1,1,0.48918,51.186,428,1,1,908,584,0,16,19,0
1,1,1,4,0.46491,2.197,429,1,4,816,451,0,16,19,0
1,1,1,3,1.1234,51.186,430,1,3,859,489,0,16,19,0
1,1,1,3,0.55779,10.604,431,1,3,766,479,0,16,19,0
1,1,1,3,1.7048,0,432,1,3,677,485,0,16,19,0
1,2,1,3,0.43395,3.7129,433,0,3,768,513,0,16,19,0
1,2,1,2,0.34895,10.604,434,0,2,826,569,0,16,19,0
1,2,1,3,0.63661,51.186,435,0,3,730,467,0,16,19,0
1,1,1,3,0.41472,51.186,436,1,3,724,526,0,16,19,0
1,2,1,3,0.43358,0,437,0,3,823,504,0,16,19,0
1,1,1,4,0.34948,3.7129,438,1,4,823,424,0,16,19,0
1,1,1,2,0.35357,30.288,439,1,2,817,554,0,16,19,0
1,2,2,3,0.29593,6.2748,440,1,6,1153,482,0,16,19,0
1,2,2,3,0.36299,3.7129,441,1,6,1066,493,0,16,19,0
1,1,2,2,0.40003,10.604,442,0,7,1184,620,0,16,19,0
1,1,2,2,0.38903,2.197,443,0,7,1226,593,0,16,19,0
1,1,1,2,0.83149,30.288,444,1,2,799,564,0,16,19,0
1,2,1,3,0.40413,2.197,445,0,3,719,483,0,16,19,0
1,2,1,2,0.39442,3.7129,446,0,2,872,572,0,16,19,0
1,2,1,3,0.38178,51.186,447,0,3,818,500,0,16,19,0
1,2,1,3,0.3758,51.186,448,0,3,787,512,0,16,19,0
1,1,1,3,0.32441,6.2748,449,1,3,770,527,0,16,19,0
1,2,1,3,0.40078,10.604,450,0,3,872,532,0,16,19,0
1,1,1,3,0.19495,17.922,451,1,3,791,474,0,16,19,0
1,1,1,3,0.37556,10.604,452,1,3,851,524,0,16,19,0
1,1,1,3,0.39708,30.288,453,1,3,840,517,0,16,19,0
1,2,1,3,0.43501,3.7129,454,0,3,843,489,0,16,19,0
1,1,1,3,0.1997,3.7129,455,1,3,866,517,0,16,19,0
1,1,1,3,0.38795,3.7129,456,1,3,868,531,0,16,19,0
1,1,1,3,0.2743,30.288,457,1,3,830,496,0,16,19,0
1,1,1,3,0.52344,51.186,458,1,3,754,479,0,16,19,0
1,2,2,3,0.47207,0,459,1,6,1147,470,0,16,19,0
1,2,2,3,0.41527,0,460,1,6,1075,515,0,16,19,0
1,1,2,2,0.41808,51.186,461,0,7,1187,550,0,16,19,0
1,1,1,3,0.40911,30.288,462,1,3,758,489,0,16,19,0
1,1,1,4,0.51203,0,463,1,4,864,462,0,16,19,0
1,2,2,4,0.21085,0,464,1,5,1011,498,0,16,19,0
1,1,1,2,0.23593,0,465,1,2,722,541,0,16,19,0
1,2,1,3,0.21114,30.288,466,0,3,755,539,0,16,19,0
1,1,1,3,0.45102,2.197,467,1,3,821,511,0,16,19,0
1,1,1,3,0.22327,6.2748,468,1,3,847,518,0,16,19,0
1,1,1,2,0.22463,17.922,469,1,2,813,593,0,16,19,0
1,1,1,1,0.27129,51.186,470,1,1,854,618,0,16,19,0
1,2,2,4,0.56591,6.2748,471,1,5,1153,419,0,16,19,0
1,1,1,3,0.40944,2.197,472,1,3,742,494,0,16,19,0
1,2,2,3,0.30149,6.2748,473,1,6,1090,497,0,16,19,0
1,1,1,3,0.36403,3.7129,474,1,3,809,459,0,16,19,0
1,1,1,3,0.7046,0,475,1,3,677,507,0,16,19,0
1,1,1,3,0.35076,10.604,476,1,3,839,526,0,16,19,0
1,2,2,3,0.31524,0,477,1,6,1050,514,0,16,19,0
1,2,2,2,0.38113,2.197,478,1,7,1073,593,0,16,19,0
1,1,1,2,0.44607,0,479,1,2,783,636,0,16,19,0
1,1,1,3,0.3457,10.604,480,1,3,843,536,0,16,19,0
1,2,2,3,0.42723,10.604,481,1,6,1156,520,0,16,19,0
1,2,1,3,0.30587,10.604,482,0,3,789,505,0,16,19,0
1,2,2,3,0.46794,6.2748,483,1,6,1104,502,0,16,19,0
1,1,2,1,0.65473,6.2748,484,0,8,1138,673,0,16,19,0
1,1,2,1,0.58266,30.288,485,0,8,1154,654,0,16,19,0
1,1,2,1,0.71373,10.604,486,0,8,1105,637,0,16,19,0
1,2,2,3,0.35075,0,487,1,6,1119,528,0,16,19,0
1,1,1,3,0.34872,17.922,488,1,3,737,494,0,16,19,0
1,2,2,2,0.42577,17.922,489,1,7,1211,557,0,16,19,0
1,1,1,3,0.31135,3.7129,490,1,3,691,525,0,16,19,0
1,2,2,3,0.36314,10.604,491,1,6,1190,497,0,16,19,0
1,2,2,4,0.39094,3.7129,492,1,5,1031,478,0,16,19,0
1,1,1,3,0.23753,6.2748,493,1,3,894,512,0,16,19,0
1,1,2,1,0.40782,30.288,494,0,8,1067,607,0,16,19,0
1,1,2,3,0.70288,2.197,495,0,6,1027,535,0,16,19,0
1,1,1,3,0.23788,0,496,1,3,678,497,0,16,19,0
1,2,1,2,0.39998,51.186,497,0,2,741,607,0,16,19,0
1,2,2,3,0.60128,10.604,498,1,6,1189,499,0,16,19,0
1,2,2,3,0.39164,17.922,499,1,6,1107,490,0,16,19,0
1,2,2,2,0.55001,17.922,500,1,6,1176,471,1,16,19,0
1,1,1,4,0.49912,17.922,501,1,1,795,654,1,16,19,0
1,1,1,2,0.34448,51.186,502,1,3,787,447,1,16,19,0
1,1,1,3,0.29543,6.2748,503,1,2,811,610,1,16,19,0
1,2,1,1,0.68387,51.186,504,0,4,770,328,1,16,19,0
1,2,1,3,0.39686,2.197,505,0,2,768,548,1,16,19,0
1,2,1,3,0.46822,0,506,0,2,855,577,1,16,19,0
1,2,2,3,0.51026,0,507,1,7,1208,647,1,16,19,0
1,1,1,3,0.49419,3.7129,508,1,2,727,564,1,16,19,0
1,1,1,3,0.46595,3.7129,509,1,2,838,574,1,16,19,0
1,1,2,3,0.44342,30.288,510,0,7,1176,599,1,16,19,0
1,1,2,3,0.64998,0,511,0,7,1233,577,1,16,19,0
1,1,1,3,0.72258,6.2748,512,1,2,683,569,1,16,19,0
1,1,1,3,0.71601,6.2748,513,1,2,846,550,1,16,19,0
1,1,1,3,0.35042,0,514,1,2,836,603,1,16,19,0
1,2,1,3,0.49777,6.2748,515,0,2,749,580,1,16,19,0
1,2,1,3,0.49334,51.186,516,0,2,870,567,1,16,19,0
1,1,1,3,0.45818,30.288,517,1,2,734,629,1,16,19,0
1,2,1,2,0.42378,17.922,518,0,3,858,512,1,16,19,0
1,1,1,1,0.31726,30.288,519,1,4,877,454,1,16,19,0
1,1,1,2,0.58699,30.288,520,1,3,794,445,1,16,19,0
1,1,1,1,0.58318,17.922,521,1,4,894,455,1,16,19,0
1,2,2,2,0.46397,10.604,522,1,6,1083,498,1,16,19,0
1,2,2,3,0.50184,3.7129,523,1,7,1068,575,1,16,19,0
1,1,2,2,0.32535,2.197,524,0,6,1064,490,1,16,19,0
1,2,2,1,0.37767,51.186,525,1,5,1029,468,1,16,19,0
1,1,2,1,0.66467,6.2748,526,0,5,1009,490,1,16,19,0
1,1,2,1,0.45942,17.922,527,0,5,1001,483,1,16,19,0
1,1,1,3,0.85654,3.7129,528,1,2,685,597,1,16,19,0
1,2,1,2,0.42278,30.288,529,0,3,821,530,1,16,19,0
1,1,1,3,0.31187,17.922,530,1,2,880,563,1,16,19,0
1,2,2,3,0.33888,51.186,531,1,7,1160,605,1,16,19,0
1,1,1,3,0.35891,10.604,532,1,2,833,612,1,16,19,0
1,1,1,3,0.41952,17.922,533,1,2,814,603,1,16,19,0
1,1,1,3,0.54621,30.288,534,1,2,859,556,1,16,19,0
1,1,1,3,0.25364,3.7129,535,1,2,851,557,1,16,19,0
1,1,1,3,0.31799,3.7129,536,1,2,889,562,1,16,19,0
1,1,1,3,0.31701,2.197,537,1,2,859,542,1,16,19,0
1,2,2,3,0.28567,17.922,538,1,7,1134,575,1,16,19,0
1,1,2,3,0.32841,51.186,539,0,7,1151,550,1,16,19,0
1,2,2,3,0.55679,17.922,540,1,7,1078,584,1,16,19,0
1,2,2,3,0.40709,17.922,541,1,7,1058,559,1,16,19,0
1,2,1,3,0.66098,30.288,542,0,2,728,577,1,16,19,0
1,1,1,3,0.37886,17.922,543,1,2,704,560,1,16,19,0
1,1,1,3,0.39318,2.197,544,1,2,740,598,1,16,19,0
1,1,1,2,0.42522,3.7129,545,1,3,858,527,1,16,19,0
1,1,1,1,0.34419,6.2748,546,1,4,829,367,1,16,19,0
1,1,1,1,0.35299,51.186,547,1,4,856,430,1,16,19,0
1,1,1,2,0.53762,51.186,548,1,3,835,470,1,16,19,0
1,1,1,1,0.36253,30.288,549,1,4,856,400,1,16,19,0
1,1,1,3,0.54931,6.2748,550,1,2,795,613,1,16,19,0
1,2,2,1,0.74554,17.922,551,1,5,1038,411,1,16,19,0
1,1,1,2,0.73798,6.2748,552,1,3,833,503,1,16,19,0
1,1,1,2,0.4963,30.288,553,1,3,742,456,1,16,19,0
1,1,1,2,0.49188,3.7129,554,1,3,772,511,1,16,19,0
1,2,2,2,1.4206,10.604,555,1,6,1106,519,1,16,19,0
1,1,1,2,0.36149,30.288,556,1,3,721,487,1,16,19,0
1,2,1,2,0.40647,10.604,557,0,3,812,532,1,16,19,0
1,1,1,3,0.30846,0,558,1,2,804,562,1,16,19,0
1,1,1,1,0.69652,30.288,559,1,4,839,432,1,16,19,0
1,1,1,3,0.6408,3.7129,560,1,2,738,597,1,16,19,0
1,2,2,2,0.54064,0,561,1,6,1216,499,1,16,19,0
1,2,2,3,0.43861,10.604,562,1,7,1129,566,1,16,19,0
1,2,2,1,0.36364,10.604,563,1,5,1036,462,1,16,19,0
1,2,2,4,0.32634,6.2748,564,1,8,1029,580,1,16,19,0
1,2,1,3,0.41373,17.922,565,0,2,735,543,1,16,19,0
1,1,1,3,0.47568,10.604,566,1,2,681,560,1,16,19,0
1,1,1,2,0.45603,2.197,567,1,3,810,527,1,16,19,0
1,1,1,3,0.36779,3.7129,568,1,2,774,588,1,16,19,0
1,2,2,2,0.39254,51.186,569,1,6,1194,487,1,16,19,0
1,2,2,3,0.43948,3.7129,570,1,7,1205,608,1,16,19,0
1,1,1,3,0.43316,6.2748,571,1,2,764,578,1,16,19,0
1,2,1,3,0.3799,17.922,572,0,2,784,553,1,16,19,0
1,2,2,3,0.45417,6.2748,573,1,7,1222,545,1,16,19,0
1,1,1,3,0.29885,0,574,1,2,833,560,1,16,19,0
1,1,2,2,0.59723,2.197,575,0,6,1207,452,1,16,19,0
1,1,1,3,0.36331,17.922,576,1,2,820,551,1,16,19,0
1,1,1,2,0.32432,51.186,577,1,3,886,522,1,16,19,0
1,2,2,3,0.438,2.197,578,1,7,1191,628,1,16,19,0
1,2,1,3,0.47406,6.2748,579,0,2,784,578,1,16,19,0
1,1,1,4,0.88896,0,580,1,1,870,670,1,16,19,0
1,2,2,4,0.39479,10.604,581,1,8,1130,670,1,16,19,0
1,2,2,2,0.51078,0,582,1,6,1158,512,1,16,19,0
1,2,2,2,0.87773,51.186,583,1,6,1126,475,1,16,19,0
1,1,1,3,0.66096,17.922,584,1,2,739,571,1,16,19,0
1,2,2,2,0.37288,10.604,585,1,6,1178,529,1,16,19,0
1,1,2,2,0.32618,51.186,586,0,6,1231,476,1,16,19,0
1,1,2,1,0.35853,51.186,587,0,5,1039,447,1,16,19,0
1,2,2,3,0.41362,6.2748,588,1,7,1158,620,1,16,19,0
1,1,1,3,0.41726,10.604,589,1,2,754,591,1,16,19,0
1,1,1,3,0.451,0,590,1,2,847,589,1,16,19,0
1,2,1,3,0.32064,2.197,591,0,2,895,568,1,16,19,0
1,1,1,3,0.37034,51.186,592,1,2,889,555,1,16,19,0
1,1,1,2,0.34372,10.604,593,1,3,827,538,1,16,19,0
1,2,2,3,0.42445,10.604,594,1,7,1197,555,1,16,19,0
1,1,1,3,0.52599,2.197,595,1,2,690,567,1,16,19,0
1,1,1,3,0.27207,51.186,596,1,2,805,591,1,16,19,0
1,1,1,3,0.23552,6.2748,597,1,2,880,553,1,16,19,0
1,2,2,2,0.47056,10.604,598,1,6,1090,529,1,16,19,0
1,2,2,4,0.64351,0,599,1,8,1029,646,1,16,19,0
1,1,1,2,0.57899,3.7129,600,1,2,738,573,0,16,19,0
1,1,1,2,0.32926,51.186,601,1,2,683,582,0,16,19,0
1,2,2,3,0.51697,2.197,602,1,6,1171,493,0,16,19,0
1,1,2,3,0.37066,17.922,603,0,6,1159,508,0,16,19,0
1,2,2,3,0.41407,10.604,604,1,6,1095,500,0,16,19,0
1,2,2,3,0.22878,3.7129,605,1,6,1144,528,0,16,19,0
1,1,1,3,0.43239,51.186,606,1,3,717,507,0,16,19,0
1,1,1,1,0.38544,51.186,607,1,1,836,630,0,16,19,0
1,1,1,1,0.40798,30.288,608,1,1,901,600,0,16,19,0
1,1,1,2,0.37411,17.922,609,1,2,770,591,0,16,19,0
1,2,1,1,0.35532,51.186,610,0,1,836,625,0,16,19,0
1,2,2,3,0.37823,17.922,611,1,6,1153,459,0,16,19,0
1,1,1,4,0.65686,2.197,612,1,4,800,392,0,16,19,0
1,1,2,2,0.40157,2.197,613,0,7,1166,575,0,16,19,0
1,2,2,2,0.41864,30.288,614,1,7,1012,554,0,16,19,0
1,1,1,3,0.27033,6.2748,615,1,3,820,524,0,16,19,0
1,1,1,3,0.37129,6.2748,616,1,3,893,524,0,16,19,0
1,1,1,3,0.243,6.2748,617,1,3,852,529,0,16,19,0
1,2,2,4,0.5051,17.922,618,1,5,1108,431,0,16,19,0
1,1,1,4,0.25638,10.604,619,1,4,791,442,0,16,19,0
1,1,1,2,0.74777,3.7129,620,1,2,835,548,0,16,19,0
1,1,1,2,0.34577,30.288,621,1,2,861,546,0,16,19,0
1,1,1,2,0.27218,30.288,622,1,2,905,566,0,16,19,0
1,1,2,3,0.29253,0,623,0,6,1132,492,0,16,19,0
1,2,2,3,0.46848,10.604,624,1,6,1174,482,0,16,19,0
1,1,2,3,0.55217,0,625,0,6,1038,525,0,16,19,0
1,2,1,3,0.47224,0,626,0,3,732,505,0,16,19,0
1,1,1,3,0.32662,6.2748,627,1,3,831,480,0,16,19,0
1,1,1,3,0.27723,51.186,628,1,3,852,532,0,16,19,0
1,2,1,3,0.27462,30.288,629,0,3,850,509,0,16,19,0
1,2,2,3,0.34575,0,630,1,6,1164,530,0,16,19,0
1,2,1,3,0.59638,51.186,631,0,3,821,512,0,16,19,0
1,2,2,3,0.25442,17.922,632,1,6,1070,503,0,16,19,0
1,2,2,3,0.35537,10.604,633,1,6,1033,506,0,16,19,0
1,1,1,3,0.32975,3.7129,634,1,3,787,508,0,16,19,0
1,2,1,3,0.29285,51.186,635,0,3,780,516,0,16,19,0
1,2,2,3,0.32049,0,636,1,6,1129,517,0,16,19,0
1,1,1,3,0.39749,6.2748,637,1,3,761,515,0,16,19,0
1,1,1,4,0.3657,17.922,638,1,4,823,460,0,16,19,0
1,2,2,3,0.55312,3.7129,639,1,6,1215,510,0,16,19,0
1,1,1,3,0.26969,0,640,1,3,842,520,0,16,19,0
1,1,1,3,0.32662,0,641,1,3,826,532,0,16,19,0
1,1,1,3,0.37193,2.197,642,1,3,880,524,0,16,19,0
1,1,1,3,0.31433,3.7129,643,1,3,857,524,0,16,19,0
1,2,2,3,0.34504,10.604,644,1,6,1080,502,0,16,19,0
1,1,1,3,0.56,51.186,645,1,3,737,501,0,16,19,0
1,1,1,3,0.34102,0,646,1,3,755,520,0,16,19,0
1,2,1,3,0.48646,17.922,647,0,3,848,495,0,16,19,0
1,2,2,3,0.45651,2.197,648,1,6,1207,533,0,16,19,0
1,2,2,3,0.45082,30.288,649,1,6,1137,507,0,16,19,0
1,1,1,3,0.4851,17.922,650,1,3,779,505,0,16,19,0
1,1,1,2,0.20688,2.197,651,1,2,915,551,0,16,19,0
1,2,1,3,0.39778,10.604,652,0,3,839,522,0,16,19,0
1,2,2,3,0.41349,6.2748,653,1,6,1219,517,0,16,19,0
1,1,2,2,0.3606,51.186,654,0,7,1120,626,0,16,19,0
1,2,2,1,0.45438,30.288,655,1,8,1035,612,0,16,19,0
1,1,1,3,0.36064,2.197,656,1,3,775,478,0,16,19,0
1,2,2,2,0.44001,51.186,657,1,7,1153,608,0,16,19,0
1,2,2,3,0.35731,30.288,658,1,6,1125,493,0,16,19,0
1,2,2,3,0.42034,10.604,659,1,6,1067,490,0,16,19,0
1,2,1,2,0.56668,0,660,0,2,693,551,0,16,19,0
1,2,2,3,0.51653,30.288,661,1,6,1205,523,0,16,19,0
1,1,2,2,0.59243,17.922,662,0,7,1107,616,0,16,19,0
1,1,1,2,0.34409,3.7129,663,1,2,740,544,0,16,19,0
1,2,2,2,0.44754,2.197,664,1,7,1186,580,0,16,19,0
1,1,1,3,0.69577,0,665,1,3,747,455,0,16,19,0
1,1,1,3,0.53884,51.186,666,1,3,837,539,0,16,19,0
1,2,1,2,0.31461,0,667,0,2,830,580,0,16,19,0
1,2,2,3,0.30695,10.604,668,1,6,1088,496,0,16,19,0
1,1,1,4,0.55892,0,669,1,4,792,379,0,16,19,0
1,2,1,3,0.60033,3.7129,670,0,3,817,516,0,16,19,0
1,1,1,3,0.41164,17.922,671,1,3,810,507,0,16,19,0
1,2,2,3,0.87921,10.604,672,1,6,1139,521,0,16,19,0
1,2,2,1,0.84072,6.2748,673,1,8,1028,610,0,16,19,0
1,2,1,1,0.90455,30.288,674,0,1,846,631,0,16,19,0
1,1,1,3,0.2881,6.2748,675,1,3,824,502,0,16,19,0
1,2,2,3,0.35985,2.197,676,1,6,1082,481,0,16,19,0
1,1,1,3,0.33486,0,677,1,3,883,533,0,16,19,0
1,1,2,2,0.63494,51.186,678,0,7,1070,581,0,16,19,0
1,2,2,2,0.36518,30.288,679,1,7,1029,561,0,16,19,0
1,1,1,3,0.30762,6.2748,680,1,3,720,525,0,16,19,0
1,1,1,2,0.73342,30.288,681,1,2,830,574,0,16,19,0
1,1,1,3,0.29794,17.922,682,1,3,879,508,0,16,19,0
1,1,1,2,0.23794,51.186,683,1,2,814,557,0,16,19,0
1,1,1,3,0.37731,51.186,684,1,3,861,511,0,16,19,0
1,1,1,2,0.55572,0,685,1,2,724,554,0,16,19,0
1,2,2,3,0.40471,0,686,1,6,1238,526,0,16,19,0
1,1,1,3,0.65626,51.186,687,1,3,720,443,0,16,19,0
1,2,1,2,0.36642,0,688,0,2,872,555,0,16,19,0
1,2,1,3,0.39772,0,689,0,3,863,521,0,16,19,0
1,2,2,3,0.45616,3.7129,690,1,6,1113,511,0,16,19,0
1,1,1,3,0.27651,30.288,691,1,3,742,509,0,16,19,0
1,2,2,3,1.0727,17.922,692,1,6,1163,519,0,16,19,0
1,2,2,3,0.54391,10.604,693,1,6,1106,494,0,16,19,0
1,2,2,4,0.53563,30.288,694,1,5,996,514,0,16,19,0
1,2,2,3,0.34293,6.2748,695,1,6,1011,532,0,16,19,0
1,2,2,3,0.37265,10.604,696,1,6,1070,501,0,16,19,0
1,1,1,3,0.49459,6.2748,697,1,3,745,459,0,16,19,0
1,1,1,3,0.34546,6.2748,698,1,3,860,534,0,16,19,0
1,2,2,3,0.34441,6.2748,699,1,6,1115,496,0,16,19,0
1,2,1,2,1.0282,30.288,700,0,3,716,456,1,16,19,0
1,2,2,1,0.40425,10.604,701,1,5,1097,444,1,16,19,0
1,2,2,1,0.3716,30.288,702,1,5,1008,488,1,16,19,0
1,1,1,3,0.52458,0,703,1,2,770,620,1,16,19,0
1,1,1,1,0.34291,51.186,704,1,4,831,394,1,16,19,0
1,2,2,3,0.35534,3.7129,705,1,7,1205,545,1,16,19,0
1,2,2,2,0.71811,0,706,1,6,1075,483,1,16,19,0
1,2,2,2,0.31831,51.186,707,1,6,1032,514,1,16,19,0
1,2,2,2,0.62159,6.2748,708,1,6,1119,486,1,16,19,0
1,2,1,2,0.46432,6.2748,709,0,3,720,499,1,16,19,0
1,2,2,3,1.0228,3.7129,710,1,7,1119,579,1,16,19,0
1,1,2,3,0.92815,0,711,0,7,1041,559,1,16,19,0
1,2,2,2,0.91779,30.288,712,1,6,1047,521,1,16,19,0
1,1,1,3,0.3665,0,713,1,2,723,559,1,16,19,0
1,2,1,3,0.3969,0,714,0,2,769,610,1,16,19,0
1,2,1,3,0.66179,10.604,715,0,2,683,573,1,16,19,0
1,2,1,3,0.2899,6.2748,716,0,2,888,564,1,16,19,0
1,2,1,2,0.25431,10.604,717,0,3,749,539,1,16,19,0
1,2,2,3,0.29567,2.197,718,1,7,1166,564,1,16,19,0
1,2,2,3,0.69453,6.2748,719,1,7,1033,552,1,16,19,0
1,2,2,2,0.33235,51.186,720,1,6,1182,467,1,16,19,0
1,2,1,3,0.4681,10.604,721,0,2,724,582,1,16,19,0
1,1,2,4,0.36475,10.604,722,0,8,1020,607,1,16,19,0
1,2,1,4,0.70862,3.7129,723,0,1,923,584,1,16,19,0
1,2,1,4,1.2924,10.604,724,0,1,858,635,1,16,19,0
1,2,1,4,0.49117,6.2748,725,0,1,910,604,1,16,19,0
1,1,1,4,0.57715,0,726,1,1,836,743,1,16,19,0
1,2,1,1,0.2685,51.186,727,0,4,837,440,1,16,19,0
1,1,1,3,0.38393,6.2748,728,1,2,834,571,1,16,19,0
1,2,2,3,0.39519,2.197,729,1,7,1118,571,1,16,19,0
1,2,2,3,0.34199,2.197,730,1,7,1044,562,1,16,19,0
1,1,1,3,0.28433,6.2748,731,1,2,842,598,1,16,19,0
1,2,2,1,0.39535,51.186,732,1,5,1088,395,1,16,19,0
1,2,2,3,0.34497,30.288,733,1,7,1126,579,1,16,19,0
1,1,1,3,0.25068,10.604,734,1,2,829,557,1,16,19,0
1,2,1,3,0.34875,51.186,735,0,2,881,561,1,16,19,0
1,1,1,1,0.67009,6.2748,736,1,4,825,457,1,16,19,0
1,2,1,1,0.43008,3.7129,737,0,4,841,453,1,16,19,0
1,1,1,1,0.67845,30.288,738,1,4,841,444,1,16,19,0
1,2,1,1,0.57342,51.186,739,0,4,921,479,1,16,19,0
1,2,1,3,0.27493,3.7129,740,0,2,844,551,1,16,19,0
1,1,2,2,1.0463,51.186,741,0,6,1233,496,1,16,19,0
1,1,2,2,0.41324,3.7129,742,0,6,1060,523,1,16,19,0
1,2,2,2,0.49697,30.288,743,1,6,1065,520,1,16,19,0
1,2,1,2,0.66829,30.288,744,0,3,791,525,1,16,19,0
1,2,2,3,1.2252,0,745,1,7,1101,610,1,16,19,0
1,1,1,2,0.34267,17.922,746,1,3,851,494,1,16,19,0
1,2,2,2,0.44609,10.604,747,1,6,1107,510,1,16,19,0
1,2,2,1,0.46876,30.288,748,1,5,1033,497,1,16,19,0
1,2,2,1,0.44564,10.604,749,1,5,1019,489,1,16,19,0
1,2,2,2,0.41543,17.922,750,1,6,1070,523,1,16,19,0
1,1,2,2,0.41386,2.197,751,0,6,1100,513,1,16,19,0
1,2,1,2,0.25451,2.197,752,0,3,754,516,1,16,19,0
1,1,1,3,0.31886,10.604,753,1,2,822,586,1,16,19,0
1,1,1,3,0.31255,0,754,1,2,855,550,1,16,19,0
1,2,1,2,0.19028,51.186,755,0,3,776,488,1,16,19,0
1,2,1,4,0.23903,17.922,756,0,1,925,570,1,16,19,0
1,2,2,3,0.34426,2.197,757,1,7,1165,559,1,16,19,0
1,2,1,2,0.78726,30.288,758,0,3,846,532,1,16,19,0
1,2,1,3,0.46536,3.7129,759,0,2,773,585,1,16,19,0
1,2,1,3,0.45271,17.922,760,0,2,733,573,1,16,19,0
1,1,1,3,0.3901,17.922,761,1,2,715,663,1,16,19,0
1,1,1,2,0.34804,6.2748,762,1,3,813,536,1,16,19,0
1,1,1,3,0.31242,10.604,763,1,2,924,558,1,16,19,0
1,1,1,3,0.40015,2.197,764,1,2,900,550,1,16,19,0
1,2,1,3,1.0915,10.604,765,0,2,869,557,1,16,19,0
1,2,2,2,0.44646,17.922,766,1,6,1210,534,1,16,19,0
1,1,1,3,0.57181,2.197,767,1,2,827,568,1,16,19,0
1,1,1,3,0.35425,0,768,1,2,718,619,1,16,19,0
1,2,2,3,0.42466,10.604,769,1,7,1024,551,1,16,19,0
1,2,2,3,0.37826,0,770,1,7,1119,553,1,16,19,0
1,2,1,3,0.24862,2.197,771,0,2,791,572,1,16,19,0
1,1,1,3,0.27463,17.922,772,1,2,851,568,1,16,19,0
1,2,1,2,0.53204,0,773,0,3,845,517,1,16,19,0
1,1,1,3,0.74038,30.288,774,1,2,892,574,1,16,19,0
1,2,2,2,0.78321,17.922,775,1,6,1233,500,1,16,19,0
1,1,2,3,0.36744,0,776,0,7,1092,556,1,16,19,0
1,1,2,4,0.36116,0,777,0,8,984,574,1,16,19,0
1,2,2,3,0.34215,17.922,778,1,7,1017,543,1,16,19,0
1,1,2,2,0.39575,30.288,779,0,6,1019,537,1,16,19,0
1,2,2,2,0.43915,51.186,780,1,6,1243,499,1,16,19,0
1,1,1,3,0.53897,3.7129,781,1,2,754,603,1,16,19,0
1,1,1,3,1.0429,2.197,782,1,2,796,591,1,16,19,0
1,1,1,3,0.35424,0,783,1,2,710,559,1,16,19,0
1,1,1,3,0.30832,10.604,784,1,2,831,581,1,16,19,0
1,1,1,3,0.31903,3.7129,785,1,2,803,574,1,16,19,0
1,1,1,3,0.34175,6.2748,786,1,2,905,566,1,16,19,0
1,1,1,3,0.41457,2.197,787,1,2,896,551,1,16,19,0
1,2,2,3,0.32839,17.922,788,1,7,1097,572,1,16,19,0
1,2,2,3,0.33645,3.7129,789,1,7,1027,570,1,16,19,0
1,2,2,2,0.3655,0,790,1,6,1041,527,1,16,19,0
1,1,1,3,0.5555,3.7129,791,1,2,764,589,1,16,19,0
1,1,1,3,0.43681,17.922,792,1,2,818,555,1,16,19,0
1,2,1,4,0.24454,17.922,793,0,1,909,571,1,16,19,0
1,1,1,2,0.3815,51.186,794,1,3,744,473,1,16,19,0
1,2,2,2,0.34857,0,795,1,6,1124,520,1,16,19,0
1,1,1,2,0.74963,2.197,796,1,3,882,536,1,16,19,0
1,1,2,1,0.45601,17.922,797,0,5,1112,446,1,16,19,0
1,2,1,1,0.22331,51.186,798,0,4,917,511,1,16,19,0
1,2,2,2,0.66868,2.197,799,1,6,1096,524,1,16,19,0
1,2,2,1,0.38311,3.7129,800,1,5,1040,438,1,16,19,0
1,2,1,3,1.5989,6.2748,1,0,3,778,506,0,16,19,0
1,2,1,3,0.30785,10.604,2,0,3,757,536,0,16,19,0
1,1,1,3,0.36692,3.7129,3,1,3,764,500,0,16,19,0
1,2,2,3,0.29301,3.7129,4,1,6,1110,537,0,16,19,0
1,2,2,4,0.37966,17.922,5,1,5,1015,504,0,16,19,0
1,2,2,2,0.35068,6.2748,6,1,7,1016,551,0,16,19,0
1,2,2,3,0.58174,0,7,1,6,1010,523,0,16,19,0
1,2,2,3,0.32596,30.288,8,1,6,1108,516,0,16,19,0
1,2,2,3,0.29509,2.197,9,1,6,1025,518,0,16,19,0
1,1,2,3,0.3357,30.288,10,0,6,1034,515,0,16,19,0
1,2,2,3,0.48393,30.288,11,1,6,1043,522,0,16,19,0
1,2,1,3,0.55178,6.2748,12,0,3,686,495,0,16,19,0
1,1,1,3,0.27816,0,13,1,3,860,528,0,16,19,0
1,1,1,3,0.25856,3.7129,14,1,3,880,505,0,16,19,0
1,2,2,3,0.32289,0,15,1,6,1193,518,0,16,19,0
1,1,1,3,0.29917,6.2748,16,1,3,712,515,0,16,19,0
1,1,1,3,0.40425,6.2748,17,1,3,851,519,0,16,19,0
1,1,1,3,0.25954,2.197,18,1,3,829,510,0,16,19,0
1,2,1,3,0.2969,17.922,19,0,3,880,517,0,16,19,0
1,2,1,3,0.35437,0,20,0,3,888,503,0,16,19,0
1,2,1,3,0.45653,17.922,21,0,3,848,526,0,16,19,0
1,1,1,3,0.33098,17.922,22,1,3,860,512,0,16,19,0
1,1,1,3,0.3959,51.186,23,1,3,826,525,0,16,19,0
1,1,1,3,0.34133,6.2748,24,1,3,784,518,0,16,19,0
1,2,1,2,0.33507,2.197,25,0,2,821,541,0,16,19,0
1,1,1,3,0.22838,10.604,26,1,3,871,490,0,16,19,0
1,2,1,2,0.39274,3.7129,27,0,2,807,562,0,16,19,0
1,1,1,3,0.53582,6.2748,28,1,3,842,533,0,16,19,0
1,1,1,3,0.40691,3.7129,29,1,3,854,506,0,16,19,0
1,1,1,3,0.4742,3.7129,30,1,3,905,534,0,16,19,0
1,1,1,3,0.37449,6.2748,31,1,3,895,525,0,16,19,0
1,2,1,2,0.43145,51.186,32,0,2,811,541,0,16,19,0
1,1,1,3,0.42746,6.2748,33,1,3,873,492,0,16,19,0
1,2,1,2,0.41661,51.186,34,0,2,889,547,0,16,19,0
1,1,1,3,0.24335,3.7129,35,1,3,895,527,0,16,19,0
1,2,1,3,0.51279,2.197,36,0,3,773,464,0,16,19,0
1,2,1,3,0.35894,10.604,37,0,3,859,525,0,16,19,0
1,2,2,3,0.51473,6.2748,38,1,6,1177,512,0,16,19,0
1,1,1,3,0.24352,3.7129,39,1,3,807,512,0,16,19,0
1,1,1,3,0.35676,3.7129,40,1,3,805,490,0,16,19,0
1,2,2,3,0.27415,6.2748,41,1,6,1126,537,0,16,19,0
1,2,2,3,0.24924,0,42,1,6,1163,497,0,16,19,0
1,2,1,3,0.28947,17.922,43,0,3,824,534,0,16,19,0
1,2,1,3,0.38435,0,44,0,3,792,500,0,16,19,0
1,1,1,3,0.64329,10.604,45,1,3,874,533,0,16,19,0
1,1,1,3,0.36394,30.288,46,1,3,830,526,0,16,19,0
1,1,1,3,0.31462,2.197,47,1,3,910,535,0,16,19,0
1,1,1,3,0.45265,51.186,48,1,3,892,523,0,16,19,0
1,2,1,3,0.27694,30.288,49,0,3,891,522,0,16,19,0
1,1,1,3,0.34902,0,50,1,3,843,522,0,16,19,0
1,2,1,3,0.46437,6.2748,51,0,3,873,515,0,16,19,0
1,1,1,3,0.24738,0,52,1,3,882,524,0,16,19,0
1,1,1,3,0.41039,51.186,53,1,3,899,531,0,16,19,0
1,1,1,3,0.47769,3.7129,54,1,3,859,532,0,16,19,0
1,1,1,3,0.44002,2.197,55,1,3,796,524,0,16,19,0
1,1,1,2,0.35089,10.604,56,1,2,809,567,0,16,19,0
1,2,1,3,0.42838,30.288,57,0,3,874,535,0,16,19,0
1,2,1,3,0.27575,3.7129,58,0,3,897,524,0,16,19,0
1,2,2,3,0.52368,6.2748,59,1,6,1194,499,0,16,19,0
1,1,1,3,0.26129,17.922,60,1,3,755,503,0,16,19,0
1,1,1,3,0.35555,2.197,61,1,3,897,532,0,16,19,0
1,1,1,3,0.23362,17.922,62,1,3,850,529,0,16,19,0
1,2,2,3,0.45241,2.197,63,1,6,1183,529,0,16,19,0
1,2,2,2,0.34973,0,64,1,7,1221,565,0,16,19,0
1,2,1,3,0.27337,30.288,65,0,3,783,518,0,16,19,0
1,1,1,3,0.30867,2.197,66,1,3,894,530,0,16,19,0
1,2,2,1,0.31848,30.288,67,1,8,1117,684,0,16,19,0
1,1,1,3,0.44319,6.2748,68,1,3,750,464,0,16,19,0
1,2,1,2,0.66508,51.186,69,0,2,846,578,0,16,19,0
1,2,1,3,0.80439,30.288,70,0,3,769,484,0,16,19,0
1,2,1,1,0.3965,51.186,71,0,1,847,617,0,16,19,0
1,1,2,1,0.63715,10.604,72,0,8,1099,634,0,16,19,0
1,2,2,3,0.36346,10.604,73,1,6,1075,477,0,16,19,0
1,1,2,1,0.48363,51.186,74,0,8,1038,605,0,16,19,0
1,2,2,2,0.38237,51.186,75,1,7,1029,559,0,16,19,0
1,2,2,3,0.47739,6.2748,76,1,6,1133,503,0,16,19,0
1,2,2,4,0.49091,0,77,1,5,1075,413,0,16,19,0
1,1,1,4,0.31869,17.922,78,1,4,828,390,0,16,19,0
1,1,1,4,0.33101,17.922,79,1,4,871,437,0,16,19,0
1,1,1,4,0.66801,6.2748,80,1,4,894,479,0,16,19,0
1,2,2,1,0.5621,51.186,81,1,8,1128,686,0,16,19,0
1,2,2,1,0.61279,51.186,82,1,8,1144,657,0,16,19,0
1,1,1,3,0.5778,17.922,83,1,3,722,533,0,16,19,0
1,1,1,3,0.52189,2.197,84,1,3,827,464,0,16,19,0
1,1,1,3,0.39121,2.197,85,1,3,855,504,0,16,19,0
1,2,2,2,0.75601,30.288,86,1,7,1164,632,0,16,19,0
1,1,1,2,0.52187,3.7129,87,1,2,765,541,0,16,19,0
1,1,1,3,0.35829,17.922,88,1,3,911,524,0,16,19,0
1,2,2,3,0.34539,10.604,89,1,6,1061,537,0,16,19,0
1,1,2,2,0.8373,17.922,90,0,7,1076,590,0,16,19,0
1,1,1,3,0.3464,17.922,91,1,3,876,534,0,16,19,0
1,1,1,3,0.29075,17.922,92,1,3,822,502,0,16,19,0
1,2,1,3,0.50941,51.186,93,0,3,795,508,0,16,19,0
1,1,1,3,0.30369,2.197,94,1,3,864,486,0,16,19,0
1,1,1,4,0.2732,30.288,95,1,4,903,473,0,16,19,0
1,1,1,4,0.79196,17.922,96,1,4,846,394,0,16,19,0
1,1,1,4,0.54392,30.288,97,1,4,889,441,0,16,19,0
1,2,2,3,0.45876,51.186,98,1,6,1070,508,0,16,19,0
1,1,1,2,0.60092,10.604,99,1,2,799,568,0,16,19,0
1,1,1,2,0.61582,10.604,100,1,3,684,502,1,16,19,0
1,2,1,3,0.3473,17.922,101,0,2,796,575,1,16,19,0
1,2,1,3,0.40761,0,102,0,2,715,573,1,16,19,0
1,1,1,3,0.32506,30.288,103,1,2,806,584,1,16,19,0
1,2,1,3,0.56831,10.604,104,0,2,735,604,1,16,19,0
1,1,1,3,0.58774,30.288,105,1,2,766,571,1,16,19,0
1,2,1,3,0.98275,2.197,106,0,2,749,586,1,16,19,0
1,2,1,3,0.48873,17.922,107,0,2,854,564,1,16,19,0
1,1,1,4,0.3817,17.922,108,1,1,787,644,1,16,19,0
1,2,2,3,0.2795,3.7129,109,1,7,1096,543,1,16,19,0
1,2,2,3,0.40778,30.288,110,1,7,1047,558,1,16,19,0
1,1,2,2,0.25116,51.186,111,0,6,1019,535,1,16,19,0
1,1,1,3,0.2152,0,112,1,2,792,593,1,16,19,0
1,2,2,3,0.55636,6.2748,113,1,7,1044,554,1,16,19,0
1,1,1,3,0.28061,30.288,114,1,2,794,595,1,16,19,0
1,2,2,2,0.30797,51.186,115,1,6,1122,514,1,16,19,0
1,1,1,2,0.85841,2.197,116,1,3,690,470,1,16,19,0
1,1,1,4,0.34768,10.604,117,1,1,815,627,1,16,19,0
1,1,1,3,0.33539,0,118,1,2,857,572,1,16,19,0
1,2,2,3,0.28633,0,119,1,7,1057,562,1,16,19,0
1,1,2,3,0.34082,30.288,120,0,7,1074,566,1,16,19,0
1,2,2,3,0.29045,6.2748,121,1,7,1074,555,1,16,19,0
1,2,1,3,0.26411,30.288,122,0,2,772,546,1,16,19,0
1,2,1,4,0.27978,17.922,123,0,1,924,567,1,16,19,0
1,1,1,3,0.31284,51.186,124,1,2,822,550,1,16,19,0
1,2,1,3,0.72988,17.922,125,0,2,867,553,1,16,19,0
1,1,1,3,0.35353,0,126,1,2,856,561,1,16,19,0
1,1,1,2,0.39576,17.922,127,1,3,913,539,1,16,19,0
1,1,1,3,0.18828,10.604,128,1,2,895,564,1,16,19,0
1,2,1,3,0.4652,2.197,129,0,2,895,561,1,16,19,0
1,1,1,3,0.20428,6.2748,130,1,2,789,557,1,16,19,0
1,2,1,3,0.2223,0,131,0,2,725,556,1,16,19,0
1,1,1,3,0.26834,17.922,132,1,2,798,554,1,16,19,0
1,1,1,4,0.39002,2.197,133,1,1,863,621,1,16,19,0
1,1,1,3,0.34249,6.2748,134,1,2,881,561,1,16,19,0
1,1,1,3,0.22712,17.922,135,1,2,913,554,1,16,19,0
1,2,1,2,0.29679,51.186,136,0,3,738,537,1,16,19,0
1,1,1,2,0.44092,30.288,137,1,3,878,499,1,16,19,0
1,1,1,3,0.35057,3.7129,138,1,2,816,598,1,16,19,0
1,1,1,3,0.33393,6.2748,139,1,2,817,599,1,16,19,0
1,1,1,3,0.30186,10.604,140,1,2,852,544,1,16,19,0
1,2,1,3,0.43411,3.7129,141,0,2,801,585,1,16,19,0
1,1,1,3,0.23392,30.288,142,1,2,886,553,1,16,19,0
1,2,1,3,0.23595,17.922,143,0,2,829,572,1,16,19,0
1,2,1,3,0.2583,17.922,144,0,2,857,544,1,16,19,0
1,1,1,3,0.49327,0,145,1,2,904,559,1,16,19,0
1,2,2,3,0.24661,2.197,146,1,7,1226,585,1,16,19,0
1,1,1,3,0.45666,10.604,147,1,2,796,580,1,16,19,0
1,2,2,3,0.30873,3.7129,148,1,7,1137,542,1,16,19,0
1,2,2,3,0.19773,17.922,149,1,7,1071,555,1,16,19,0
1,2,2,3,0.52371,10.604,150,1,7,1006,553,1,16,19,0
1,2,2,3,0.72695,17.922,151,1,7,1016,544,1,16,19,0
1,2,2,2,0.20783,0,152,1,6,1000,532,1,16,19,0
1,1,2,2,0.39749,51.186,153,0,6,1085,516,1,16,19,0
1,1,1,3,0.41051,2.197,154,1,2,748,574,1,16,19,0
1,2,1,1,0.35863,51.186,155,0,4,919,475,1,16,19,0
1,1,1,2,0.44389,3.7129,156,1,3,823,539,1,16,19,0
1,1,1,2,0.40458,30.288,157,1,3,822,511,1,16,19,0
1,2,1,1,0.37661,2.197,158,0,4,861,433,1,16,19,0
1,1,2,1,0.60264,30.288,159,0,5,1103,390,1,16,19,0
1,2,2,3,0.32803,0,160,1,7,1044,578,1,16,19,0
1,1,2,3,0.36468,3.7129,161,0,7,1145,591,1,16,19,0
1,1,1,2,0.27743,51.186,162,1,3,808,536,1,16,19,0
1,1,1,2,0.20343,30.288,163,1,3,870,538,1,16,19,0
1,2,2,3,0.25387,6.2748,164,1,7,1185,598,1,16,19,0
1,2,2,1,0.4201,30.288,165,1,5,1136,420,1,16,19,0
1,1,1,3,0.33183,3.7129,166,1,2,801,571,1,16,19,0
1,1,1,3,0.22153,6.2748,167,1,2,885,541,1,16,19,0
1,1,1,3,0.27223,6.2748,168,1,2,868,566,1,16,19,0
1,2,1,2,0.35187,3.7129,169,0,3,820,539,1,16,19,0
1,2,2,3,0.52711,6.2748,170,1,7,1220,590,1,16,19,0
1,1,1,3,0.75227,51.186,171,1,2,826,558,1,16,19,0
1,1,1,3,0.44655,3.7129,172,1,2,924,560,1,16,19,0
1,2,2,3,0.34667,3.7129,173,1,7,1067,552,1,16,19,0
1,1,1,3,0.96913,0,174,1,2,720,578,1,16,19,0
1,2,1,2,0.49756,51.186,175,0,3,694,468,1,16,19,0
1,2,2,3,0.3751,17.922,176,1,7,1152,617,1,16,19,0
1,1,2,2,0.28967,30.288,177,0,6,1236,538,1,16,19,0
1,1,2,2,0.5014,51.186,178,0,6,1045,537,1,16,19,0
1,2,2,2,0.37054,2.197,179,1,6,1060,539,1,16,19,0
1,2,2,3,0.31522,30.288,180,1,7,1032,570,1,16,19,0
1,1,2,3,0.37018,6.2748,181,0,7,1028,549,1,16,19,0
1,1,1,3,0.49161,10.604,182,1,2,730,623,1,16,19,0
1,2,1,1,0.40413,51.186,183,0,4,751,344,1,16,19,0
1,2,1,1,0.42825,51.186,184,0,4,821,450,1,16,19,0
1,1,1,3,0.32264,0,185,1,2,722,555,1,16,19,0
1,2,2,1,0.30137,30.288,186,1,5,1080,468,1,16,19,0
1,2,2,1,0.34263,30.288,187,1,5,1018,482,1,16,19,0
1,2,2,1,0.65901,30.288,188,1,5,1000,503,1,16,19,0
1,2,2,1,0.2091,0,189,1,5,1004,513,1,16,19,0
1,2,2,1,0.30843,30.288,190,1,5,1003,468,1,16,19,0
1,1,1,1,0.43112,51.186,191,1,4,885,438,1,16,19,0
1,2,1,2,0.41181,30.288,192,0,3,780,525,1,16,19,0
1,2,1,4,0.28187,3.7129,193,0,1,908,571,1,16,19,0
1,2,1,3,0.64205,17.922,194,0,2,906,548,1,16,19,0
1,2,1,3,0.42265,51.186,195,0,2,699,550,1,16,19,0
1,1,1,3,0.43296,10.604,196,1,2,787,580,1,16,19,0
1,2,1,3,0.35094,2.197,197,0,2,867,574,1,16,19,0
1,2,1,2,0.35365,10.604,198,0,3,867,520,1,16,19,0
1,1,1,3,0.72193,10.604,199,1,2,809,573,1,16,19,0
1,2,1,2,0.35168,2.197,200,0,2,806,554,0,16,19,0
1,2,1,2,0.2057,17.922,201,0,2,868,564,0,16,19,0
1,1,1,2,0.12675,10.604,202,1,2,826,571,0,16,19,0
1,2,1,4,0.19745,2.197,203,0,4,825,452,0,16,19,0
1,2,2,4,0.23381,0,204,1,5,1044,486,0,16,19,0
1,1,1,4,0.37145,17.922,205,1,4,781,381,0,16,19,0
1,2,2,4,0.42211,2.197,206,1,5,1180,370,0,16,19,0
1,1,1,4,0.37356,2.197,207,1,4,808,435,0,16,19,0
1,2,2,4,0.41986,10.604,208,1,5,1066,445,0,16,19,0
1,2,2,2,0.36626,51.186,209,1,7,1115,551,0,16,19,0
1,2,1,2,0.4209,30.288,210,0,2,868,588,0,16,19,0
1,2,2,3,0.78091,10.604,211,1,6,1194,482,0,16,19,0
1,2,1,3,0.3827,6.2748,212,0,3,726,444,0,16,19,0
1,2,2,4,0.33174,3.7129,213,1,5,1036,459,0,16,19,0
1,2,2,4,0.60186,2.197,214,1,5,1017,481,0,16,19,0
1,2,2,1,0.31506,30.288,215,1,8,1049,608,0,16,19,0
1,1,1,3,0.25142,0,216,1,3,778,448,0,16,19,0
1,2,2,3,0.33276,2.197,217,1,6,1079,494,0,16,19,0
1,2,2,4,0.48009,3.7129,218,1,5,1077,465,0,16,19,0
1,2,1,4,1.0165,3.7129,219,0,4,720,388,0,16,19,0
1,1,1,4,0.43093,10.604,220,1,4,873,413,0,16,19,0
1,2,2,4,0.45083,6.2748,221,1,5,1171,374,0,16,19,0
1,2,1,4,0.88549,10.604,222,0,4,758,361,0,16,19,0
1,1,1,4,0.43356,2.197,223,1,4,879,477,0,16,19,0
1,2,2,3,0.3643,3.7129,224,1,6,1066,480,0,16,19,0
1,1,1,4,0.46102,30.288,225,1,4,773,410,0,16,19,0
1,2,2,4,0.46131,2.197,226,1,5,1085,430,0,16,19,0
1,2,2,4,0.69822,30.288,227,1,5,1009,487,0,16,19,0
1,1,1,4,0.4024,2.197,228,1,4,793,420,0,16,19,0
1,2,2,3,0.33581,17.922,229,1,6,1193,422,0,16,19,0
1,2,2,4,0.36607,3.7129,230,1,5,1034,492,0,16,19,0
1,2,1,3,0.23444,17.922,231,0,3,830,505,0,16,19,0
1,1,1,3,0.23881,6.2748,232,1,3,799,455,0,16,19,0
1,2,2,3,0.21118,0,233,1,6,1190,515,0,16,19,0
1,1,1,4,0.29127,6.2748,234,1,4,764,418,0,16,19,0
1,1,1,3,0.25893,0,235,1,3,747,429,0,16,19,0
1,1,1,4,0.27021,0,236,1,4,902,471,0,16,19,0
1,2,2,4,0.25791,2.197,237,1,5,1130,416,0,16,19,0
1,2,2,4,0.27961,3.7129,238,1,5,1044,439,0,16,19,0
1,2,2,3,0.28097,3.7129,239,1,6,1026,517,0,16,19,0
1,1,1,4,0.20127,3.7129,240,1,4,815,425,0,16,19,0
1,2,2,4,0.25271,0,241,1,5,1042,447,0,16,19,0
1,1,1,4,0.25566,0,242,1,4,829,432,0,16,19,0
1,2,2,4,0.26485,3.7129,243,1,5,1015,468,0,16,19,0
1,1,1,4,0.27378,30.288,244,1,4,842,405,0,16,19,0
1,1,1,3,0.25474,10.604,245,1,3,801,461,0,16,19,0
1,2,2,4,0.26974,6.2748,246,1,5,1070,412,0,16,19,0
1,2,2,4,0.24546,3.7129,247,1,5,1016,467,0,16,19,0
1,2,2,4,0.36775,3.7129,248,1,5,1033,463,0,16,19,0
1,2,2,3,0.27984,17.922,249,1,6,1058,507,0,16,19,0
1,2,2,4,0.24287,17.922,250,1,5,1043,414,0,16,19,0
1,2,2,4,0.2669,6.2748,251,1,5,1069,415,0,16,19,0
1,1,1,4,0.21848,0,252,1,4,784,333,0,16,19,0
1,1,1,4,0.38116,2.197,253,1,4,783,391,0,16,19,0
1,1,1,4,0.43971,10.604,254,1,4,793,331,0,16,19,0
1,1,1,4,0.18772,17.922,255,1,4,842,422,0,16,19,0
1,1,1,4,0.22102,3.7129,256,1,4,827,402,0,16,19,0
1,1,1,4,0.16741,30.288,257,1,4,880,446,0,16,19,0
1,2,2,4,0.22102,3.7129,258,1,5,999,503,0,16,19,0
1,2,2,4,0.2105,0,259,1,5,1031,457,0,16,19,0
1,2,2,4,0.16547,3.7129,260,1,5,1089,412,0,16,19,0
1,1,1,4,0.1854,30.288,261,1,4,831,428,0,16,19,0
1,2,2,4,0.21344,6.2748,262,1,5,1106,412,0,16,19,0
1,2,2,3,0.24317,17.922,263,1,6,1112,478,0,16,19,0
1,2,2,4,0.39395,2.197,264,1,5,1032,467,0,16,19,0
1,1,2,3,0.2139,51.186,265,0,6,1164,491,0,16,19,0
1,1,1,3,0.20555,51.186,266,1,3,880,526,0,16,19,0
1,2,2,4,0.24427,3.7129,267,1,5,1062,457,0,16,19,0
1,1,1,4,0.29121,30.288,268,1,4,791,435,0,16,19,0
1,2,2,3,0.23996,17.922,269,1,6,1064,495,0,16,19,0
1,1,1,3,0.25201,3.7129,270,1,3,789,488,0,16,19,0
1,1,2,4,0.23145,30.288,271,0,5,1016,452,0,16,19,0
1,2,1,4,1.5512,6.2748,272,0,4,820,323,0,16,19,0
1,2,2,4,0.20801,3.7129,273,1,5,1050,423,0,16,19,0
1,1,1,4,0.29872,2.197,274,1,4,887,422,0,16,19,0
1,2,2,4,0.30382,2.197,275,1,5,1030,456,0,16,19,0
1,2,2,3,0.15714,10.604,276,1,6,1005,526,0,16,19,0
1,1,1,4,0.19744,2.197,277,1,4,849,459,0,16,19,0
1,2,2,4,0.23174,3.7129,278,1,5,1131,354,0,16,19,0
1,2,2,4,0.51137,2.197,279,1,5,1022,472,0,16,19,0
1,1,2,4,0.56854,51.186,280,0,5,1152,418,0,16,19,0
1,2,2,4,0.48352,3.7129,281,1,5,1128,339,0,16,19,0
1,2,2,4,0.26453,6.2748,282,1,5,1106,373,0,16,19,0
1,1,1,2,0.33131,51.186,283,1,2,760,582,0,16,19,0
1,1,1,4,0.51685,3.7129,284,1,4,862,409,0,16,19,0
1,1,1,2,0.30075,51.186,285,1,2,765,643,0,16,19,0
1,2,2,4,0.23703,3.7129,286,1,5,1109,426,0,16,19,0
1,1,1,3,0.43041,10.604,287,1,3,792,486,0,16,19,0
1,2,2,3,0.22847,2.197,288,1,6,1161,480,0,16,19,0
1,1,1,4,0.52156,3.7129,289,1,4,761,377,0,16,19,0
1,2,2,4,0.21482,0,290,1,5,1141,413,0,16,19,0
1,2,2,4,0.20512,3.7129,291,1,5,1057,459,0,16,19,0
1,1,1,4,0.28425,0,292,1,4,850,476,0,16,19,0
1,1,1,4,0.40804,17.922,293,1,4,918,484,0,16,19,0
1,2,1,2,0.23049,30.288,294,0,2,765,635,0,16,19,0
1,2,2,1,0.61434,17.922,295,1,8,1037,607,0,16,19,0
1,1,1,4,0.18495,10.604,296,1,4,862,431,0,16,19,0
1,2,1,1,0.25598,51.186,297,0,1,842,650,0,16,19,0
1,2,1,3,0.22726,51.186,298,0,3,790,486,0,16,19,0
1,2,2,3,0.4596,6.2748,299,1,6,1015,514,0,16,19,0
1,2,2,3,0.42703,0,300,1,7,1126,621,1,16,19,0
1,1,1,2,0.30314,6.2748,301,1,3,758,513,1,16,19,0
1,2,2,1,0.33945,17.922,302,1,5,1105,397,1,16,19,0
1,2,2,1,0.33246,6.2748,303,1,5,1034,493,1,16,19,0
1,1,1,2,0.21948,6.2748,304,1,3,832,490,1,16,19,0
1,2,2,1,0.32889,6.2748,305,1,5,1037,424,1,16,19,0
1,1,1,1,0.29627,3.7129,306,1,4,781,421,1,16,19,0
1,1,1,3,0.34718,17.922,307,1,2,728,600,1,16,19,0
1,1,1,3,0.26855,17.922,308,1,2,839,556,1,16,19,0
1,2,2,3,0.25428,6.2748,309,1,7,1137,622,1,16,19,0
1,2,2,1,0.43358,30.288,310,1,5,1116,305,1,16,19,0
1,2,1,1,0.38923,2.197,311,0,4,783,358,1,16,19,0
1,2,2,1,0.43469,6.2748,312,1,5,1059,398,1,16,19,0
1,2,2,1,0.30177,6.2748,313,1,5,1068,430,1,16,19,0
1,1,1,4,0.21235,17.922,314,1,1,877,608,1,16,19,0
1,1,1,2,0.23842,2.197,315,1,3,812,519,1,16,19,0
1,1,1,2,0.1641,51.186,316,1,3,905,512,1,16,19,0
1,2,2,3,0.2958,2.197,317,1,7,1132,567,1,16,19,0
1,1,1,4,0.25778,0,318,1,1,859,610,1,16,19,0
1,1,1,4,0.45268,10.604,319,1,1,872,622,1,16,19,0
1,2,2,4,0.34688,17.922,320,1,8,1062,618,1,16,19,0
1,1,2,1,0.19525,51.186,321,0,5,1000,477,1,16,19,0
1,1,1,2,0.37922,10.604,322,1,3,729,475,1,16,19,0
1,1,1,3,0.26928,2.197,323,1,2,869,541,1,16,19,0
1,1,1,3,0.38923,17.922,324,1,2,742,580,1,16,19,0
1,1,1,3,0.27088,10.604,325,1,2,699,636,1,16,19,0
1,1,1,3,0.34268,10.604,326,1,2,860,571,1,16,19,0
1,2,1,3,0.306,3.7129,327,0,2,901,556,1,16,19,0
1,2,2,2,0.52305,10.604,328,1,6,1144,523,1,16,19,0
1,2,1,2,0.36869,6.2748,329,0,3,679,529,1,16,19,0
1,1,1,3,0.55539,10.604,330,1,2,728,608,1,16,19,0
1,1,1,2,0.34647,2.197,331,1,3,886,529,1,16,19,0
1,2,2,3,0.4301,17.922,332,1,7,1102,572,1,16,19,0
1,2,2,3,0.51251,2.197,333,1,7,1053,570,1,16,19,0
1,2,1,3,0.36623,2.197,334,0,2,836,591,1,16,19,0
1,1,1,3,0.26294,2.197,335,1,2,876,545,1,16,19,0
1,2,2,1,0.64596,51.186,336,1,5,1167,368,1,16,19,0
1,2,2,3,0.32496,0,337,1,7,1171,604,1,16,19,0
1,1,2,1,0.36698,51.186,338,0,5,1166,391,1,16,19,0
1,2,2,4,0.84346,2.197,339,1,8,1053,634,1,16,19,0
1,1,1,4,0.38864,2.197,340,1,1,829,686,1,16,19,0
1,2,1,2,0.21963,51.186,341,0,3,803,509,1,16,19,0
1,2,1,3,0.38209,17.922,342,0,2,724,561,1,16,19,0
1,2,1,2,0.4,30.288,343,0,3,830,514,1,16,19,0
1,1,1,4,0.19877,0,344,1,1,897,578,1,16,19,0
1,2,1,3,0.27113,10.604,345,0,2,880,578,1,16,19,0
1,2,2,3,0.25653,3.7129,346,1,7,1211,544,1,16,19,0
1,2,1,3,0.5023,51.186,347,0,2,838,573,1,16,19,0
1,2,2,2,0.27115,6.2748,348,1,6,1052,537,1,16,19,0
1,2,2,4,0.50962,30.288,349,1,8,1045,652,1,16,19,0
1,1,1,3,0.46363,6.2748,350,1,2,770,593,1,16,19,0
1,1,1,4,0.47419,10.604,351,1,1,864,598,1,16,19,0
1,1,1,2,0.39179,51.186,352,1,3,814,489,1,16,19,0
1,1,1,4,0.35062,10.604,353,1,1,896,628,1,16,19,0
1,1,1,3,0.27168,3.7129,354,1,2,769,560,1,16,19,0
1,2,2,4,0.86518,2.197,355,1,8,1136,673,1,16,19,0
1,2,2,3,0.39235,3.7129,356,1,7,1118,584,1,16,19,0
1,2,2,3,0.34267,2.197,357,1,7,1015,562,1,16,19,0
1,2,2,3,0.39428,6.2748,358,1,7,1014,552,1,16,19,0
1,2,2,3,0.58862,3.7129,359,1,7,1045,551,1,16,19,0
1,1,1,3,0.29555,10.604,360,1,2,847,578,1,16,19,0
1,1,1,2,0.30441,30.288,361,1,3,814,521,1,16,19,0
1,1,1,4,0.27782,3.7129,362,1,1,833,627,1,16,19,0
1,2,2,3,0.5639,17.922,363,1,7,1112,571,1,16,19,0
1,2,2,4,0.54959,2.197,364,1,8,1030,619,1,16,19,0
1,2,2,4,0.26389,6.2748,365,1,8,1032,583,1,16,19,0
1,1,1,2,0.26058,17.922,366,1,3,789,480,1,16,19,0
1,1,1,4,0.24232,3.7129,367,1,1,751,678,1,16,19,0
1,1,1,4,0.29828,2.197,368,1,1,908,586,1,16,19,0
1,1,1,3,0.22865,10.604,369,1,2,922,557,1,16,19,0
1,2,1,1,0.24499,51.186,370,0,4,861,411,1,16,19,0
1,2,1,1,0.19303,30.288,371,0,4,892,492,1,16,19,0
1,2,2,4,0.23273,2.197,372,1,8,1043,650,1,16,19,0
1,2,2,4,0.24911,10.604,373,1,8,1061,601,1,16,19,0
1,2,2,1,0.23199,0,374,1,5,1081,362,1,16,19,0
1,2,2,1,0.15583,51.186,375,1,5,1084,463,1,16,19,0
1,1,1,2,0.36576,10.604,376,1,3,775,443,1,16,19,0
1,1,1,1,0.23775,6.2748,377,1,4,775,353,1,16,19,0
1,1,1,3,0.41372,2.197,378,1,2,749,550,1,16,19,0
1,1,1,4,0.27261,3.7129,379,1,1,831,635,1,16,19,0
1,2,2,3,0.21093,0,380,1,7,1039,581,1,16,19,0
1,2,2,1,0.30332,30.288,381,1,5,1079,415,1,16,19,0
1,2,2,3,0.19354,30.288,382,1,7,1207,625,1,16,19,0
1,1,2,4,0.37124,17.922,383,0,8,1035,626,1,16,19,0
1,1,1,3,0.4316,6.2748,384,1,2,691,588,1,16,19,0
1,2,1,3,0.2877,6.2748,385,0,2,810,567,1,16,19,0
1,1,1,2,0.234,30.288,386,1,3,865,517,1,16,19,0
1,1,1,4,0.20706,3.7129,387,1,1,862,636,1,16,19,0
1,2,2,4,0.24544,2.197,388,1,8,1011,605,1,16,19,0
1,2,2,4,0.35936,30.288,389,1,8,1030,594,1,16,19,0
1,2,2,1,0.33148,51.186,390,1,5,1053,449,1,16,19,0
1,1,1,3,0.25146,10.604,391,1,2,740,624,1,16,19,0
1,1,1,4,0.47022,10.604,392,1,1,867,657,1,16,19,0
1,2,1,4,0.21626,0,393,0,1,821,652,1,16,19,0
1,2,1,1,0.31022,10.604,394,0,4,788,387,1,16,19,0
1,1,1,3,0.60205,3.7129,395,1,2,720,606,1,16,19,0
1,2,2,2,0.26325,6.2748,396,1,6,1230,462,1,16,19,0
1,2,2,4,0.40938,10.604,397,1,8,1083,641,1,16,19,0
1,1,1,3,0.43865,0,398,1,2,762,589,1,16,19,0
1,1,1,3,0.27375,30.288,399,1,2,870,576,1,16,19,0
1,1,1,1,0.44887,17.922,400,1,1,858,600,0,16,19,0
1,2,2,3,0.30886,0,401,1,6,1138,454,0,16,19,0
1,1,1,4,0.54374,2.197,402,1,4,855,434,0,16,19,0
1,2,2,4,0.31885,6.2748,403,1,5,1135,433,0,16,19,0
1,1,1,4,0.42023,2.197,404,1,4,784,393,0,16,19,0
1,1,2,4,0.62081,10.604,405,0,5,1154,405,0,16,19,0
1,1,1,2,0.46292,30.288,406,1,2,754,583,0,16,19,0
1,1,1,2,0.32661,30.288,407,1,2,818,543,0,16,19,0
1,1,1,2,0.18107,0,408,1,2,849,555,0,16,19,0
1,1,1,2,0.15674,3.7129,409,1,2,845,555,0,16,19,0
1,2,1,1,0.28876,2.197,410,0,1,921,566,0,16,19,0
1,1,1,3,0.2339,17.922,411,1,3,879,530,0,16,19,0
1,2,1,3,0.25972,51.186,412,0,3,824,537,0,16,19,0
1,1,1,2,0.40347,51.186,413,1,2,914,555,0,16,19,0
1,2,1,2,0.25156,51.186,414,0,2,865,552,0,16,19,0
1,1,1,2,0.37775,17.922,415,1,2,816,547,0,16,19,0
1,2,1,3,0.39505,2.197,416,0,3,793,486,0,16,19,0
1,1,1,3,0.69546,30.288,417,1,3,882,539,0,16,19,0
1,1,1,4,0.37925,10.604,418,1,4,869,485,0,16,19,0
1,1,1,3,0.47791,6.2748,419,1,3,843,511,0,16,19,0
1,1,1,3,0.47916,2.197,420,1,3,868,534,0,16,19,0
1,2,1,2,0.30134,2.197,421,0,2,753,570,0,16,19,0
1,1,1,3,0.45171,6.2748,422,1,3,869,521,0,16,19,0
1,2,2,2,0.27736,30.288,423,1,7,1146,564,0,16,19,0
1,2,2,3,0.44081,30.288,424,1,6,1172,478,0,16,19,0
1,1,1,2,0.52518,10.604,425,1,2,882,578,0,16,19,0
1,1,1,3,0.61629,2.197,426,1,3,828,521,0,16,19,0
1,1,1,3,0.40041,0,427,1,3,880,532,0,16,19,0
1,1,1,3,0.35451,51.186,428,1,3,792,536,0,16,19,0
1,1,1,3,0.41587,2.197,429,1,3,818,506,0,16,19,0
1,1,1,2,0.28093,51.186,430,1,2,886,542,0,16,19,0
1,1,1,3,0.23584,10.604,431,1,3,876,522,0,16,19,0
1,1,1,4,0.4692,0,432,1,4,815,446,0,16,19,0
1,2,2,4,0.51401,3.7129,433,1,5,1160,405,0,16,19,0
1,2,2,4,0.29762,10.604,434,1,5,1062,443,0,16,19,0
1,2,2,1,0.28305,51.186,435,1,8,1073,654,0,16,19,0
1,1,2,2,0.32131,51.186,436,0,7,1082,564,0,16,19,0
1,2,2,4,0.467,0,437,1,5,1060,479,0,16,19,0
1,1,1,3,0.23939,3.7129,438,1,3,806,468,0,16,19,0
1,1,1,4,0.26038,30.288,439,1,4,889,451,0,16,19,0
1,2,2,4,0.21242,6.2748,440,1,5,1052,464,0,16,19,0
1,2,2,4,0.29732,3.7129,441,1,5,1046,446,0,16,19,0
1,1,1,4,0.2665,10.604,442,1,4,862,466,0,16,19,0
1,1,1,4,0.48912,2.197,443,1,4,797,438,0,16,19,0
1,1,2,2,0.50706,30.288,444,0,7,1216,595,0,16,19,0
1,2,2,4,0.25819,2.197,445,1,5,1151,419,0,16,19,0
1,2,2,4,0.23795,3.7129,446,1,5,1022,469,0,16,19,0
1,2,2,2,0.39711,51.186,447,1,7,1027,542,0,16,19,0
1,2,2,3,0.25362,51.186,448,1,6,1026,536,0,16,19,0
1,1,1,3,0.23562,6.2748,449,1,3,788,454,0,16,19,0
1,2,2,4,0.43943,10.604,450,1,5,1061,478,0,16,19,0
1,1,1,4,0.26907,17.922,451,1,4,899,493,0,16,19,0
1,1,1,4,0.2581,10.604,452,1,4,895,481,0,16,19,0
1,1,1,3,0.26804,30.288,453,1,3,818,522,0,16,19,0
1,2,2,4,0.22052,3.7129,454,1,5,1015,496,0,16,19,0
1,1,1,4,0.22429,3.7129,455,1,4,892,496,0,16,19,0
1,1,1,4,0.26882,3.7129,456,1,4,905,447,0,16,19,0
1,1,1,2,0.29813,30.288,457,1,2,859,559,0,16,19,0
1,1,1,3,0.2466,51.186,458,1,3,805,494,0,16,19,0
1,2,2,4,0.32749,0,459,1,5,1092,412,0,16,19,0
1,2,2,4,0.27299,0,460,1,5,1030,471,0,16,19,0
1,1,1,2,0.3545,51.186,461,1,2,681,605,0,16,19,0
1,1,1,3,0.34158,30.288,462,1,3,737,489,0,16,19,0
1,1,1,3,0.32995,0,463,1,3,812,528,0,16,19,0
1,2,2,4,0.22161,0,464,1,5,1016,503,0,16,19,0
1,1,1,4,0.23336,0,465,1,4,854,411,0,16,19,0
1,2,1,2,0.18899,30.288,466,0,2,760,564,0,16,19,0
1,1,1,4,0.28079,2.197,467,1,4,877,469,0,16,19,0
1,1,1,4,0.35102,6.2748,468,1,4,917,497,0,16,19,0
1,1,1,4,0.42839,17.922,469,1,4,772,426,0,16,19,0
1,1,1,4,0.38455,51.186,470,1,4,859,478,0,16,19,0
1,2,1,4,0.4626,6.2748,471,0,4,862,450,0,16,19,0
1,1,1,4,0.16791,2.197,472,1,4,912,484,0,16,19,0
1,2,2,4,0.29845,6.2748,473,1,5,1084,446,0,16,19,0
1,1,1,4,0.24569,3.7129,474,1,4,889,494,0,16,19,0
1,1,1,4,0.42615,0,475,1,4,882,479,0,16,19,0
1,1,1,4,0.87662,10.604,476,1,4,769,328,0,16,19,0
1,2,2,4,0.81537,0,477,1,5,1070,416,0,16,19,0
1,2,2,4,0.42172,2.197,478,1,5,1050,472,0,16,19,0
1,1,1,4,0.54532,0,479,1,4,722,374,0,16,19,0
1,1,1,4,0.29737,10.604,480,1,4,846,405,0,16,19,0
1,2,2,4,0.29281,10.604,481,1,5,1041,454,0,16,19,0
1,2,2,4,0.27011,10.604,482,1,5,1092,419,0,16,19,0
1,2,2,4,0.49362,6.2748,483,1,5,993,510,0,16,19,0
1,1,1,4,0.22326,6.2748,484,1,4,837,447,0,16,19,0
1,1,1,4,0.5353,30.288,485,1,4,802,402,0,16,19,0
1,1,1,4,0.38567,10.604,486,1,4,905,503,0,16,19,0
1,2,2,4,0.27382,0,487,1,5,1134,414,0,16,19,0
1,1,1,4,0.27889,17.922,488,1,4,794,343,0,16,19,0
1,2,2,4,0.28232,17.922,489,1,5,1067,468,0,16,19,0
1,1,1,4,0.6696,3.7129,490,1,4,837,347,0,16,19,0
1,2,1,4,0.95626,10.604,491,0,4,741,398,0,16,19,0
1,2,2,4,0.387,3.7129,492,1,5,1054,459,0,16,19,0
1,1,1,4,0.39499,6.2748,493,1,4,823,388,0,16,19,0
1,1,2,4,0.36412,30.288,494,0,5,1046,409,0,16,19,0
1,1,1,4,0.37875,2.197,495,1,4,840,369,0,16,19,0
1,1,1,4,0.2019,0,496,1,4,922,514,0,16,19,0
1,2,1,2,0.24324,51.186,497,0,2,843,544,0,16,19,0
1,2,1,3,0.24336,10.604,498,0,3,770,500,0,16,19,0
1,2,2,3,0.2775,17.922,499,1,6,1080,518,0,16,19,0
1,2,1,3,1.908,17.922,500,0,2,725,660,1,16,19,0
1,1,1,3,0.29392,17.922,501,1,2,854,587,1,16,19,0
1,1,1,1,0.35747,51.186,502,1,4,815,422,1,16,19,0
1,1,1,4,0.20947,6.2748,503,1,1,897,596,1,16,19,0
1,2,1,1,0.27756,51.186,504,0,4,859,422,1,16,19,0
1,2,2,3,0.29464,2.197,505,1,7,1102,581,1,16,19,0
1,2,2,2,0.45557,0,506,1,6,1195,528,1,16,19,0
1,2,2,3,0.52929,0,507,1,7,1133,552,1,16,19,0
1,1,1,3,0.24431,3.7129,508,1,2,729,595,1,16,19,0
1,1,1,3,0.19832,3.7129,509,1,2,757,559,1,16,19,0
1,1,1,3,0.30968,30.288,510,1,2,866,548,1,16,19,0
1,1,1,3,0.20699,0,511,1,2,898,542,1,16,19,0
1,1,1,3,0.26105,6.2748,512,1,2,886,549,1,16,19,0
1,1,1,4,0.38585,6.2748,513,1,1,883,621,1,16,19,0
1,1,1,3,1.7056,0,514,1,2,771,610,1,16,19,0
1,2,1,3,0.3241,6.2748,515,0,2,903,551,1,16,19,0
1,2,1,3,0.24144,51.186,516,0,2,878,574,1,16,19,0
1,1,1,3,0.2095,30.288,517,1,2,885,558,1,16,19,0
1,2,1,3,0.24457,17.922,518,0,2,703,618,1,16,19,0
1,1,1,3,0.3518,30.288,519,1,2,710,670,1,16,19,0
1,1,1,4,0.33724,30.288,520,1,1,893,607,1,16,19,0
1,1,1,3,0.3063,17.922,521,1,2,850,599,1,16,19,0
1,2,2,2,0.36867,10.604,522,1,6,1123,524,1,16,19,0
1,2,2,4,0.42436,3.7129,523,1,8,1078,655,1,16,19,0
1,1,1,3,0.29236,2.197,524,1,2,782,600,1,16,19,0
1,2,1,1,0.25605,51.186,525,0,4,777,409,1,16,19,0
1,1,1,4,0.2934,6.2748,526,1,1,890,590,1,16,19,0
1,1,1,2,0.28206,17.922,527,1,3,853,530,1,16,19,0
1,1,1,3,0.29684,3.7129,528,1,2,892,566,1,16,19,0
1,2,2,3,0.51448,30.288,529,1,7,1175,632,1,16,19,0
1,1,1,3,0.51345,17.922,530,1,2,762,565,1,16,19,0
1,2,1,3,0.45135,51.186,531,0,2,819,567,1,16,19,0
1,1,1,4,0.30349,10.604,532,1,1,905,587,1,16,19,0
1,1,2,3,0.63488,17.922,533,0,7,1135,628,1,16,19,0
1,1,1,4,0.43468,30.288,534,1,1,832,668,1,16,19,0
1,1,1,4,0.35071,3.7129,535,1,1,857,629,1,16,19,0
1,1,1,3,0.23431,3.7129,536,1,2,902,555,1,16,19,0
1,1,1,4,0.47326,2.197,537,1,1,926,598,1,16,19,0
1,2,2,3,0.27944,17.922,538,1,7,1111,567,1,16,19,0
1,1,2,4,0.3928,51.186,539,0,8,1111,649,1,16,19,0
1,2,1,3,0.35574,17.922,540,0,2,878,576,1,16,19,0
1,2,2,4,0.67855,17.922,541,1,8,1082,705,1,16,19,0
1,2,2,3,0.51993,30.288,542,1,7,1153,602,1,16,19,0
1,1,2,3,0.38349,17.922,543,0,7,1188,608,1,16,19,0
1,1,1,4,0.3469,2.197,544,1,1,846,612,1,16,19,0
1,1,1,4,0.72429,3.7129,545,1,1,880,611,1,16,19,0
1,1,1,3,0.41861,6.2748,546,1,2,836,589,1,16,19,0
1,1,1,3,0.39129,51.186,547,1,2,873,589,1,16,19,0
1,1,1,3,0.2343,51.186,548,1,2,758,542,1,16,19,0
1,1,1,4,0.58716,30.288,549,1,1,889,586,1,16,19,0
1,1,1,4,0.58095,6.2748,550,1,1,912,603,1,16,19,0
1,2,1,4,0.633,17.922,551,0,1,920,573,1,16,19,0
1,1,1,3,0.44707,6.2748,552,1,2,824,590,1,16,19,0
1,1,1,3,0.40473,30.288,553,1,2,907,558,1,16,19,0
1,1,1,4,0.28684,3.7129,554,1,1,898,577,1,16,19,0
1,2,2,4,0.28081,10.604,555,1,8,1110,641,1,16,19,0
1,1,2,2,0.30515,30.288,556,0,6,1034,521,1,16,19,0
1,2,2,2,0.26037,10.604,557,1,6,1049,515,1,16,19,0
1,1,1,3,0.28347,0,558,1,2,784,593,1,16,19,0
1,1,1,4,0.23622,30.288,559,1,1,911,574,1,16,19,0
1,1,1,2,0.6427,3.7129,560,1,3,874,497,1,16,19,0
1,2,2,4,0.41856,0,561,1,8,1039,612,1,16,19,0
1,2,2,4,0.31714,10.604,562,1,8,1107,705,1,16,19,0
1,2,2,1,0.42468,10.604,563,1,5,1123,414,1,16,19,0
1,2,2,2,0.43304,6.2748,564,1,6,1152,504,1,16,19,0
1,2,2,2,0.38432,17.922,565,1,6,1042,524,1,16,19,0
1,1,1,2,0.24141,10.604,566,1,3,743,509,1,16,19,0
1,1,1,2,0.34833,2.197,567,1,3,778,535,1,16,19,0
1,1,1,3,0.39182,3.7129,568,1,2,729,543,1,16,19,0
1,2,1,2,0.68158,51.186,569,0,3,740,474,1,16,19,0
1,2,1,3,0.44281,3.7129,570,0,2,872,580,1,16,19,0
1,1,1,2,0.21617,6.2748,571,1,3,825,506,1,16,19,0
1,2,2,3,0.24491,17.922,572,1,7,1077,543,1,16,19,0
1,2,2,3,0.56437,6.2748,573,1,7,1055,560,1,16,19,0
1,1,2,3,0.35524,0,574,0,7,1046,561,1,16,19,0
1,1,2,3,0.31529,2.197,575,0,7,1055,587,1,16,19,0
1,1,1,3,0.23096,17.922,576,1,2,798,568,1,16,19,0
1,1,2,2,0.37635,51.186,577,0,6,1050,526,1,16,19,0
1,2,2,3,0.30875,2.197,578,1,7,1206,590,1,16,19,0
1,2,2,3,0.32538,6.2748,579,1,7,1039,562,1,16,19,0
1,1,2,3,0.31637,0,580,0,7,1096,582,1,16,19,0
1,2,2,3,0.26133,10.604,581,1,7,1120,586,1,16,19,0
1,2,2,3,0.29006,0,582,1,7,1051,570,1,16,19,0
1,2,2,2,0.28875,51.186,583,1,6,1175,445,1,16,19,0
1,1,2,3,0.39848,17.922,584,0,7,1196,600,1,16,19,0
1,2,2,2,0.31386,10.604,585,1,6,1041,539,1,16,19,0
1,1,2,1,0.31685,51.186,586,0,5,1082,418,1,16,19,0
1,1,2,1,0.32649,51.186,587,0,5,1037,458,1,16,19,0
1,2,2,3,0.53466,6.2748,588,1,7,1176,564,1,16,19,0
1,1,1,2,0.29164,10.604,589,1,3,840,471,1,16,19,0
1,1,1,1,0.30957,0,590,1,4,873,442,1,16,19,0
1,2,2,3,0.27469,2.197,591,1,7,1141,629,1,16,19,0
1,1,2,2,0.48369,51.186,592,0,6,1185,488,1,16,19,0
1,1,1,2,0.24874,10.604,593,1,3,753,508,1,16,19,0
1,2,1,2,0.4391,10.604,594,0,3,746,515,1,16,19,0
1,1,2,3,0.3737,2.197,595,0,7,1067,585,1,16,19,0
1,1,2,1,0.29884,51.186,596,0,5,1105,433,1,16,19,0
1,1,1,2,0.48408,6.2748,597,1,3,700,520,1,16,19,0
1,2,2,2,0.32243,10.604,598,1,6,1169,495,1,16,19,0
1,2,2,2,0.25485,0,599,1,6,1006,534,1,16,19,0
1,1,1,3,0.65023,3.7129,600,1,3,781,513,0,16,19,0
1,1,1,2,0.30225,51.186,601,1,2,787,562,0,16,19,0
1,2,2,4,0.36463,2.197,602,1,5,1100,453,0,16,19,0
1,1,1,2,0.27355,17.922,603,1,2,797,596,0,16,19,0
1,2,1,4,0.19096,10.604,604,0,4,907,456,0,16,19,0
1,2,2,4,0.36136,3.7129,605,1,5,1119,440,0,16,19,0
1,1,1,3,0.40238,51.186,606,1,3,811,466,0,16,19,0
1,1,1,4,0.31964,51.186,607,1,4,802,429,0,16,19,0
1,1,1,4,0.26735,30.288,608,1,4,899,483,0,16,19,0
1,1,1,4,0.36775,17.922,609,1,4,867,472,0,16,19,0
1,2,1,3,0.40248,51.186,610,0,3,903,519,0,16,19,0
1,2,2,3,0.64212,17.922,611,1,6,1132,479,0,16,19,0
1,1,1,3,0.23879,2.197,612,1,3,728,462,0,16,19,0
1,1,1,3,0.43382,2.197,613,1,3,831,484,0,16,19,0
1,2,1,4,0.37893,30.288,614,0,4,815,424,0,16,19,0
1,1,1,4,0.34653,6.2748,615,1,4,922,507,0,16,19,0
1,1,1,4,0.25424,6.2748,616,1,4,817,407,0,16,19,0
1,1,1,3,0.41928,6.2748,617,1,3,733,513,0,16,19,0
1,2,2,3,0.32198,17.922,618,1,6,1163,515,0,16,19,0
1,1,1,3,0.33767,10.604,619,1,3,764,493,0,16,19,0
1,1,1,3,0.24438,3.7129,620,1,3,857,520,0,16,19,0
1,1,1,3,0.30574,30.288,621,1,3,903,520,0,16,19,0
1,1,2,3,0.57487,30.288,622,0,6,1202,497,0,16,19,0
1,1,1,3,0.45805,0,623,1,3,715,501,0,16,19,0
1,2,2,3,0.42781,10.604,624,1,6,1228,474,0,16,19,0
1,1,1,3,0.56198,0,625,1,3,690,484,0,16,19,0
1,2,2,3,0.46751,0,626,1,6,1090,512,0,16,19,0
1,1,2,3,0.28216,6.2748,627,0,6,1087,514,0,16,19,0
1,1,2,2,0.34894,51.186,628,0,7,1188,565,0,16,19,0
1,2,1,2,0.26731,30.288,629,0,2,723,551,0,16,19,0
1,2,2,3,0.31622,0,630,1,6,1225,517,0,16,19,0
1,2,2,2,0.39196,51.186,631,1,7,1124,561,0,16,19,0
1,2,2,1,0.37629,17.922,632,1,8,1054,628,0,16,19,0
1,2,2,4,0.41063,10.604,633,1,5,1046,478,0,16,19,0
1,1,1,4,0.2814,3.7129,634,1,4,861,481,0,16,19,0
1,2,2,3,0.31636,51.186,635,1,6,1077,528,0,16,19,0
1,2,2,3,0.24036,0,636,1,6,1062,532,0,16,19,0
1,1,2,4,0.23636,6.2748,637,0,5,1018,464,0,16,19,0
1,1,2,3,0.64633,17.922,638,0,6,1077,514,0,16,19,0
1,2,2,4,0.44805,3.7129,639,1,5,991,488,0,16,19,0
1,1,1,3,0.28181,0,640,1,3,749,533,0,16,19,0
1,1,1,3,0.39387,0,641,1,3,888,514,0,16,19,0
1,1,1,3,0.23228,2.197,642,1,3,902,526,0,16,19,0
1,1,1,3,0.17731,3.7129,643,1,3,848,511,0,16,19,0
1,2,2,3,0.45891,10.604,644,1,6,1207,475,0,16,19,0
1,1,1,3,0.62994,51.186,645,1,3,736,471,0,16,19,0
1,1,1,2,0.44369,0,646,1,2,847,557,0,16,19,0
1,2,1,3,0.49664,17.922,647,0,3,784,514,0,16,19,0
1,2,1,3,0.46026,2.197,648,0,3,776,522,0,16,19,0
1,2,1,3,0.29907,30.288,649,0,3,898,530,0,16,19,0
1,1,1,3,0.33446,17.922,650,1,3,832,494,0,16,19,0
1,1,1,3,0.21072,2.197,651,1,3,908,511,0,16,19,0
1,2,1,3,0.18673,10.604,652,0,3,851,523,0,16,19,0
1,2,2,3,0.28747,6.2748,653,1,6,1071,518,0,16,19,0
1,1,2,3,0.39253,51.186,654,0,6,1062,532,0,16,19,0
1,2,1,3,0.21247,30.288,655,0,3,710,527,0,16,19,0
1,1,1,4,0.24855,2.197,656,1,4,894,445,0,16,19,0
1,2,1,2,0.4216,51.186,657,0,2,846,569,0,16,19,0
1,2,2,3,0.38317,30.288,658,1,6,1223,486,0,16,19,0
1,2,2,4,0.36801,10.604,659,1,5,1070,446,0,16,19,0
1,2,2,3,0.30063,0,660,1,6,1063,538,0,16,19,0
1,2,2,3,0.37621,30.288,661,1,6,1018,522,0,16,19,0
1,1,1,4,0.23666,17.922,662,1,4,909,464,0,16,19,0
1,1,1,4,0.21746,3.7129,663,1,4,839,431,0,16,19,0
1,2,2,4,0.21407,2.197,664,1,5,991,511,0,16,19,0
1,1,1,4,0.25405,0,665,1,4,842,444,0,16,19,0
1,1,2,3,0.28304,51.186,666,0,6,1102,520,0,16,19,0
1,2,2,4,0.45065,0,667,1,5,1045,446,0,16,19,0
1,2,2,4,0.19117,10.604,668,1,5,992,511,0,16,19,0
1,1,1,4,0.21907,0,669,1,4,868,390,0,16,19,0
1,2,2,3,0.15783,3.7129,670,1,6,1009,515,0,16,19,0
1,1,1,4,0.25458,17.922,671,1,4,885,440,0,16,19,0
1,2,2,4,0.67874,10.604,672,1,5,1072,419,0,16,19,0
1,2,2,4,0.35665,6.2748,673,1,5,1028,464,0,16,19,0
1,2,2,2,0.31561,30.288,674,1,7,1069,595,0,16,19,0
1,1,1,3,0.22205,6.2748,675,1,3,752,468,0,16,19,0
1,2,2,3,0.2234,2.197,676,1,6,1150,506,0,16,19,0
1,1,1,4,0.25173,0,677,1,4,833,448,0,16,19,0
1,1,2,2,0.29873,51.186,678,0,7,1071,559,0,16,19,0
1,2,2,3,0.44279,30.288,679,1,6,1144,476,0,16,19,0
1,1,1,3,0.42648,6.2748,680,1,3,735,494,0,16,19,0
1,1,2,3,0.27607,30.288,681,0,6,1100,539,0,16,19,0
1,1,1,3,0.45509,17.922,682,1,3,768,468,0,16,19,0
1,1,2,3,0.40344,51.186,683,0,6,1205,464,0,16,19,0
1,1,2,2,0.40555,51.186,684,0,7,1120,573,0,16,19,0
1,1,1,3,0.26558,0,685,1,3,713,445,0,16,19,0
1,2,2,3,0.36556,0,686,1,6,1082,489,0,16,19,0
1,1,1,2,0.36619,51.186,687,1,2,662,541,0,16,19,0
1,2,2,3,0.37575,0,688,1,6,1058,492,0,16,19,0
1,2,2,4,0.31733,0,689,1,5,1034,447,0,16,19,0
1,2,2,4,0.30696,3.7129,690,1,5,1004,501,0,16,19,0
1,1,2,2,0.57171,30.288,691,0,7,1098,562,0,16,19,0
1,2,1,4,0.21238,17.922,692,0,4,858,460,0,16,19,0
1,2,2,4,0.27862,10.604,693,1,5,1127,379,0,16,19,0
1,2,2,2,0.24407,30.288,694,1,7,1026,556,0,16,19,0
1,2,2,2,0.43208,6.2748,695,1,7,1056,577,0,16,19,0
1,2,2,2,0.43304,10.604,696,1,7,1008,554,0,16,19,0
1,1,2,4,0.21651,6.2748,697,0,5,1030,498,0,16,19,0
1,1,1,4,0.22814,6.2748,698,1,4,895,467,0,16,19,0
1,2,2,4,0.31625,6.2748,699,1,5,1055,455,0,16,19,0
1,2,2,2,0.4589,30.288,700,1,6,1128,491,1,16,19,0
1,2,1,3,0.63165,10.604,701,0,2,769,564,1,16,19,0
1,2,2,2,0.43265,30.288,702,1,6,1106,482,1,16,19,0
1,1,1,2,0.41699,0,703,1,3,839,512,1,16,19,0
1,1,2,2,0.40667,51.186,704,0,6,1160,483,1,16,19,0
1,2,2,3,0.37639,3.7129,705,1,7,1105,585,1,16,19,0
1,2,2,4,0.34772,0,706,1,8,1106,654,1,16,19,0
1,2,2,4,0.37004,51.186,707,1,8,1018,606,1,16,19,0
1,2,2,4,0.3498,6.2748,708,1,8,1012,608,1,16,19,0
1,2,2,2,0.21485,6.2748,709,1,6,1040,539,1,16,19,0
1,2,2,4,0.4044,3.7129,710,1,8,1038,628,1,16,19,0
1,1,1,3,0.38412,0,711,1,2,759,577,1,16,19,0
1,2,2,3,0.26681,30.288,712,1,7,1044,563,1,16,19,0
1,1,2,3,0.33427,0,713,0,7,1015,551,1,16,19,0
1,2,2,4,0.91105,0,714,1,8,1020,610,1,16,19,0
1,2,2,4,0.78749,10.604,715,1,8,994,574,1,16,19,0
1,2,2,4,0.35531,6.2748,716,1,8,1035,619,1,16,19,0
1,2,2,4,0.39842,10.604,717,1,8,1067,645,1,16,19,0
1,2,2,3,0.4061,2.197,718,1,7,1012,563,1,16,19,0
1,2,2,4,0.26203,6.2748,719,1,8,1073,624,1,16,19,0
1,2,2,4,0.40075,51.186,720,1,8,1035,624,1,16,19,0
1,2,2,4,0.32816,10.604,721,1,8,1012,588,1,16,19,0
1,1,2,4,0.4897,10.604,722,0,8,1063,618,1,16,19,0
1,2,2,4,0.39048,3.7129,723,1,8,1096,651,1,16,19,0
1,2,2,4,0.82178,10.604,724,1,8,1007,615,1,16,19,0
1,2,2,3,0.27462,6.2748,725,1,7,1048,574,1,16,19,0
1,1,1,2,0.68822,0,726,1,3,687,535,1,16,19,0
1,2,1,2,0.51705,51.186,727,0,3,699,443,1,16,19,0
1,1,2,2,0.43372,6.2748,728,0,6,1057,510,1,16,19,0
1,2,2,1,0.30074,2.197,729,1,5,1073,443,1,16,19,0
1,2,2,1,0.21933,2.197,730,1,5,1005,499,1,16,19,0
1,1,1,3,0.69282,6.2748,731,1,2,811,609,1,16,19,0
1,2,1,1,0.2913,51.186,732,0,4,855,374,1,16,19,0
1,2,2,3,0.61807,30.288,733,1,7,1150,565,1,16,19,0
1,1,1,3,0.35047,10.604,734,1,2,821,605,1,16,19,0
1,2,1,2,0.30386,51.186,735,0,3,807,532,1,16,19,0
1,1,1,3,0.31353,6.2748,736,1,2,846,569,1,16,19,0
1,2,1,3,0.34913,3.7129,737,0,2,835,572,1,16,19,0
1,1,1,3,0.21927,30.288,738,1,2,825,564,1,16,19,0
1,2,1,3,0.21688,51.186,739,0,2,921,557,1,16,19,0
1,2,2,3,0.23677,3.7129,740,1,7,1246,553,1,16,19,0
1,1,1,2,0.27488,51.186,741,1,3,827,475,1,16,19,0
1,1,1,3,0.29895,3.7129,742,1,2,924,560,1,16,19,0
1,2,2,3,0.24127,30.288,743,1,7,1254,562,1,16,19,0
1,2,1,3,0.28473,30.288,744,0,2,785,569,1,16,19,0
1,2,1,3,0.37584,0,745,0,2,908,550,1,16,19,0
1,1,1,3,0.16306,17.922,746,1,2,679,561,1,16,19,0
1,2,2,3,0.26514,10.604,747,1,7,1173,541,1,16,19,0
1,2,2,2,0.54294,30.288,748,1,6,1167,503,1,16,19,0
1,2,2,3,0.36177,10.604,749,1,7,1060,588,1,16,19,0
1,2,2,2,0.27549,17.922,750,1,6,1022,530,1,16,19,0
1,1,2,3,0.28482,2.197,751,0,7,1012,552,1,16,19,0
1,2,2,3,0.32323,2.197,752,1,7,1162,622,1,16,19,0
1,1,1,3,0.29046,10.604,753,1,2,833,561,1,16,19,0
1,1,1,2,0.22999,0,754,1,3,785,517,1,16,19,0
1,2,1,3,0.38229,51.186,755,0,2,876,584,1,16,19,0
1,2,1,2,0.21666,17.922,756,0,3,908,536,1,16,19,0
1,2,1,3,0.22191,2.197,757,0,2,891,559,1,16,19,0
1,2,1,3,0.24264,30.288,758,0,2,850,550,1,16,19,0
1,2,1,3,0.35667,3.7129,759,0,2,862,569,1,16,19,0
1,2,1,3,0.30773,17.922,760,0,2,859,563,1,16,19,0
1,1,1,3,0.44999,17.922,761,1,2,892,551,1,16,19,0
1,1,1,3,0.45519,6.2748,762,1,2,887,554,1,16,19,0
1,1,1,3,0.4835,10.604,763,1,2,741,575,1,16,19,0
1,1,1,3,0.60135,2.197,764,1,2,893,545,1,16,19,0
1,2,1,3,0.48499,10.604,765,0,2,768,587,1,16,19,0
1,2,2,3,0.30014,17.922,766,1,7,1108,586,1,16,19,0
1,1,1,3,0.2682,2.197,767,1,2,865,557,1,16,19,0
1,1,1,4,0.30983,0,768,1,1,900,608,1,16,19,0
1,2,2,4,0.33926,10.604,769,1,8,1111,640,1,16,19,0
1,2,2,4,0.36492,0,770,1,8,1017,594,1,16,19,0
1,2,2,4,0.46616,2.197,771,1,8,1037,606,1,16,19,0
1,1,1,2,0.31901,17.922,772,1,3,791,483,1,16,19,0
1,2,2,2,0.31109,0,773,1,6,1174,509,1,16,19,0
1,1,2,4,0.41099,30.288,774,0,8,1060,615,1,16,19,0
1,2,2,3,0.24177,17.922,775,1,7,1041,574,1,16,19,0
1,1,1,3,0.40768,0,776,1,2,720,667,1,16,19,0
1,1,1,4,0.88456,0,777,1,1,874,635,1,16,19,0
1,2,1,4,0.33645,17.922,778,0,1,896,624,1,16,19,0
1,1,1,3,0.28825,30.288,779,1,2,857,595,1,16,19,0
1,2,1,4,0.5702,51.186,780,0,1,870,643,1,16,19,0
1,1,1,4,0.25318,3.7129,781,1,1,918,569,1,16,19,0
1,1,1,4,0.14919,2.197,782,1,1,920,576,1,16,19,0
1,1,1,4,0.22352,0,783,1,1,910,576,1,16,19,0
1,1,1,4,0.25461,10.604,784,1,1,905,616,1,16,19,0
1,1,1,3,0.50387,3.7129,785,1,2,905,564,1,16,19,0
1,1,1,4,0.41953,6.2748,786,1,1,921,595,1,16,19,0
1,1,1,4,0.28131,2.197,787,1,1,913,597,1,16,19,0
1,2,2,3,0.27509,17.922,788,1,7,1156,586,1,16,19,0
1,2,2,4,0.34545,3.7129,789,1,8,1016,573,1,16,19,0
1,2,2,4,0.35048,0,790,1,8,1015,595,1,16,19,0
1,1,2,3,0.58964,3.7129,791,0,7,1096,592,1,16,19,0
1,1,2,3,0.38816,17.922,792,0,7,1008,545,1,16,19,0
1,2,2,3,0.43922,17.922,793,1,7,1091,559,1,16,19,0
1,1,2,3,0.38815,51.186,794,0,7,1066,577,1,16,19,0
1,2,2,3,0.37104,0,795,1,7,1032,549,1,16,19,0
1,1,1,3,0.32659,2.197,796,1,2,776,555,1,16,19,0
1,1,1,3,0.68087,17.922,797,1,2,899,549,1,16,19,0
1,2,1,1,0.21124,51.186,798,0,4,904,492,1,16,19,0
1,2,2,3,0.48726,2.197,799,1,7,1095,593,1,16,19,0
1,2,2,2,0.31398,3.7129,800,1,6,1027,509,1,16,19,0
2,2,2,1,1.1859,17.922,1,1,8,1139,678,0,28,19,1
2,2,2,1,0.82265,51.186,2,1,8,1082,658,0,28,19,1
2,1,2,1,1.2147,30.288,3,0,8,1074,645,0,28,19,1
2,2,2,3,1.2263,3.7129,4,1,6,1188,498,0,28,19,1
2,2,2,2,1.1783,0,5,1,7,1124,594,0,28,19,1
2,2,2,2,0.91227,6.2748,6,1,7,1139,608,0,28,19,1
2,2,1,1,1.0964,30.288,7,0,1,899,630,0,28,19,1
2,2,2,2,0.7187,2.197,8,1,7,1200,600,0,28,19,1
2,1,1,2,1.2341,2.197,9,1,2,754,632,0,28,19,1
2,1,1,2,0.99269,17.922,10,1,2,802,574,0,28,19,1
2,2,2,3,1.6085,6.2748,11,1,6,1155,469,0,28,19,1
2,1,1,3,1.2794,51.186,12,1,3,752,483,0,28,19,1
2,1,1,2,1.4205,3.7129,13,1,2,840,598,0,28,19,1
2,1,2,2,0.89193,17.922,14,0,7,1120,580,0,28,19,1
2,1,1,4,0.84057,6.2748,15,1,4,803,364,0,28,19,1
2,2,2,3,0.76214,3.7129,16,1,6,1185,489,0,28,19,1
2,1,1,1,1.1568,30.288,17,1,1,860,651,0,28,19,1
2,2,1,1,1.4906,51.186,18,0,1,878,652,0,28,19,1
2,2,2,2,0.84935,30.288,19,1,7,1099,564,0,28,19,1
2,2,2,2,0.83567,10.604,20,1,7,1106,574,0,28,19,1
2,1,1,4,0.87026,10.604,21,1,4,814,357,0,28,19,1
2,2,2,4,0.60975,10.604,22,1,5,1135,413,0,28,19,1
2,2,2,3,0.89479,3.7129,23,1,6,1138,482,0,28,19,1
2,2,2,4,1.1544,30.288,24,1,5,1005,495,0,28,19,1
2,1,1,1,0.9725,30.288,25,1,1,852,650,0,28,19,1
2,2,2,3,0.86645,30.288,26,1,6,1141,486,0,28,19,1
2,2,1,2,0.98726,30.288,27,0,2,871,556,0,28,19,1
2,2,2,4,0.87919,6.2748,28,1,5,1086,412,0,28,19,1
2,2,1,1,0.90022,51.186,29,0,1,851,661,0,28,19,1
2,1,1,1,1.0483,30.288,30,1,1,904,607,0,28,19,1
2,1,1,3,0.82372,3.7129,31,1,3,751,501,0,28,19,1
2,2,2,4,2.0842,0,32,1,5,1124,431,0,28,19,1
2,2,2,2,1.079,17.922,33,1,7,1124,591,0,28,19,1
2,1,1,4,1.0591,3.7129,34,1,4,841,347,0,28,19,1
2,2,2,4,0.79784,10.604,35,1,5,1070,466,0,28,19,1
2,1,1,1,0.69212,51.186,36,1,1,843,641,0,28,19,1
2,1,1,4,0.7308,6.2748,37,1,4,871,453,0,28,19,1
2,1,2,1,0.99605,3.7129,38,0,8,1065,661,0,28,19,1
2,1,1,2,1.6019,0,39,1,2,820,572,0,28,19,1
2,1,1,1,2.2813,51.186,40,1,1,830,671,0,28,19,1
2,2,2,3,1.0111,2.197,41,1,6,1237,455,0,28,19,1
2,2,2,2,1.195,0,42,1,7,1216,575,0,28,19,1
2,1,1,3,1.0354,0,43,1,3,785,465,0,28,19,1
2,2,2,3,0.69946,17.922,44,1,6,1172,511,0,28,19,1
2,2,2,3,0.88201,10.604,45,1,6,1127,472,0,28,19,1
2,2,2,3,0.6347,0,46,1,6,1188,495,0,28,19,1
2,2,2,3,0.62144,2.197,47,1,6,1101,501,0,28,19,1
2,1,1,2,0.95141,17.922,48,1,2,861,567,0,28,19,1
2,2,2,4,1.1025,3.7129,49,1,5,1114,424,0,28,19,1
2,1,1,3,0.68587,0,50,1,3,829,503,0,28,19,1
2,1,1,3,1.3508,10.604,51,1,3,823,523,0,28,19,1
2,2,1,3,1.3001,0,52,0,3,815,502,0,28,19,1
2,2,1,1,1.7019,30.288,53,0,1,879,643,0,28,19,1
2,2,2,1,1.1504,3.7129,54,1,8,1111,640,0,28,19,1
2,2,2,2,0.86866,2.197,55,1,7,1214,559,0,28,19,1
2,1,1,2,0.68498,30.288,56,1,2,815,564,0,28,19,1
2,1,1,1,1.1126,51.186,57,1,1,861,667,0,28,19,1
2,1,1,3,0.91363,0,58,1,3,811,506,0,28,19,1
2,2,2,3,0.78427,0,59,1,6,1181,480,0,28,19,1
2,2,2,2,1.874,10.604,60,1,7,1160,615,0,28,19,1
2,1,1,4,0.75046,0,61,1,4,859,395,0,28,19,1
2,2,2,4,0.96076,10.604,62,1,5,1080,440,0,28,19,1
2,2,1,1,0.65448,30.288,63,0,1,882,617,0,28,19,1
2,2,1,2,2.6395,17.922,64,0,2,791,579,0,28,19,1
2,2,1,1,0.90419,51.186,65,0,1,867,624,0,28,19,1
2,1,1,2,1.2595,6.2748,66,1,2,771,555,0,28,19,1
2,1,1,2,0.8192,10.604,67,1,2,797,599,0,28,19,1
2,1,2,1,0.95062,17.922,68,0,8,1046,608,0,28,19,1
2,2,2,3,1.879,3.7129,69,1,6,1093,496,0,28,19,1
2,1,1,3,0.97633,17.922,70,1,3,711,514,0,28,19,1
2,1,1,3,1.0944,0,71,1,3,771,503,0,28,19,1
2,1,1,1,0.64977,51.186,72,1,1,866,656,0,28,19,1
2,2,2,1,0.76212,51.186,73,1,8,1081,651,0,28,19,1
2,1,1,2,0.73839,0,74,1,2,804,587,0,28,19,1
2,1,1,2,0.89288,6.2748,75,1,2,868,547,0,28,19,1
2,2,2,3,0.67155,2.197,76,1,6,1185,520,0,28,19,1
2,1,1,3,0.60726,3.7129,77,1,3,744,512,0,28,19,1
2,2,2,3,0.56131,0,78,1,6,1164,515,0,28,19,1
2,2,2,2,0.78292,10.604,79,1,7,1124,594,0,28,19,1
2,1,1,3,0.66468,6.2748,80,1,3,784,484,0,28,19,1
2,1,1,3,0.6514,2.197,81,1,3,819,515,0,28,19,1
2,1,1,3,0.79268,17.922,82,1,3,787,484,0,28,19,1
2,2,2,3,0.47212,6.2748,83,1,6,1210,477,0,28,19,1
2,1,2,3,1.1358,30.288,84,0,6,1142,510,0,28,19,1
2,1,2,1,1.2407,30.288,85,0,8,1069,688,0,28,19,1
2,1,2,1,0.80552,30.288,86,0,8,1052,630,0,28,19,1
2,1,1,1,0.78017,51.186,87,1,1,889,610,0,28,19,1
2,1,1,2,1.6133,10.604,88,1,2,717,634,0,28,19,1
2,1,2,1,0.71095,2.197,89,0,8,1071,663,0,28,19,1
2,1,1,1,1.0411,30.288,90,1,1,841,658,0,28,19,1
2,2,2,3,0.53965,6.2748,91,1,6,1163,476,0,28,19,1
2,1,1,4,0.51009,6.2748,92,1,4,850,384,0,28,19,1
2,1,1,3,0.64869,6.2748,93,1,3,849,520,0,28,19,1
2,1,1,1,0.90813,10.604,94,1,1,866,674,0,28,19,1
2,2,2,4,0.84298,0,95,1,5,1104,382,0,28,19,1
2,2,2,3,0.84976,6.2748,96,1,6,1145,516,0,28,19,1
2,1,1,4,0.69781,2.197,97,1,4,832,398,0,28,19,1
2,2,2,4,0.61114,6.2748,98,1,5,1106,425,0,28,19,1
2,2,2,4,0.67913,6.2748,99,1,5,1139,432,0,28,19,1
2,2,2,2,0.90926,51.186,100,1,6,1178,470,1,28,19,1
2,1,1,3,2.6957,17.922,101,1,2,774,598,1,28,19,1
2,1,1,3,1.3785,17.922,102,1,2,792,622,1,28,19,1
2,1,1,3,0.83355,10.604,103,1,2,822,599,1,28,19,1
2,1,2,1,0.94518,51.186,104,0,5,1141,382,1,28,19,1
2,1,1,3,2.08,0,105,1,2,745,604,1,28,19,1
2,2,2,3,2.2518,17.922,106,1,7,1162,607,1,28,19,1
2,1,1,3,1.59,0,107,1,2,749,627,1,28,19,1
2,2,1,1,0.91139,51.186,108,0,4,857,415,1,28,19,1
2,1,1,4,0.64799,10.604,109,1,1,887,653,1,28,19,1
2,1,1,1,0.77704,30.288,110,1,4,883,430,1,28,19,1
2,1,1,3,1.0654,0,111,1,2,765,624,1,28,19,1
2,1,1,3,0.88017,2.197,112,1,2,787,599,1,28,19,1
2,2,2,4,1.084,30.288,113,1,8,1173,714,1,28,19,1
2,1,2,1,2.075,51.186,114,0,5,1069,418,1,28,19,1
2,2,2,3,2.2482,3.7129,115,1,7,1222,601,1,28,19,1
2,1,1,3,0.50271,3.7129,116,1,2,712,586,1,28,19,1
2,2,2,3,0.56164,0,117,1,7,1123,580,1,28,19,1
2,2,2,3,0.64541,2.197,118,1,7,1148,593,1,28,19,1
2,1,1,3,0.85413,0,119,1,2,793,610,1,28,19,1
2,2,2,4,0.90669,3.7129,120,1,8,1116,660,1,28,19,1
2,1,2,1,0.76459,30.288,121,0,5,1033,451,1,28,19,1
2,1,1,4,0.95711,0,122,1,1,802,679,1,28,19,1
2,1,1,3,0.87078,10.604,123,1,2,781,586,1,28,19,1
2,1,1,4,2.0004,30.288,124,1,1,854,681,1,28,19,1
2,1,1,3,2.9236,6.2748,125,1,2,747,611,1,28,19,1
2,2,2,4,0.50108,3.7129,126,1,8,1108,659,1,28,19,1
2,1,1,2,0.84198,17.922,127,1,3,793,507,1,28,19,1
2,1,1,3,1.2384,0,128,1,2,782,614,1,28,19,1
2,1,1,2,1.4244,0,129,1,3,783,493,1,28,19,1
2,2,2,1,1.6728,51.186,130,1,5,1105,397,1,28,19,1
2,2,2,3,1.0708,0,131,1,7,1182,615,1,28,19,1
2,2,1,1,1.1273,30.288,132,0,4,814,425,1,28,19,1
2,1,1,3,0.95066,6.2748,133,1,2,739,625,1,28,19,1
2,2,2,3,0.6035,2.197,134,1,7,1223,628,1,28,19,1
2,1,1,2,0.72858,6.2748,135,1,3,715,501,1,28,19,1
2,2,2,3,0.44589,10.604,136,1,7,1157,612,1,28,19,1
2,2,2,2,1.0233,10.604,137,1,6,1205,473,1,28,19,1
2,1,1,3,1.0783,10.604,138,1,2,742,623,1,28,19,1
2,1,1,1,0.8467,30.288,139,1,4,911,478,1,28,19,1
2,2,2,3,1.0623,2.197,140,1,7,1220,608,1,28,19,1
2,2,2,4,1.083,17.922,141,1,8,1109,690,1,28,19,1
2,2,2,1,0.75188,30.288,142,1,5,1051,450,1,28,19,1
2,2,2,3,0.83616,6.2748,143,1,7,1194,579,1,28,19,1
2,1,1,3,0.51346,2.197,144,1,2,765,575,1,28,19,1
2,1,1,1,0.72216,51.186,145,1,4,836,400,1,28,19,1
2,2,2,3,0.51456,2.197,146,1,7,1136,604,1,28,19,1
2,2,2,3,0.65325,2.197,147,1,7,1159,593,1,28,19,1
2,1,1,2,0.65423,3.7129,148,1,3,857,513,1,28,19,1
2,1,1,2,2.6673,10.604,149,1,3,751,514,1,28,19,1
2,2,2,3,0.6361,10.604,150,1,7,1146,610,1,28,19,1
2,2,2,3,1.3897,0,151,1,7,1172,623,1,28,19,1
2,2,2,3,1.0781,17.922,152,1,7,1207,607,1,28,19,1
2,1,1,3,0.5725,0,153,1,2,787,596,1,28,19,1
2,1,1,4,0.67884,0,154,1,1,854,650,1,28,19,1
2,2,2,4,0.49486,2.197,155,1,8,1050,637,1,28,19,1
2,2,2,3,0.5471,17.922,156,1,7,1186,592,1,28,19,1
2,1,1,3,0.36249,10.604,157,1,2,789,564,1,28,19,1
2,1,1,2,1.6134,17.922,158,1,3,776,500,1,28,19,1
2,1,1,2,0.75115,0,159,1,3,877,524,1,28,19,1
2,2,1,1,1.1132,51.186,160,0,4,913,489,1,28,19,1
2,1,1,4,1.1183,2.197,161,1,1,816,712,1,28,19,1
2,2,2,4,0.69298,0,162,1,8,1111,650,1,28,19,1
2,1,1,4,0.80418,0,163,1,1,772,698,1,28,19,1
2,1,1,3,0.66134,6.2748,164,1,2,807,567,1,28,19,1
2,1,2,1,1.2184,30.288,165,0,5,1131,440,1,28,19,1
2,1,1,4,1.106,3.7129,166,1,1,837,676,1,28,19,1
2,2,1,1,0.68272,30.288,167,0,4,901,448,1,28,19,1
2,1,1,2,2.0144,51.186,168,1,3,788,516,1,28,19,1
2,2,2,3,0.55916,17.922,169,1,7,1199,618,1,28,19,1
2,2,2,1,1.2062,51.186,170,1,5,1082,410,1,28,19,1
2,2,2,1,0.86283,17.922,171,1,5,1092,441,1,28,19,1
2,1,1,1,1.3205,51.186,172,1,4,872,410,1,28,19,1
2,2,2,3,0.9852,10.604,173,1,7,1148,592,1,28,19,1
2,1,1,3,0.55524,17.922,174,1,2,702,588,1,28,19,1
2,1,1,4,1.0633,6.2748,175,1,1,889,635,1,28,19,1
2,2,2,4,0.58102,0,176,1,8,1053,662,1,28,19,1
2,2,2,3,0.55607,2.197,177,1,7,1084,567,1,28,19,1
2,2,1,3,0.69802,17.922,178,0,2,815,583,1,28,19,1
2,1,1,4,0.79208,0,179,1,1,844,629,1,28,19,1
2,1,1,1,0.86447,30.288,180,1,4,893,474,1,28,19,1
2,2,2,3,0.55716,0,181,1,7,1123,590,1,28,19,1
2,2,2,3,0.58116,6.2748,182,1,7,1116,581,1,28,19,1
2,2,1,1,0.61988,30.288,183,0,4,832,434,1,28,19,1
2,1,1,3,0.52624,2.197,184,1,2,793,599,1,28,19,1
2,2,2,3,0.56231,2.197,185,1,7,1172,566,1,28,19,1
2,2,2,3,0.8094,0,186,1,7,1145,623,1,28,19,1
2,1,2,1,0.58844,51.186,187,0,5,1031,418,1,28,19,1
2,1,1,2,0.59211,30.288,188,1,3,826,507,1,28,19,1
2,2,1,3,0.67356,51.186,189,0,2,837,584,1,28,19,1
2,2,2,3,0.53881,0,190,1,7,1094,577,1,28,19,1
2,1,2,1,0.53938,51.186,191,0,5,1084,384,1,28,19,1
2,1,1,3,1.0801,10.604,192,1,2,799,576,1,28,19,1
2,1,1,1,1.0042,51.186,193,1,4,886,461,1,28,19,1
2,1,2,1,0.72046,51.186,194,0,5,1101,414,1,28,19,1
2,2,2,4,0.74215,17.922,195,1,8,1096,668,1,28,19,1
2,1,1,3,0.66749,2.197,196,1,2,723,587,1,28,19,1
2,2,2,3,0.52892,6.2748,197,1,7,1112,576,1,28,19,1
2,1,1,3,0.53729,0,198,1,2,798,571,1,28,19,1
2,2,1,1,1.7743,30.288,199,0,4,889,469,1,28,19,1
2,2,2,1,1.3869,51.186,200,1,8,1108,685,0,28,19,1
2,2,2,3,0.717,3.7129,201,1,6,1173,507,0,28,19,1
2,2,2,3,0.89254,2.197,202,1,6,1192,500,0,28,19,1
2,1,1,3,0.3249,17.922,203,1,3,762,499,0,28,19,1
2,2,2,3,0.49402,3.7129,204,1,6,1204,473,0,28,19,1
2,2,2,3,0.87169,10.604,205,1,6,1079,522,0,28,19,1
2,1,1,4,0.86638,30.288,206,1,4,798,434,0,28,19,1
2,1,1,4,0.97171,10.604,207,1,4,765,381,0,28,19,1
2,2,2,4,0.49408,3.7129,208,1,5,1071,435,0,28,19,1
2,1,1,4,0.6394,3.7129,209,1,4,819,368,0,28,19,1
2,1,1,4,0.49384,2.197,210,1,4,901,458,0,28,19,1
2,2,2,4,0.35062,10.604,211,1,5,1091,451,0,28,19,1
2,2,2,4,0.64786,3.7129,212,1,5,1075,431,0,28,19,1
2,1,1,4,0.52585,3.7129,213,1,4,795,370,0,28,19,1
2,2,2,4,0.49794,10.604,214,1,5,1080,401,0,28,19,1
2,2,1,2,0.97428,30.288,215,0,2,812,604,0,28,19,1
2,1,1,3,0.57994,17.922,216,1,3,855,493,0,28,19,1
2,2,2,1,1.0471,51.186,217,1,8,1055,663,0,28,19,1
2,2,2,4,0.43841,17.922,218,1,5,1098,350,0,28,19,1
2,1,1,4,0.54932,6.2748,219,1,4,774,407,0,28,19,1
2,2,2,4,0.46939,6.2748,220,1,5,1107,434,0,28,19,1
2,1,1,4,0.63375,10.604,221,1,4,869,464,0,28,19,1
2,2,2,2,0.90082,51.186,222,1,7,1110,582,0,28,19,1
2,2,2,4,0.46518,0,223,1,5,1058,425,0,28,19,1
2,2,2,3,0.63356,17.922,224,1,6,1112,503,0,28,19,1
2,2,2,1,0.73124,30.288,225,1,8,1042,668,0,28,19,1
2,2,2,4,0.6803,2.197,226,1,5,1096,400,0,28,19,1
2,2,2,3,0.84224,0,227,1,6,1133,513,0,28,19,1
2,2,1,1,1.1265,30.288,228,0,1,795,711,0,28,19,1
2,2,2,3,0.64458,2.197,229,1,6,1208,509,0,28,19,1
2,2,2,3,0.8073,3.7129,230,1,6,1220,465,0,28,19,1
2,1,1,4,0.60838,3.7129,231,1,4,808,360,0,28,19,1
2,1,1,1,1.0731,17.922,232,1,1,810,653,0,28,19,1
2,1,2,1,1.3851,17.922,233,0,8,1160,674,0,28,19,1
2,1,2,1,0.75146,51.186,234,0,8,1080,628,0,28,19,1
2,2,2,3,0.65736,2.197,235,1,6,1151,468,0,28,19,1
2,2,2,3,0.50267,10.604,236,1,6,1186,491,0,28,19,1
2,2,1,1,2.2908,51.186,237,0,1,856,677,0,28,19,1
2,2,2,4,0.67323,0,238,1,5,1135,408,0,28,19,1
2,1,1,4,0.51033,3.7129,239,1,4,837,429,0,28,19,1
2,1,1,1,1.0267,2.197,240,1,1,848,686,0,28,19,1
2,2,2,3,0.44571,2.197,241,1,6,1143,464,0,28,19,1
2,2,2,3,0.67152,3.7129,242,1,6,1216,464,0,28,19,1
2,2,2,3,0.87601,2.197,243,1,6,1232,457,0,28,19,1
2,2,2,3,0.84315,17.922,244,1,6,1132,507,0,28,19,1
2,2,2,1,0.98258,51.186,245,1,8,1051,661,0,28,19,1
2,1,1,3,0.70857,6.2748,246,1,3,765,496,0,28,19,1
2,1,1,1,0.53052,30.288,247,1,1,855,691,0,28,19,1
2,1,1,3,0.66518,3.7129,248,1,3,816,510,0,28,19,1
2,2,2,3,0.64162,17.922,249,1,6,1187,493,0,28,19,1
2,2,2,2,0.70427,3.7129,250,1,7,1124,572,0,28,19,1
2,2,2,2,0.68865,6.2748,251,1,7,1064,596,0,28,19,1
2,1,1,4,0.7453,0,252,1,4,788,421,0,28,19,1
2,1,1,4,0.73632,3.7129,253,1,4,878,414,0,28,19,1
2,1,1,4,0.81944,2.197,254,1,4,907,478,0,28,19,1
2,2,2,3,0.52514,6.2748,255,1,6,1148,500,0,28,19,1
2,2,2,3,0.59215,10.604,256,1,6,1077,500,0,28,19,1
2,2,2,3,1.3335,30.288,257,1,6,1133,494,0,28,19,1
2,1,1,4,0.52359,6.2748,258,1,4,793,421,0,28,19,1
2,2,2,3,0.47266,30.288,259,1,6,1214,497,0,28,19,1
2,2,2,1,0.82472,51.186,260,1,8,1072,666,0,28,19,1
2,1,1,3,0.52278,10.604,261,1,3,766,476,0,28,19,1
2,1,1,3,0.65399,2.197,262,1,3,879,522,0,28,19,1
2,1,1,3,0.74008,17.922,263,1,3,818,499,0,28,19,1
2,2,2,2,0.56245,30.288,264,1,7,1221,636,0,28,19,1
2,1,1,3,0.40751,10.604,265,1,3,751,456,0,28,19,1
2,2,2,3,0.31458,2.197,266,1,6,1068,503,0,28,19,1
2,2,2,1,2.2654,30.288,267,1,8,1131,695,0,28,19,1
2,1,1,3,0.59887,2.197,268,1,3,728,482,0,28,19,1
2,2,2,2,0.32122,0,269,1,7,1145,571,0,28,19,1
2,1,1,3,0.55223,6.2748,270,1,3,801,502,0,28,19,1
2,1,2,1,1.7102,17.922,271,0,8,1120,654,0,28,19,1
2,1,1,2,0.81716,0,272,1,2,856,597,0,28,19,1
2,1,1,3,0.61979,17.922,273,1,3,823,529,0,28,19,1
2,2,2,3,0.43777,6.2748,274,1,6,1157,477,0,28,19,1
2,2,2,1,0.71375,30.288,275,1,8,1004,592,0,28,19,1
2,1,1,3,1.4264,17.922,276,1,3,755,524,0,28,19,1
2,2,2,2,1.1999,30.288,277,1,7,1102,569,0,28,19,1
2,1,2,1,0.66912,51.186,278,0,8,1026,646,0,28,19,1
2,1,2,1,0.61868,51.186,279,0,8,1053,682,0,28,19,1
2,2,2,1,0.55885,17.922,280,1,8,1082,642,0,28,19,1
2,1,1,3,1.031,0,281,1,3,735,509,0,28,19,1
2,2,1,1,0.7113,30.288,282,0,1,862,671,0,28,19,1
2,2,2,1,0.42191,6.2748,283,1,8,1083,654,0,28,19,1
2,2,2,3,0.61567,0,284,1,6,1186,478,0,28,19,1
2,1,1,3,0.65011,2.197,285,1,3,745,520,0,28,19,1
2,2,2,2,0.41341,10.604,286,1,7,1107,591,0,28,19,1
2,2,2,3,0.68083,3.7129,287,1,6,1129,481,0,28,19,1
2,1,1,4,0.4767,0,288,1,4,752,391,0,28,19,1
2,2,2,4,0.50872,10.604,289,1,5,1116,390,0,28,19,1
2,1,2,2,1.7148,17.922,290,0,7,1124,564,0,28,19,1
2,1,1,3,0.28678,6.2748,291,1,3,742,499,0,28,19,1
2,2,2,4,0.6118,2.197,292,1,5,1012,487,0,28,19,1
2,2,2,4,0.50749,6.2748,293,1,5,1147,350,0,28,19,1
2,1,1,4,0.52855,2.197,294,1,4,823,359,0,28,19,1
2,1,1,1,1.0773,51.186,295,1,1,888,649,0,28,19,1
2,1,1,3,0.57255,2.197,296,1,3,797,517,0,28,19,1
2,2,2,1,0.89156,51.186,297,1,8,1141,718,0,28,19,1
2,2,2,1,0.84035,51.186,298,1,8,1060,645,0,28,19,1
2,1,1,4,0.5313,0,299,1,4,770,398,0,28,19,1
2,2,2,2,0.46123,17.922,300,1,6,1164,473,1,28,19,1
2,1,1,3,2.1113,10.604,301,1,2,731,619,1,28,19,1
2,2,2,3,0.68365,0,302,1,7,1169,637,1,28,19,1
2,2,2,4,0.79557,2.197,303,1,8,1130,719,1,28,19,1
2,1,1,1,0.99812,51.186,304,1,4,817,424,1,28,19,1
2,2,2,2,1.0777,30.288,305,1,6,1171,495,1,28,19,1
2,2,2,2,0.52614,17.922,306,1,6,1132,471,1,28,19,1
2,2,2,2,0.61947,3.7129,307,1,6,1153,525,1,28,19,1
2,1,1,2,0.71588,3.7129,308,1,3,775,495,1,28,19,1
2,1,1,3,0.50248,10.604,309,1,2,698,582,1,28,19,1
2,2,2,3,0.66663,6.2748,310,1,7,1234,592,1,28,19,1
2,1,1,2,0.40433,10.604,311,1,3,716,499,1,28,19,1
2,2,2,3,0.45797,6.2748,312,1,7,1183,611,1,28,19,1
2,1,1,3,0.53071,17.922,313,1,2,722,587,1,28,19,1
2,1,1,3,0.90466,0,314,1,2,749,639,1,28,19,1
2,1,2,1,1.232,51.186,315,0,5,1129,364,1,28,19,1
2,2,2,4,1.1131,6.2748,316,1,8,1116,663,1,28,19,1
2,2,2,4,0.58986,0,317,1,8,1069,674,1,28,19,1
2,1,1,4,0.47047,6.2748,318,1,1,813,697,1,28,19,1
2,2,2,4,0.52546,3.7129,319,1,8,1039,641,1,28,19,1
2,1,1,2,0.63287,30.288,320,1,3,855,512,1,28,19,1
2,2,2,3,0.3336,17.922,321,1,7,1102,606,1,28,19,1
2,2,2,4,0.65963,10.604,322,1,8,1144,682,1,28,19,1
2,2,2,1,0.6869,51.186,323,1,5,1092,362,1,28,19,1
2,2,2,3,0.69895,3.7129,324,1,7,1202,612,1,28,19,1
2,2,2,3,0.69895,10.604,325,1,7,1234,597,1,28,19,1
2,2,2,3,0.61836,10.604,326,1,7,1168,593,1,28,19,1
2,1,1,1,0.65931,51.186,327,1,4,861,412,1,28,19,1
2,1,1,3,1.0313,6.2748,328,1,2,739,615,1,28,19,1
2,2,2,3,1.1609,2.197,329,1,7,1231,626,1,28,19,1
2,1,1,4,0.49712,10.604,330,1,1,792,720,1,28,19,1
2,2,2,2,0.52384,51.186,331,1,6,1156,441,1,28,19,1
2,2,2,3,0.83221,51.186,332,1,7,1129,594,1,28,19,1
2,2,2,1,0.52683,30.288,333,1,5,1083,377,1,28,19,1
2,2,2,1,1.1728,30.288,334,1,5,1070,395,1,28,19,1
2,1,1,3,0.34499,6.2748,335,1,2,814,597,1,28,19,1
2,1,1,4,1.1068,6.2748,336,1,1,821,661,1,28,19,1
2,2,2,3,0.52972,10.604,337,1,7,1137,570,1,28,19,1
2,2,1,1,0.37902,51.186,338,0,4,810,433,1,28,19,1
2,2,2,3,0.43275,3.7129,339,1,7,1143,613,1,28,19,1
2,2,2,3,0.71166,0,340,1,7,1196,584,1,28,19,1
2,2,2,3,0.62742,3.7129,341,1,7,1165,613,1,28,19,1
2,2,2,3,0.55174,6.2748,342,1,7,1194,579,1,28,19,1
2,1,1,4,0.49854,6.2748,343,1,1,791,685,1,28,19,1
2,1,1,1,0.99983,30.288,344,1,4,824,369,1,28,19,1
2,1,1,4,1.1368,2.197,345,1,1,819,658,1,28,19,1
2,1,1,4,0.65786,30.288,346,1,1,825,629,1,28,19,1
2,2,1,1,1.6591,10.604,347,0,4,902,453,1,28,19,1
2,1,1,1,1.0683,51.186,348,1,4,787,411,1,28,19,1
2,2,2,2,0.72165,2.197,349,1,6,1142,512,1,28,19,1
2,2,2,1,0.50532,10.604,350,1,5,1081,421,1,28,19,1
2,1,1,1,1.0382,10.604,351,1,4,848,383,1,28,19,1
2,1,1,4,0.6193,2.197,352,1,1,841,707,1,28,19,1
2,1,1,4,1.5837,2.197,353,1,1,823,690,1,28,19,1
2,2,2,4,0.54978,10.604,354,1,8,1104,705,1,28,19,1
2,2,2,4,0.54652,2.197,355,1,8,1047,627,1,28,19,1
2,1,1,3,0.41516,10.604,356,1,2,791,574,1,28,19,1
2,1,1,3,0.52858,6.2748,357,1,2,824,567,1,28,19,1
2,1,1,3,0.79885,30.288,358,1,2,758,591,1,28,19,1
2,2,2,3,0.50691,0,359,1,7,1167,589,1,28,19,1
2,2,2,3,0.75264,0,360,1,7,1168,603,1,28,19,1
2,1,1,4,0.38898,3.7129,361,1,1,806,688,1,28,19,1
2,2,2,3,0.47691,3.7129,362,1,7,1156,598,1,28,19,1
2,2,2,1,0.84236,51.186,363,1,5,1058,410,1,28,19,1
2,2,2,3,0.42175,0,364,1,7,1177,614,1,28,19,1
2,1,1,3,0.5654,3.7129,365,1,2,758,589,1,28,19,1
2,2,2,3,0.56441,2.197,366,1,7,1166,630,1,28,19,1
2,2,2,1,0.68977,30.288,367,1,5,1054,403,1,28,19,1
2,2,2,3,0.39821,2.197,368,1,7,1128,602,1,28,19,1
2,1,1,1,0.62859,51.186,369,1,4,911,495,1,28,19,1
2,1,1,4,0.50123,6.2748,370,1,1,844,687,1,28,19,1
2,2,2,4,0.93353,6.2748,371,1,8,1078,654,1,28,19,1
2,1,1,3,0.59739,10.604,372,1,2,800,566,1,28,19,1
2,2,2,3,0.79769,10.604,373,1,7,1107,591,1,28,19,1
2,2,2,3,0.47334,0,374,1,7,1119,611,1,28,19,1
2,2,2,1,0.97258,51.186,375,1,5,1046,440,1,28,19,1
2,2,2,3,0.61072,3.7129,376,1,7,1178,606,1,28,19,1
2,2,2,3,1.1677,10.604,377,1,7,1235,577,1,28,19,1
2,1,1,3,0.37776,17.922,378,1,2,842,567,1,28,19,1
2,2,2,3,1.007,2.197,379,1,7,1228,635,1,28,19,1
2,2,2,2,0.72082,3.7129,380,1,6,1139,490,1,28,19,1
2,1,1,3,0.5946,0,381,1,2,765,624,1,28,19,1
2,2,2,1,0.5075,17.922,382,1,5,1052,473,1,28,19,1
2,1,1,4,0.44227,6.2748,383,1,1,886,629,1,28,19,1
2,1,1,4,0.63898,0,384,1,1,815,656,1,28,19,1
2,1,2,1,0.62735,51.186,385,0,5,1094,446,1,28,19,1
2,1,1,4,0.4037,30.288,386,1,1,848,656,1,28,19,1
2,2,1,4,1.2534,30.288,387,0,1,852,627,1,28,19,1
2,2,2,4,0.5313,0,388,1,8,1110,726,1,28,19,1
2,1,2,1,0.52812,51.186,389,0,5,1085,372,1,28,19,1
2,2,2,4,0.49249,2.197,390,1,8,1069,653,1,28,19,1
2,1,1,4,0.85442,10.604,391,1,1,875,618,1,28,19,1
2,1,1,2,0.76688,51.186,392,1,3,764,486,1,28,19,1
2,1,1,2,0.51821,51.186,393,1,3,844,486,1,28,19,1
2,2,2,4,0.43503,0,394,1,8,1078,651,1,28,19,1
2,1,2,2,0.71718,51.186,395,0,6,1074,519,1,28,19,1
2,2,2,4,1.5819,30.288,396,1,8,1134,688,1,28,19,1
2,2,2,4,0.59764,17.922,397,1,8,1065,630,1,28,19,1
2,2,2,4,0.45109,3.7129,398,1,8,1031,605,1,28,19,1
2,1,1,4,0.52963,0,399,1,1,881,652,1,28,19,1
2,2,2,4,1.0378,30.288,400,1,5,1074,444,0,28,19,1
2,1,2,2,0.55985,30.288,401,0,7,1157,586,0,28,19,1
2,1,2,2,0.61126,51.186,402,0,7,1219,615,0,28,19,1
2,2,2,3,0.69784,17.922,403,1,6,1197,480,0,28,19,1
2,2,2,3,0.54789,6.2748,404,1,6,1074,523,0,28,19,1
2,2,2,3,0.51433,17.922,405,1,6,1108,468,0,28,19,1
2,1,1,4,0.56994,10.604,406,1,4,821,439,0,28,19,1
2,2,2,3,0.46367,17.922,407,1,6,1114,504,0,28,19,1
2,2,2,4,0.47163,2.197,408,1,5,1049,409,0,28,19,1
2,2,2,4,0.53134,6.2748,409,1,5,1048,436,0,28,19,1
2,1,1,4,0.44599,30.288,410,1,4,824,353,0,28,19,1
2,1,1,1,0.94554,51.186,411,1,1,759,703,0,28,19,1
2,1,1,4,0.44174,6.2748,412,1,4,838,352,0,28,19,1
2,1,1,4,0.73352,30.288,413,1,4,860,446,0,28,19,1
2,1,1,4,0.46829,6.2748,414,1,4,891,460,0,28,19,1
2,2,2,4,0.43289,30.288,415,1,5,1084,433,0,28,19,1
2,1,1,4,0.54615,3.7129,416,1,4,779,330,0,28,19,1
2,1,1,1,0.52974,30.288,417,1,1,828,724,0,28,19,1
2,1,1,3,0.76097,3.7129,418,1,3,705,459,0,28,19,1
2,2,2,4,0.51096,3.7129,419,1,5,1054,420,0,28,19,1
2,1,1,4,0.82827,3.7129,420,1,4,807,412,0,28,19,1
2,1,1,4,0.78563,2.197,421,1,4,805,430,0,28,19,1
2,2,1,3,0.94137,17.922,422,0,3,854,519,0,28,19,1
2,1,1,4,1.0859,17.922,423,1,4,840,333,0,28,19,1
2,1,1,4,0.53542,10.604,424,1,4,865,459,0,28,19,1
2,1,1,4,0.56543,3.7129,425,1,4,832,418,0,28,19,1
2,1,1,4,0.67487,10.604,426,1,4,805,380,0,28,19,1
2,1,1,4,0.59732,0,427,1,4,897,449,0,28,19,1
2,1,1,1,1.0597,30.288,428,1,1,845,697,0,28,19,1
2,2,2,3,0.45556,10.604,429,1,6,1197,505,0,28,19,1
2,1,1,4,0.33433,17.922,430,1,4,839,409,0,28,19,1
2,2,2,4,0.42063,0,431,1,5,1106,451,0,28,19,1
2,1,1,4,0.70833,30.288,432,1,4,830,458,0,28,19,1
2,2,2,4,0.58693,0,433,1,5,1125,345,0,28,19,1
2,2,2,4,0.59171,17.922,434,1,5,1015,484,0,28,19,1
2,2,2,1,0.66398,51.186,435,1,8,1101,703,0,28,19,1
2,1,1,3,0.50484,2.197,436,1,3,720,457,0,28,19,1
2,2,2,4,0.66946,6.2748,437,1,5,1101,394,0,28,19,1
2,1,1,4,0.32577,6.2748,438,1,4,845,439,0,28,19,1
2,1,1,3,0.82787,2.197,439,1,3,788,529,0,28,19,1
2,1,1,4,0.40225,2.197,440,1,4,819,369,0,28,19,1
2,2,2,3,0.90285,30.288,441,1,6,1149,479,0,28,19,1
2,1,1,4,0.4829,3.7129,442,1,4,832,371,0,28,19,1
2,1,1,4,0.52361,3.7129,443,1,4,842,432,0,28,19,1
2,1,1,4,1.1619,17.922,444,1,4,906,475,0,28,19,1
2,2,1,3,1.1523,51.186,445,0,3,834,513,0,28,19,1
2,2,2,4,0.47034,0,446,1,5,1099,455,0,28,19,1
2,2,2,3,0.82873,17.922,447,1,6,1116,517,0,28,19,1
2,1,1,4,0.48513,10.604,448,1,4,849,437,0,28,19,1
2,2,2,4,0.62334,3.7129,449,1,5,1116,349,0,28,19,1
2,2,2,4,0.82781,10.604,450,1,5,1090,437,0,28,19,1
2,1,1,4,0.71689,2.197,451,1,4,798,426,0,28,19,1
2,2,2,3,0.50174,10.604,452,1,6,1145,532,0,28,19,1
2,1,2,2,1.6452,17.922,453,0,7,1166,605,0,28,19,1
2,2,2,4,0.63885,3.7129,454,1,5,1144,371,0,28,19,1
2,2,1,1,1.4259,51.186,455,0,1,858,696,0,28,19,1
2,2,2,3,0.48269,6.2748,456,1,6,1123,501,0,28,19,1
2,1,1,3,0.52244,3.7129,457,1,3,771,490,0,28,19,1
2,2,2,1,0.41572,6.2748,458,1,8,1143,679,0,28,19,1
2,2,2,3,0.9634,0,459,1,6,1192,485,0,28,19,1
2,2,2,3,0.62115,3.7129,460,1,6,1104,491,0,28,19,1
2,2,2,1,0.5909,51.186,461,1,8,1012,616,0,28,19,1
2,2,2,4,0.70485,6.2748,462,1,5,1115,397,0,28,19,1
2,1,1,4,0.4772,6.2748,463,1,4,840,454,0,28,19,1
2,1,1,4,0.87735,3.7129,464,1,4,810,396,0,28,19,1
2,1,1,1,0.99767,30.288,465,1,1,881,627,0,28,19,1
2,2,1,1,0.77635,51.186,466,0,1,898,608,0,28,19,1
