Subj_idx,Block,Trial,Stimulus,Response,Error,Confidence,ErrorDirectionJudgment,RT_conf,RT_directionJudgment,trialFilter,MADFilter
1,1,1,466.807611,298,-168.807611,1,1,4.152666742,8.288630081,1,1
1,1,2,466.807611,362,-104.807611,2,2,3.614402151,4.742256581,1,1
1,1,3,466.807611,250,-216.807611,2,2,1.265052387,1.472497321,1,0
1,1,4,284.1437632,266,-18.14376321,3,1,0.949871381,2.003766803,1,1
1,1,5,182.6638478,138,-44.66384778,3,1,0.265895153,1.19665132,1,1
1,1,6,182.6638478,202,19.33615222,2,1,0.865804692,0.868918531,1,1
1,1,7,182.6638478,218,35.33615222,2,1,1.18898383,0.923699079,1,1
1,1,8,182.6638478,170,-12.66384778,2,1,0.701183072,0.864325346,1,1
1,1,9,284.1437632,202,-82.14376321,3,1,0.908101626,0.656253649,1,1
1,1,10,284.1437632,250,-34.14376321,2,2,0.475164512,1.322766567,1,1
1,1,11,284.1437632,250,-34.14376321,2,2,1.059298468,1.062936257,1,1
1,1,12,182.6638478,186,3.33615222,2,1,1.09428376,0.527299177,1,1
1,1,13,284.1437632,234,-50.14376321,2,1,0.352535842,0.497112918,1,1
1,1,14,284.1437632,202,-82.14376321,2,2,0.659020748,0.701028763,1,1
1,1,15,182.6638478,186,3.33615222,1,1,1.556179077,0.811783453,1,1
1,1,16,182.6638478,138,-44.66384778,2,1,0.714537541,0.520344499,1,1
1,1,17,182.6638478,154,-28.66384778,2,1,0.827282376,0.547629181,1,1
1,1,18,466.807611,410,-56.80761099,2,2,1.426280965,1.908565508,1,1
1,1,19,284.1437632,218,-66.14376321,2,1,0.673863711,1.034573879,1,1
1,1,20,466.807611,298,-168.807611,2,2,0.578968069,1.506660557,1,1
1,1,21,182.6638478,186,3.33615222,2,1,0.54481229,0.429032574,1,1
1,1,22,466.807611,426,-40.80761099,3,2,0.700799143,0.84098206,1,1
1,1,23,182.6638478,138,-44.66384778,2,1,0.606058328,0.599991765,1,1
1,1,24,284.1437632,218,-66.14376321,2,1,1.016571965,0.400650062,1,1
1,1,25,182.6638478,138,-44.66384778,2,1,0.973524419,0.624858128,1,1
1,1,26,182.6638478,218,35.33615222,2,1,0.475490423,1.377167605,1,1
1,1,27,466.807611,458,-8.807610994,2,2,0.842611879,0.349025524,1,1
1,1,28,466.807611,362,-104.807611,2,1,0.484896683,1.010945473,1,1
1,1,29,182.6638478,154,-28.66384778,2,1,0.504424245,0.406862478,1,1
1,1,30,182.6638478,186,3.33615222,2,1,0.393036083,0.271345588,1,1
1,1,31,284.1437632,234,-50.14376321,2,1,0.570830615,0.525130343,1,1
1,1,32,182.6638478,186,3.33615222,2,1,0.409098551,0.247899046,1,1
1,1,33,284.1437632,234,-50.14376321,2,1,0.311344614,0.278122823,1,1
1,1,34,466.807611,410,-56.80761099,3,2,5.44494024,2.684144916,1,1
1,1,35,466.807611,410,-56.80761099,3,2,0.871256123,0.554813668,1,1
1,1,36,182.6638478,106,-76.66384778,3,2,0.55811346,0.687436143,1,1
1,1,37,284.1437632,234,-50.14376321,2,2,1.62757787,0.445907616,1,1
1,1,38,284.1437632,218,-66.14376321,1,1,1.180827083,0.763530864,1,1
1,1,39,466.807611,378,-88.80761099,2,1,0.680204335,0.718638869,1,1
1,1,40,466.807611,250,-216.807611,2,1,0.326000758,0.316729335,1,0
1,1,41,284.1437632,234,-50.14376321,2,1,0.614958345,0.32700796,1,1
1,1,42,284.1437632,218,-66.14376321,2,1,0.539072411,0.196551602,1,1
1,1,43,466.807611,538,71.19238901,3,2,0.826724546,0.453077629,1,0
1,1,44,182.6638478,218,35.33615222,2,1,0.732920672,1.541664391,1,1
1,1,45,466.807611,346,-120.807611,1,1,0.916096733,0.493605255,1,1
1,1,46,284.1437632,186,-98.14376321,2,1,0.336320633,0.317311609,1,1
1,1,47,182.6638478,138,-44.66384778,2,1,0.417585743,0.436224965,1,1
1,1,48,284.1437632,234,-50.14376321,1,1,0.860587887,0.490496226,1,1
1,1,49,182.6638478,186,3.33615222,2,1,0.374132537,0.299756871,1,1
1,1,50,284.1437632,266,-18.14376321,3,2,1.947914923,1.146736399,1,1
1,1,51,284.1437632,218,-66.14376321,2,1,0.544636941,0.407509208,1,1
1,1,52,284.1437632,218,-66.14376321,3,2,0.399128501,0.509061112,1,1
1,1,53,466.807611,410,-56.80761099,3,1,0.885023273,2.942090207,1,1
1,1,54,284.1437632,10,-274.1437632,1,1,2.670370817,0.596175104,0,1
1,1,55,466.807611,442,-24.80761099,2,1,2.359707561,1.223549152,1,1
1,1,56,182.6638478,186,3.33615222,2,1,0.539607865,0.457120613,1,1
1,1,57,466.807611,442,-24.80761099,2,2,1.523002751,0.744858086,1,1
1,1,58,182.6638478,186,3.33615222,2,1,0.574857737,0.486528432,1,1
1,1,59,284.1437632,346,61.85623679,2,2,0.837050988,2.092896413,1,0
1,1,60,466.807611,410,-56.80761099,2,2,1.727051059,0.729224543,1,1
1,1,61,284.1437632,282,-2.143763214,1,2,1.405072906,0.783555839,1,1
1,1,62,466.807611,442,-24.80761099,3,1,0.973645066,2.08354379,1,1
1,1,63,466.807611,394,-72.80761099,2,1,1.184089148,0.371636486,1,1
1,1,64,182.6638478,138,-44.66384778,3,1,0.758815286,1.660599325,1,1
1,1,65,466.807611,314,-152.807611,3,1,0.30598663,1.964559004,1,1
1,1,66,284.1437632,250,-34.14376321,2,1,0.608256967,1.738661524,1,1
1,1,67,182.6638478,170,-12.66384778,2,1,1.680732028,0.526556095,1,1
1,1,68,284.1437632,250,-34.14376321,2,1,0.674395103,0.577825156,1,1
1,1,69,466.807611,346,-120.807611,3,1,1.169504623,6.102179011,1,1
1,1,70,182.6638478,170,-12.66384778,1,2,1.219104781,2.648190894,1,1
1,1,71,182.6638478,138,-44.66384778,2,1,0.717553913,0.514172563,1,1
1,1,72,284.1437632,250,-34.14376321,2,2,0.652875505,0.702402654,1,1
1,1,73,284.1437632,234,-50.14376321,2,1,0.584654643,0.656906931,1,1
1,1,74,284.1437632,314,29.85623679,2,2,2.322567446,1.35491521,1,1
1,1,75,466.807611,458,-8.807610994,3,2,0.41717457,4.662929014,1,1
1,1,76,284.1437632,282,-2.143763214,3,1,0.811196058,1.226965265,1,1
1,1,77,466.807611,442,-24.80761099,3,2,0.754399754,0.433915533,1,1
1,1,78,466.807611,362,-104.807611,2,1,0.978969157,1.785035905,1,1
1,1,79,466.807611,394,-72.80761099,2,2,1.155484431,1.133028205,1,1
1,1,80,284.1437632,250,-34.14376321,3,1,0.834960655,1.243770801,1,1
1,1,81,466.807611,362,-104.807611,2,1,0.950424502,3.867822258,1,1
1,1,82,182.6638478,202,19.33615222,2,2,0.573587364,1.097421458,1,1
1,1,83,182.6638478,186,3.33615222,2,1,0.509560625,0.400398918,1,1
1,1,84,182.6638478,202,19.33615222,2,1,0.91412748,3.66453379,1,1
1,1,85,284.1437632,298,13.85623679,2,1,1.347561587,0.742800421,1,1
1,1,86,466.807611,410,-56.80761099,2,1,0.580154892,0.524766015,1,1
1,1,87,182.6638478,154,-28.66384778,2,2,1.630475708,0.533079206,1,1
1,1,88,466.807611,330,-136.807611,3,2,0.572099011,1.105182773,1,1
1,1,89,284.1437632,154,-130.1437632,2,1,0.623782092,2.718462541,1,0
1,1,90,466.807611,458,-8.807610994,1,2,1.298346282,2.752363786,1,1
1,1,91,284.1437632,218,-66.14376321,2,1,0.508522161,0.371937385,1,1
1,1,92,466.807611,378,-88.80761099,2,1,0.598371782,0.432827196,1,1
1,1,93,182.6638478,186,3.33615222,2,2,0.359219418,1.145912963,1,1
1,1,94,284.1437632,234,-50.14376321,2,2,1.378641202,1.523686073,1,1
1,1,95,466.807611,170,-296.807611,2,1,0.711011679,0.458783083,1,0
1,1,96,182.6638478,138,-44.66384778,2,1,0.728319128,0.298398085,1,1
1,1,97,284.1437632,218,-66.14376321,1,1,0.732959504,0.722788254,1,1
1,1,98,466.807611,394,-72.80761099,2,2,0.865196514,1.558937147,1,1
1,1,99,466.807611,426,-40.80761099,2,1,0.940737086,1.260079684,1,1
1,1,100,466.807611,426,-40.80761099,2,1,0.608019867,0.493769086,1,1
1,1,101,284.1437632,234,-50.14376321,2,1,0.504385079,1.065530686,1,1
1,1,102,182.6638478,170,-12.66384778,1,1,0.70519958,0.471056968,1,1
1,1,103,284.1437632,250,-34.14376321,3,1,0.864975472,1.610657018,1,1
1,1,104,466.807611,394,-72.80761099,3,1,1.469205213,1.046990247,1,1
1,1,105,284.1437632,282,-2.143763214,2,1,1.318206769,1.291173411,1,1
1,1,106,284.1437632,250,-34.14376321,2,1,2.243329234,1.216024866,1,1
1,1,107,466.807611,426,-40.80761099,2,2,1.404953019,0.7479946,1,1
1,1,108,284.1437632,186,-98.14376321,2,1,4.1748387,0.646160521,1,1
1,1,109,466.807611,362,-104.807611,2,1,0.892876799,0.912138539,1,1
1,1,110,284.1437632,234,-50.14376321,3,1,1.469867576,4.157238261,1,1
1,1,111,182.6638478,138,-44.66384778,3,1,1.093415311,0.899630404,1,1
1,1,112,466.807611,442,-24.80761099,2,1,0.999752111,0.462492963,1,1
1,1,113,284.1437632,250,-34.14376321,2,1,1.187978711,0.310330316,1,1
1,1,114,284.1437632,218,-66.14376321,1,1,0.835058058,5.180789848,1,1
1,1,115,284.1437632,298,13.85623679,2,1,0.614192166,0.452988744,1,1
1,1,116,182.6638478,202,19.33615222,2,2,1.780380631,0.625426385,1,1
1,1,117,466.807611,410,-56.80761099,3,1,2.125439173,0.427661481,1,1
1,1,118,182.6638478,170,-12.66384778,3,2,0.659940418,0.463705465,1,1
1,1,119,466.807611,426,-40.80761099,2,2,0.784933129,0.488712761,1,1
1,1,120,284.1437632,234,-50.14376321,2,2,0.56345984,0.451648587,1,1
1,2,121,182.6638478,170,-12.66384778,2,1,0.548664678,0.35801925,1,1
1,2,122,182.6638478,170,-12.66384778,2,1,0.326846315,0.38865892,1,1
1,2,123,182.6638478,154,-28.66384778,3,1,0.381652274,0.566803357,1,1
1,2,124,466.807611,426,-40.80761099,2,1,0.893699823,0.795350053,1,1
1,2,125,182.6638478,218,35.33615222,3,2,0.766560803,0.785904238,1,1
1,2,126,466.807611,442,-24.80761099,3,1,0.61331234,0.428262377,1,1
1,2,127,182.6638478,186,3.33615222,2,1,0.963063679,0.875392697,1,1
1,2,128,284.1437632,202,-82.14376321,2,1,0.648271861,0.715289281,1,1
1,2,129,182.6638478,170,-12.66384778,2,1,0.345596181,0.262152712,1,1
1,2,130,466.807611,346,-120.807611,1,2,1.208998445,0.76119251,1,1
1,2,131,466.807611,426,-40.80761099,3,2,0.758489445,0.451284775,1,1
1,2,132,284.1437632,234,-50.14376321,3,1,0.574450843,0.70751743,1,1
1,2,133,182.6638478,154,-28.66384778,3,1,1.182735547,0.584356075,1,1
1,2,134,466.807611,442,-24.80761099,3,2,0.777284691,0.404741801,1,1
1,2,135,284.1437632,282,-2.143763214,2,2,1.017108085,0.377917036,1,1
1,2,136,284.1437632,266,-18.14376321,3,2,0.443174868,0.438097419,1,1
1,2,137,466.807611,458,-8.807610994,2,1,0.80236343,0.724676247,1,1
1,2,138,466.807611,378,-88.80761099,1,1,0.459436883,0.480252105,1,1
1,2,139,466.807611,346,-120.807611,2,1,0.301052681,0.801898701,1,1
1,2,140,284.1437632,266,-18.14376321,2,1,0.67475597,0.276031552,1,1
1,2,141,182.6638478,154,-28.66384778,2,1,0.70842263,0.341679016,1,1
1,2,142,284.1437632,250,-34.14376321,2,1,0.471006283,0.321033204,1,1
1,2,143,182.6638478,202,19.33615222,2,1,0.399094276,0.828868198,1,1
1,2,144,466.807611,394,-72.80761099,3,2,0.802978557,0.611246223,1,1
1,2,145,284.1437632,266,-18.14376321,2,1,0.62674529,0.360024597,1,1
1,2,146,182.6638478,154,-28.66384778,2,1,0.643194013,0.33138976,1,1
1,2,147,182.6638478,170,-12.66384778,2,1,0.409411327,0.262445924,1,1
1,2,148,466.807611,410,-56.80761099,2,1,0.484967413,0.368839053,1,1
1,2,149,182.6638478,186,3.33615222,3,1,0.914753881,0.429858423,1,1
1,2,150,182.6638478,170,-12.66384778,3,1,0.533305593,0.321736035,1,1
1,2,151,284.1437632,234,-50.14376321,2,1,0.588502213,1.681364364,1,1
1,2,152,466.807611,426,-40.80761099,2,1,0.633753879,0.31169351,1,1
1,2,153,466.807611,330,-136.807611,3,1,1.223481109,0.561329445,1,1
1,2,154,182.6638478,170,-12.66384778,3,1,0.675911005,0.335629815,1,1
1,2,155,284.1437632,234,-50.14376321,3,1,0.556633111,0.370211613,1,1
1,2,156,466.807611,410,-56.80761099,3,2,0.65689246,0.460662424,1,1
1,2,157,182.6638478,202,19.33615222,3,2,0.466987667,0.405803656,1,1
1,2,158,182.6638478,234,51.33615222,2,1,0.489447787,0.347260769,1,1
1,2,159,466.807611,490,23.19238901,1,1,2.461659638,0.497997782,1,1
1,2,160,182.6638478,170,-12.66384778,3,1,2.534828872,0.505736769,1,1
1,2,161,466.807611,410,-56.80761099,2,2,0.639087022,0.830107562,1,1
1,2,162,284.1437632,266,-18.14376321,2,1,0.335911625,0.238532289,1,1
1,2,163,466.807611,362,-104.807611,2,1,0.807221033,0.853919163,1,1
1,2,164,466.807611,394,-72.80761099,3,1,0.80184584,0.520684788,1,1
1,2,165,182.6638478,186,3.33615222,3,2,0.832187205,0.371765563,1,1
1,2,166,466.807611,362,-104.807611,2,1,0.916840283,0.293127398,1,1
1,2,167,466.807611,426,-40.80761099,2,1,0.506272707,0.325858938,1,1
1,2,168,466.807611,458,-8.807610994,2,1,1.777047457,0.756728213,1,1
1,2,169,182.6638478,266,83.33615222,2,1,0.554167186,0.313589516,1,0
1,2,170,182.6638478,218,35.33615222,2,1,0.450414672,0.25351053,1,1
1,2,171,466.807611,410,-56.80761099,3,1,0.650533859,0.339063876,1,1
1,2,172,466.807611,362,-104.807611,2,1,1.010201312,1.227227972,1,1
1,2,173,182.6638478,170,-12.66384778,3,1,0.340727551,0.476327712,1,1
1,2,174,466.807611,458,-8.807610994,3,1,0.522058858,0.39793941,1,1
1,2,175,284.1437632,234,-50.14376321,3,1,0.293054199,0.258382678,1,1
1,2,176,182.6638478,170,-12.66384778,2,1,0.400827465,0.30572892,1,1
1,2,177,182.6638478,202,19.33615222,2,1,0.538269622,0.380059798,1,1
1,2,178,182.6638478,202,19.33615222,2,1,0.348074576,0.227999985,1,1
1,2,179,284.1437632,298,13.85623679,3,1,1.567762678,0.516109626,1,1
1,2,180,284.1437632,266,-18.14376321,3,1,0.346723888,0.442069838,1,1
1,2,181,284.1437632,234,-50.14376321,2,1,0.268440957,0.185231837,1,1
1,2,182,284.1437632,298,13.85623679,2,1,0.878974278,0.502842799,1,1
1,2,183,284.1437632,266,-18.14376321,2,1,0.579580558,0.231608062,1,1
1,2,184,284.1437632,218,-66.14376321,2,2,0.497607629,0.363940231,1,1
1,2,185,284.1437632,234,-50.14376321,3,1,0.464676997,0.643499586,1,1
1,2,186,182.6638478,202,19.33615222,2,2,0.405558549,0.393490943,1,1
1,2,187,284.1437632,250,-34.14376321,2,2,0.329376742,0.294600276,1,1
1,2,188,284.1437632,298,13.85623679,2,1,0.313789287,0.281474441,1,1
1,2,189,182.6638478,154,-28.66384778,2,1,0.254265188,0.539467862,1,1
1,2,190,182.6638478,154,-28.66384778,2,2,0.752665919,0.395436842,1,1
1,2,191,182.6638478,154,-28.66384778,2,1,0.294608121,0.318829542,1,1
1,2,192,466.807611,426,-40.80761099,3,2,0.641033923,2.506652159,1,1
1,2,193,466.807611,394,-72.80761099,2,2,0.231999227,1.388179715,1,1
1,2,194,182.6638478,218,35.33615222,2,1,0.29503062,0.284575522,1,1
1,2,195,466.807611,410,-56.80761099,2,2,0.372132481,0.372106994,1,1
1,2,196,284.1437632,282,-2.143763214,2,1,0.287106662,0.264928117,1,1
1,2,197,182.6638478,106,-76.66384778,2,1,0.351047342,0.296606846,1,1
1,2,198,466.807611,442,-24.80761099,3,1,3.921588316,0.38966963,1,1
1,2,199,284.1437632,250,-34.14376321,2,1,0.294296481,0.245569573,1,1
1,2,200,284.1437632,282,-2.143763214,2,1,0.298011869,0.188751737,1,1
1,2,201,182.6638478,122,-60.66384778,2,1,0.190474835,0.538030754,1,1
1,2,202,182.6638478,138,-44.66384778,2,1,0.231463456,0.250732435,1,1
1,2,203,182.6638478,154,-28.66384778,2,2,0.37826165,0.422052529,1,1
1,2,204,284.1437632,234,-50.14376321,2,1,0.227875141,0.25648834,1,1
1,2,205,466.807611,426,-40.80761099,2,2,0.335318257,0.412107454,1,1
1,2,206,466.807611,362,-104.807611,2,1,0.280859878,0.282642167,1,1
1,2,207,182.6638478,186,3.33615222,2,1,0.6072788,0.450907679,1,1
1,2,208,182.6638478,138,-44.66384778,2,1,0.263134945,0.245402919,1,1
1,2,209,284.1437632,362,77.85623679,2,1,0.311623119,0.257136826,1,0
1,2,210,466.807611,410,-56.80761099,2,1,0.305478711,0.300083664,1,1
1,2,211,466.807611,426,-40.80761099,2,2,0.178253953,0.555298179,1,1
1,2,212,284.1437632,266,-18.14376321,2,1,0.216551786,0.294362314,1,1
1,2,213,182.6638478,138,-44.66384778,2,1,0.221125039,0.208094412,1,1
1,2,214,284.1437632,218,-66.14376321,2,1,0.229309563,0.49109758,1,1
1,2,215,466.807611,410,-56.80761099,2,2,0.29164799,0.189592169,1,1
1,2,216,182.6638478,170,-12.66384778,3,1,1.006544091,1.042570428,1,1
1,2,217,466.807611,378,-88.80761099,2,1,0.334845195,0.331963259,1,1
1,2,218,284.1437632,346,61.85623679,2,1,0.261119583,0.273050195,1,0
1,2,219,284.1437632,250,-34.14376321,2,1,0.36259377,0.315763126,1,1
1,2,220,182.6638478,250,67.33615222,2,1,0.333122694,0.37893738,1,1
1,2,221,466.807611,442,-24.80761099,2,1,0.411423954,0.569327515,1,1
1,2,222,284.1437632,282,-2.143763214,2,1,0.242743603,0.303948421,1,1
1,2,223,466.807611,442,-24.80761099,3,1,0.639793244,0.398487728,1,1
1,2,224,182.6638478,170,-12.66384778,2,1,0.284664419,0.435873678,1,1
1,2,225,182.6638478,154,-28.66384778,2,1,0.340069594,0.287961009,1,1
1,2,226,466.807611,330,-136.807611,2,2,0.554517542,0.795221033,1,1
1,2,227,182.6638478,202,19.33615222,2,1,0.270113357,0.414237817,1,1
1,2,228,182.6638478,154,-28.66384778,2,1,0.251343514,0.263742291,1,1
1,2,229,466.807611,330,-136.807611,2,1,0.314581507,0.266368957,1,1
1,2,230,182.6638478,154,-28.66384778,2,1,0.242894894,0.319785254,1,1
1,2,231,466.807611,490,23.19238901,2,2,0.305705481,0.25115049,1,1
1,2,232,284.1437632,186,-98.14376321,2,1,0.220521458,0.574691633,1,1
1,2,233,284.1437632,266,-18.14376321,2,1,0.265835195,0.242421351,1,1
1,2,234,284.1437632,266,-18.14376321,2,1,0.269366343,0.243404741,1,1
1,2,235,182.6638478,266,83.33615222,2,1,0.249928214,0.230721826,1,0
1,2,236,284.1437632,26,-258.1437632,1,1,2.852467862,0.8381113,1,0
1,2,237,284.1437632,298,13.85623679,3,1,0.831427983,0.463348382,1,1
1,2,238,284.1437632,250,-34.14376321,3,1,0.406462298,0.309526012,1,1
1,2,239,182.6638478,234,51.33615222,2,1,0.581006729,0.300891842,1,1
1,2,240,466.807611,410,-56.80761099,3,1,0.637447456,0.322451865,1,1
2,1,1,466.807611,266,-200.807611,2,1,5.366151956,7.050570259,1,0
2,1,2,466.807611,266,-200.807611,1,1,2.416503787,3.74567156,1,0
2,1,3,466.807611,426,-40.80761099,3,2,2.688625893,1.766581212,1,0
2,1,4,284.1437632,298,13.85623679,3,2,2.320256131,3.070505194,1,1
2,1,5,182.6638478,250,67.33615222,2,2,2.008371884,3.642672353,1,0
2,1,6,182.6638478,186,3.33615222,2,1,1.426052096,1.652400284,1,1
2,1,7,182.6638478,154,-28.66384778,2,1,2.434466926,1.539654569,1,1
2,1,8,182.6638478,186,3.33615222,2,1,1.830569261,0.990781948,1,1
2,1,9,284.1437632,234,-50.14376321,2,1,1.174194744,3.086221453,1,1
2,1,10,284.1437632,282,-2.143763214,1,2,1.66559379,5.000175827,1,1
2,1,11,284.1437632,250,-34.14376321,2,1,2.666449558,1.871055656,1,1
2,1,12,182.6638478,186,3.33615222,2,1,1.747958596,1.413575018,1,1
2,1,13,284.1437632,218,-66.14376321,2,2,1.179758422,2.676789993,1,1
2,1,14,284.1437632,234,-50.14376321,1,1,2.051214875,1.701501401,1,1
2,1,15,182.6638478,170,-12.66384778,2,1,1.638997908,0.789718662,1,1
2,1,16,182.6638478,170,-12.66384778,2,1,1.397448585,2.559416978,1,1
2,1,17,182.6638478,186,3.33615222,1,2,1.686419406,1.323929723,1,1
2,1,18,466.807611,330,-136.807611,2,1,0.928204093,2.889220055,1,1
2,1,19,284.1437632,266,-18.14376321,1,2,1.738958571,0.955025693,1,1
2,1,20,466.807611,330,-136.807611,2,2,1.817903587,1.01140881,1,1
2,1,21,182.6638478,202,19.33615222,2,2,1.439496992,3.273240408,1,1
2,1,22,466.807611,330,-136.807611,2,2,1.448678571,0.632809475,1,1
2,1,23,182.6638478,186,3.33615222,2,2,1.997590577,2.212198584,1,1
2,1,24,284.1437632,202,-82.14376321,2,1,1.301620536,1.568940036,1,1
2,1,25,182.6638478,202,19.33615222,1,1,1.442981554,0.870946882,1,1
2,1,26,182.6638478,170,-12.66384778,1,1,1.937774997,0.832074641,1,1
2,1,27,466.807611,362,-104.807611,2,2,1.645928229,0.930662036,1,1
2,1,28,466.807611,378,-88.80761099,2,1,1.550946251,2.448492784,1,1
2,1,29,182.6638478,138,-44.66384778,2,1,1.284614108,0.898425367,1,1
2,1,30,182.6638478,186,3.33615222,2,1,1.437199211,0.996824866,1,1
2,1,31,284.1437632,234,-50.14376321,1,1,0.868256236,0.927880351,1,1
2,1,32,182.6638478,202,19.33615222,2,1,0.940676356,1.19336538,1,1
2,1,33,284.1437632,282,-2.143763214,2,2,0.853504528,0.661179712,1,1
2,1,34,466.807611,378,-88.80761099,3,1,2.1029193,2.326485036,1,1
2,1,35,466.807611,378,-88.80761099,2,2,1.305991615,1.299810628,1,1
2,1,36,182.6638478,202,19.33615222,2,1,1.258296627,0.873864298,1,1
2,1,37,284.1437632,282,-2.143763214,2,2,0.704682043,1.86307733,1,1
2,1,38,284.1437632,282,-2.143763214,3,1,1.822924502,1.808649068,1,1
2,1,39,466.807611,410,-56.80761099,2,2,0.512789052,0.588101921,1,1
2,1,40,466.807611,394,-72.80761099,2,2,1.101932695,0.551688434,1,1
2,1,41,284.1437632,282,-2.143763214,2,1,0.562302456,0.620348142,1,1
2,1,42,284.1437632,282,-2.143763214,2,2,1.097511736,0.851031826,1,1
2,1,43,466.807611,330,-136.807611,3,1,1.701586695,1.185681558,1,1
2,1,44,182.6638478,186,3.33615222,3,1,0.931534364,2.111417435,1,1
2,1,45,466.807611,330,-136.807611,2,1,1.447546551,0.473368636,1,1
2,1,46,284.1437632,234,-50.14376321,2,1,1.005400388,0.521479362,1,1
2,1,47,284.1437632,266,-18.14376321,2,1,0.883637339,0.345267823,1,1
2,1,48,466.807611,362,-104.807611,3,2,0.997491587,2.864385787,1,1
2,1,49,182.6638478,186,3.33615222,2,1,0.999453131,1.081356564,1,1
2,1,50,466.807611,330,-136.807611,3,1,0.800417012,0.692580357,1,1
2,1,51,284.1437632,250,-34.14376321,2,1,0.684640856,2.270126433,1,1
2,1,52,182.6638478,170,-12.66384778,2,1,1.021373903,0.440238537,1,1
2,1,53,182.6638478,170,-12.66384778,2,1,2.165812342,0.881029513,1,1
2,1,54,466.807611,346,-120.807611,3,2,1.483228731,3.093210496,1,1
2,1,55,182.6638478,186,3.33615222,2,1,0.686510374,0.656153596,1,1
2,1,56,466.807611,346,-120.807611,3,1,0.837866017,1.098917377,1,1
2,1,57,284.1437632,234,-50.14376321,2,1,0.456738376,0.439031915,1,1
2,1,58,182.6638478,186,3.33615222,3,2,4.07177022,0.656609115,1,1
2,1,59,466.807611,346,-120.807611,2,2,0.472216509,0.586406094,1,1
2,1,60,466.807611,394,-72.80761099,3,2,1.747980676,0.628568504,1,1
2,1,61,466.807611,410,-56.80761099,3,1,1.682869621,2.103210236,1,1
2,1,62,182.6638478,154,-28.66384778,2,1,0.718914687,0.697795489,1,1
2,1,63,284.1437632,234,-50.14376321,3,2,0.85753327,1.361380338,1,1
2,1,64,466.807611,346,-120.807611,3,2,0.512385723,0.965006296,1,1
2,1,65,466.807611,362,-104.807611,1,2,0.620428989,1.952829686,1,1
2,1,66,284.1437632,250,-34.14376321,2,1,0.912022431,0.880047352,1,1
2,1,67,182.6638478,186,3.33615222,1,1,0.765477494,1.001029448,1,1
2,1,68,182.6638478,186,3.33615222,3,1,0.477502491,0.526810616,1,1
2,1,69,466.807611,378,-88.80761099,2,2,0.512063753,0.996147374,1,1
2,1,70,182.6638478,186,3.33615222,1,1,0.819842685,0.584030123,1,1
2,1,71,284.1437632,266,-18.14376321,2,2,0.936383863,0.475037314,1,1
2,1,72,284.1437632,234,-50.14376321,1,2,1.916409352,0.337915827,1,1
2,1,73,466.807611,314,-152.807611,2,1,1.221166337,0.845279933,1,1
2,1,74,466.807611,362,-104.807611,3,2,0.488283387,1.050755446,1,1
2,1,75,182.6638478,170,-12.66384778,2,2,0.93329294,0.476674031,1,1
2,1,76,284.1437632,218,-66.14376321,2,2,1.30715902,0.583356826,1,1
2,1,77,284.1437632,218,-66.14376321,1,1,0.489629881,0.98244715,1,1
2,1,78,466.807611,362,-104.807611,3,2,2.074181594,0.410809373,1,1
2,1,79,284.1437632,234,-50.14376321,1,1,2.549827432,1.144272586,1,1
2,1,80,466.807611,378,-88.80761099,3,2,1.270757518,1.452001514,1,1
2,1,81,466.807611,362,-104.807611,3,2,1.06898709,0.797733373,1,1
2,1,82,182.6638478,170,-12.66384778,2,1,0.600395994,0.411918019,1,1
2,1,83,182.6638478,170,-12.66384778,2,1,0.787160079,0.445391987,1,1
2,1,84,182.6638478,186,3.33615222,2,1,0.899013835,0.325073359,1,1
2,1,85,466.807611,426,-40.80761099,3,1,1.144547689,1.159013856,1,0
2,1,86,284.1437632,250,-34.14376321,2,1,0.442518824,0.321801778,1,1
2,1,87,284.1437632,234,-50.14376321,3,1,0.476867863,2.792844068,1,1
2,1,88,284.1437632,266,-18.14376321,1,1,0.56544242,0.437189929,1,1
2,1,89,284.1437632,218,-66.14376321,1,1,1.564438858,0.486420875,1,1
2,1,90,466.807611,330,-136.807611,2,1,0.515812641,0.342859391,1,1
2,1,91,466.807611,378,-88.80761099,2,1,0.420164957,1.337357464,1,1
2,1,92,182.6638478,170,-12.66384778,3,1,0.557208513,1.135430457,1,1
2,1,93,182.6638478,154,-28.66384778,3,1,0.502302768,1.010421307,1,1
2,1,94,466.807611,314,-152.807611,1,1,0.529846009,1.270762407,1,1
2,1,95,284.1437632,250,-34.14376321,2,1,1.295931284,2.915996311,1,1
2,1,96,182.6638478,202,19.33615222,2,1,0.726311771,1.042734395,1,1
2,1,97,182.6638478,186,3.33615222,1,1,0.514917728,1.561676594,1,1
2,1,98,182.6638478,186,3.33615222,2,1,0.46050621,0.297702616,1,1
2,1,99,466.807611,346,-120.807611,2,1,1.490945215,1.089662881,1,1
2,1,100,182.6638478,170,-12.66384778,2,1,1.242900377,0.683808719,1,1
2,1,101,284.1437632,250,-34.14376321,2,2,1.025861813,0.901563001,1,1
2,1,102,284.1437632,250,-34.14376321,2,1,0.757956358,1.200580496,1,1
2,1,103,182.6638478,186,3.33615222,1,1,1.431763605,1.375709598,1,1
2,1,104,284.1437632,234,-50.14376321,1,1,0.488647797,0.394892553,1,1
2,1,105,284.1437632,266,-18.14376321,2,2,1.270811083,0.445100176,1,1
2,1,106,182.6638478,186,3.33615222,1,2,1.366689836,0.553002589,1,1
2,1,107,182.6638478,202,19.33615222,1,1,0.840922368,0.462502325,1,1
2,1,108,466.807611,346,-120.807611,2,2,0.438619649,0.766914915,1,1
2,1,109,182.6638478,170,-12.66384778,2,1,0.511727005,1.535371782,1,1
2,1,110,466.807611,330,-136.807611,3,1,0.992844534,2.027517894,1,1
2,1,111,466.807611,346,-120.807611,3,1,1.898083056,0.455416002,1,1
2,1,112,284.1437632,266,-18.14376321,3,2,0.635669295,1.078855262,1,1
2,1,113,466.807611,314,-152.807611,2,1,0.5173359,0.3557653,1,1
2,1,114,466.807611,346,-120.807611,2,1,1.038376987,0.508382862,1,1
2,1,115,284.1437632,266,-18.14376321,2,2,1.072620288,0.512685326,1,1
2,1,116,466.807611,330,-136.807611,2,1,0.810257383,0.432546177,1,1
2,1,117,284.1437632,234,-50.14376321,2,2,0.452396932,0.72152101,1,1
2,1,118,182.6638478,170,-12.66384778,2,1,0.624215453,0.3425966,1,1
2,1,119,284.1437632,170,-114.1437632,1,1,0.969151996,1.023020195,1,1
2,1,120,466.807611,346,-120.807611,3,2,0.462877021,1.62001708,1,1
2,2,121,182.6638478,202,19.33615222,2,2,0.405495058,0.299227339,1,1
2,2,122,284.1437632,234,-50.14376321,3,1,0.581988841,0.373728732,1,1
2,2,123,284.1437632,218,-66.14376321,1,2,0.451232506,0.931183205,1,1
2,2,124,182.6638478,218,35.33615222,1,2,0.402241214,0.350496122,1,1
2,2,125,284.1437632,250,-34.14376321,2,2,0.441517016,0.346001115,1,1
2,2,126,182.6638478,186,3.33615222,1,1,0.879288796,1.17836214,1,1
2,2,127,182.6638478,186,3.33615222,1,2,0.99628049,0.368218399,1,1
2,2,128,284.1437632,202,-82.14376321,2,2,0.473353305,0.606120713,1,1
2,2,129,182.6638478,170,-12.66384778,1,1,0.59463433,0.60285794,1,1
2,2,130,182.6638478,138,-44.66384778,2,1,0.43188915,0.266652293,1,1
2,2,131,284.1437632,218,-66.14376321,3,2,0.53384846,1.028104848,1,1
2,2,132,284.1437632,202,-82.14376321,1,2,0.439974417,0.85485036,1,1
2,2,133,284.1437632,234,-50.14376321,2,2,2.834000404,0.459219543,1,1
2,2,134,182.6638478,202,19.33615222,1,2,0.443895334,1.454378588,1,1
2,2,135,466.807611,346,-120.807611,2,2,1.039544954,0.542619677,1,1
2,2,136,466.807611,378,-88.80761099,2,2,0.459022357,0.336306575,1,1
2,2,137,466.807611,378,-88.80761099,2,2,1.029792785,0.298699246,1,1
2,2,138,284.1437632,234,-50.14376321,2,1,0.474593516,0.471332846,1,1
2,2,139,182.6638478,186,3.33615222,2,1,0.418226235,0.283565716,1,1
2,2,140,466.807611,298,-168.807611,2,1,1.212156719,0.449987538,1,1
2,2,141,182.6638478,170,-12.66384778,3,2,0.47938408,1.304055097,1,1
2,2,142,182.6638478,170,-12.66384778,3,1,0.379453281,0.564324973,1,1
2,2,143,284.1437632,202,-82.14376321,1,1,0.420180545,0.491328854,1,1
2,2,144,466.807611,362,-104.807611,3,2,0.659984696,0.465530771,1,1
2,2,145,466.807611,330,-136.807611,3,1,0.437048798,0.301016173,1,1
2,2,146,284.1437632,282,-2.143763214,1,2,0.424905036,0.565077023,1,1
2,2,147,466.807611,346,-120.807611,3,1,0.423287243,0.328292656,1,1
2,2,148,284.1437632,234,-50.14376321,1,1,1.168826811,0.311705003,1,1
2,2,149,284.1437632,250,-34.14376321,1,2,0.50184481,0.352038165,1,1
2,2,150,466.807611,346,-120.807611,2,2,0.416661469,0.356234881,1,1
2,2,151,284.1437632,218,-66.14376321,2,1,0.561085074,0.303042629,1,1
2,2,152,466.807611,362,-104.807611,3,1,0.775622068,2.133997357,1,1
2,2,153,182.6638478,170,-12.66384778,2,1,0.542098123,0.281205768,1,1
2,2,154,182.6638478,154,-28.66384778,1,1,0.652902713,0.321690577,1,1
2,2,155,466.807611,346,-120.807611,3,2,0.377431943,0.805903405,1,1
2,2,156,466.807611,346,-120.807611,2,1,0.410140305,0.26784204,1,1
2,2,157,284.1437632,234,-50.14376321,1,1,0.75291464,0.550805539,1,1
2,2,158,284.1437632,186,-98.14376321,2,1,0.550355279,0.281934813,1,1
2,2,159,182.6638478,122,-60.66384778,3,2,0.658954336,2.282970843,1,1
2,2,160,182.6638478,154,-28.66384778,1,1,1.069095117,0.523274588,1,1
2,2,161,284.1437632,138,-146.1437632,1,1,0.878728896,0.42095337,1,0
2,2,162,284.1437632,218,-66.14376321,2,2,0.441077087,0.292922961,1,1
2,2,163,182.6638478,170,-12.66384778,3,2,0.622578322,1.697349014,1,1
2,2,164,466.807611,362,-104.807611,3,1,3.335431042,0.500128602,1,1
2,2,165,182.6638478,202,19.33615222,1,1,0.746528006,0.349527637,1,1
2,2,166,182.6638478,154,-28.66384778,2,1,0.546246063,0.334530321,1,1
2,2,167,466.807611,362,-104.807611,3,1,1.079096027,0.414276946,1,1
2,2,168,466.807611,346,-120.807611,2,2,0.501186662,0.314385748,1,1
2,2,169,466.807611,362,-104.807611,2,1,0.54435255,0.247646602,1,1
2,2,170,284.1437632,250,-34.14376321,2,1,0.484972455,0.281206733,1,1
2,2,171,284.1437632,234,-50.14376321,2,2,0.950661273,0.278151122,1,1
2,2,172,182.6638478,170,-12.66384778,3,2,0.505674701,0.550360863,1,1
2,2,173,284.1437632,234,-50.14376321,3,2,0.813600656,0.33672108,1,1
2,2,174,466.807611,330,-136.807611,3,1,0.668526776,0.517746211,1,1
2,2,175,182.6638478,122,-60.66384778,2,1,0.441832059,0.293593071,1,1
2,2,176,466.807611,362,-104.807611,2,2,0.424504018,1.160451229,1,1
2,2,177,182.6638478,138,-44.66384778,3,1,0.930273215,0.941613051,1,1
2,2,178,284.1437632,218,-66.14376321,1,2,1.047064371,0.439337175,1,1
2,2,179,182.6638478,154,-28.66384778,2,1,0.540547261,0.27702834,1,1
2,2,180,284.1437632,218,-66.14376321,2,2,0.453260797,0.336540838,1,1
2,2,181,466.807611,298,-168.807611,3,2,0.489651493,1.259677101,1,1
2,2,182,182.6638478,186,3.33615222,3,1,0.49025023,1.043095504,1,1
2,2,183,284.1437632,202,-82.14376321,1,2,0.578358815,0.807084115,1,1
2,2,184,466.807611,330,-136.807611,2,2,2.735887566,0.390694942,1,1
2,2,185,466.807611,346,-120.807611,3,2,0.498630844,0.513256554,1,1
2,2,186,284.1437632,218,-66.14376321,2,1,0.454518249,0.364240771,1,1
2,2,187,182.6638478,138,-44.66384778,2,1,1.334697319,0.396882998,1,1
2,2,188,466.807611,330,-136.807611,1,2,0.724832735,0.402414557,1,1
2,2,189,182.6638478,170,-12.66384778,2,1,1.210669985,0.722961818,1,1
2,2,190,466.807611,346,-120.807611,2,2,0.428534975,0.272355313,1,1
2,2,191,284.1437632,218,-66.14376321,1,1,0.438393815,0.886251267,1,1
2,2,192,182.6638478,138,-44.66384778,3,2,0.717055454,1.707560683,1,1
2,2,193,284.1437632,202,-82.14376321,3,2,0.559825671,0.467050053,1,1
2,2,194,284.1437632,234,-50.14376321,1,1,1.340682777,2.864949033,1,1
2,2,195,466.807611,346,-120.807611,2,1,0.505102813,1.550371688,1,1
2,2,196,182.6638478,154,-28.66384778,1,2,0.916786603,1.437765692,1,1
2,2,197,284.1437632,202,-82.14376321,1,2,0.772362394,0.381487484,1,1
2,2,198,466.807611,314,-152.807611,1,2,0.57625763,0.357832824,1,1
2,2,199,284.1437632,218,-66.14376321,3,1,0.446528972,0.334320618,1,1
2,2,200,466.807611,346,-120.807611,2,2,2.062345594,0.410695921,1,1
2,2,201,284.1437632,250,-34.14376321,1,2,0.499450007,0.617543301,1,1
2,2,202,182.6638478,170,-12.66384778,2,2,0.565507605,0.253324047,1,1
2,2,203,466.807611,282,-184.807611,3,1,0.472809602,0.834583443,1,1
2,2,204,466.807611,314,-152.807611,3,2,1.50192379,0.362968849,1,1
2,2,205,284.1437632,234,-50.14376321,2,1,0.410817561,0.574110399,1,1
2,2,206,466.807611,298,-168.807611,2,1,0.420829927,0.339783629,1,1
2,2,207,182.6638478,170,-12.66384778,1,1,0.784452095,0.46753667,1,1
2,2,208,466.807611,346,-120.807611,1,2,1.000509923,1.042034555,1,1
2,2,209,466.807611,410,-56.80761099,2,2,0.504879011,0.315846372,1,1
2,2,210,466.807611,362,-104.807611,3,2,1.115653248,0.448559041,1,1
2,2,211,182.6638478,154,-28.66384778,1,1,5.914763777,2.128600072,1,1
2,2,212,284.1437632,154,-130.1437632,1,1,0.436223572,0.432116246,1,0
2,2,213,466.807611,378,-88.80761099,3,2,0.517043637,0.319427858,1,1
2,2,214,182.6638478,154,-28.66384778,2,1,0.441100366,0.27289291,1,1
2,2,215,284.1437632,170,-114.1437632,3,1,0.449027669,0.287959721,1,1
2,2,216,466.807611,330,-136.807611,1,1,1.580296385,0.383848124,1,1
2,2,217,284.1437632,250,-34.14376321,1,2,0.989794852,0.750624226,1,1
2,2,218,466.807611,394,-72.80761099,1,2,1.007077734,0.542374747,1,1
2,2,219,182.6638478,138,-44.66384778,3,1,0.538442732,0.513011872,1,1
2,2,220,466.807611,394,-72.80761099,3,2,0.469080252,1.038024425,1,1
2,2,221,466.807611,314,-152.807611,2,1,0.590851539,1.02324786,1,1
2,2,222,284.1437632,154,-130.1437632,2,1,0.446766562,0.337709504,1,0
2,2,223,284.1437632,234,-50.14376321,1,2,0.83652908,0.34492232,1,1
2,2,224,182.6638478,122,-60.66384778,3,1,0.814956567,0.440545721,1,1
2,2,225,466.807611,346,-120.807611,2,2,0.930705881,0.440465117,1,1
2,2,226,284.1437632,234,-50.14376321,1,1,0.913571622,1.055831988,1,1
2,2,227,182.6638478,154,-28.66384778,3,2,1.347883101,0.582759221,1,1
2,2,228,182.6638478,154,-28.66384778,1,2,1.071239615,0.31475779,1,1
2,2,229,466.807611,410,-56.80761099,3,1,0.910693094,0.902209481,1,1
2,2,230,284.1437632,282,-2.143763214,2,1,1.058121369,0.915292747,1,1
2,2,231,284.1437632,186,-98.14376321,1,2,0.426827444,0.789506901,1,1
2,2,232,182.6638478,138,-44.66384778,3,1,1.298908691,0.32062864,1,1
2,2,233,182.6638478,154,-28.66384778,3,2,0.975388748,1.408620719,1,1
2,2,234,466.807611,298,-168.807611,3,1,1.139551306,0.36396078,1,1
2,2,235,182.6638478,170,-12.66384778,3,2,0.90792138,0.221425227,1,1
2,2,236,284.1437632,186,-98.14376321,3,1,0.405165376,0.305812444,1,1
2,2,237,182.6638478,186,3.33615222,2,2,0.447686292,0.257647362,1,1
2,2,238,182.6638478,154,-28.66384778,2,1,0.973078896,0.314598318,1,1
2,2,239,284.1437632,234,-50.14376321,2,2,0.43614984,0.306703137,1,1
2,2,240,284.1437632,218,-66.14376321,1,2,0.874450506,0.695692483,1,1
3,1,1,182.6638478,154,-28.66384778,2,1,8.950555526,2.830204391,1,1
3,1,2,284.1437632,234,-50.14376321,3,1,2.521310087,4.02072097,1,1
3,1,3,182.6638478,170,-12.66384778,2,1,1.978450726,2.426161104,1,1
3,1,4,182.6638478,170,-12.66384778,3,2,5.922636377,1.783943268,1,1
3,1,5,466.807611,362,-104.807611,1,1,2.550707399,1.986512505,1,0
3,1,6,182.6638478,202,19.33615222,2,1,1.3921732,2.017633767,1,1
3,1,7,284.1437632,266,-18.14376321,1,2,1.853164679,1.584953249,1,1
3,1,8,466.807611,362,-104.807611,1,2,2.139909981,1.301220182,1,0
3,1,9,284.1437632,218,-66.14376321,2,1,1.72419882,1.514828548,1,0
3,1,10,466.807611,394,-72.80761099,1,1,1.60606034,1.14379353,1,1
3,1,11,284.1437632,282,-2.143763214,2,1,1.288138043,1.781780502,1,1
3,1,12,182.6638478,202,19.33615222,2,1,1.65548006,1.098348889,1,1
3,1,13,466.807611,442,-24.80761099,1,2,1.179290525,1.046033216,1,1
3,1,14,284.1437632,298,13.85623679,2,2,1.305566684,2.108026126,1,1
3,1,15,284.1437632,250,-34.14376321,2,1,1.477649199,1.095900575,1,1
3,1,16,284.1437632,266,-18.14376321,2,1,1.195528386,1.042783626,1,1
3,1,17,182.6638478,218,35.33615222,3,2,1.455076182,1.167562293,1,1
3,1,18,284.1437632,250,-34.14376321,2,1,1.360388851,0.878049953,1,1
3,1,19,284.1437632,234,-50.14376321,2,2,1.274092831,1.671120055,1,1
3,1,20,284.1437632,330,45.85623679,1,2,2.012457719,1.341003973,1,1
3,1,21,182.6638478,170,-12.66384778,3,1,1.329858127,1.508372446,1,1
3,1,22,284.1437632,298,13.85623679,2,1,2.086683311,0.868785179,1,1
3,1,23,466.807611,490,23.19238901,1,1,1.084518002,0.972258412,1,1
3,1,24,466.807611,474,7.192389006,1,1,1.093715241,0.374590176,1,1
3,1,25,182.6638478,202,19.33615222,2,2,1.17288113,1.929323684,1,1
3,1,26,466.807611,458,-8.807610994,2,2,1.2962692,0.761513142,1,1
3,1,27,466.807611,474,7.192389006,2,2,1.210203018,0.711798353,1,1
3,1,28,466.807611,490,23.19238901,1,1,1.427314586,0.587141683,1,1
3,1,29,466.807611,522,55.19238901,1,2,1.261771852,0.448439868,1,1
3,1,30,284.1437632,250,-34.14376321,2,1,3.351384943,1.855883394,1,1
3,1,31,284.1437632,298,13.85623679,2,1,1.203942713,1.390469036,1,1
3,1,32,466.807611,490,23.19238901,2,2,1.092750154,0.440257185,1,1
3,1,33,182.6638478,218,35.33615222,3,2,1.144903295,0.53025445,1,1
3,1,34,284.1437632,330,45.85623679,1,2,1.444252011,0.389617975,1,1
3,1,35,284.1437632,282,-2.143763214,1,1,0.982594876,1.244516249,1,1
3,1,36,284.1437632,298,13.85623679,2,2,1.086743109,1.282774714,1,1
3,1,37,284.1437632,330,45.85623679,2,2,1.204712044,0.714661012,1,1
3,1,38,182.6638478,218,35.33615222,3,1,1.631723263,1.222604489,1,1
3,1,39,182.6638478,186,3.33615222,3,1,2.505422871,1.552444672,1,1
3,1,40,466.807611,442,-24.80761099,1,2,1.21183495,1.005311097,1,1
3,1,41,182.6638478,218,35.33615222,3,1,1.653776821,1.718057821,1,1
3,1,42,182.6638478,250,67.33615222,2,2,1.126664492,0.351869496,1,1
3,1,43,466.807611,522,55.19238901,2,2,0.957606372,0.300459708,1,1
3,1,44,284.1437632,298,13.85623679,2,2,1.355661747,0.353878528,1,1
3,1,45,284.1437632,266,-18.14376321,2,1,1.04336073,0.344138792,1,1
3,1,46,466.807611,474,7.192389006,2,2,1.001727528,0.361875026,1,1
3,1,47,466.807611,570,103.192389,1,2,1.841038831,0.80439263,1,1
3,1,48,182.6638478,234,51.33615222,3,1,0.91292619,0.743553558,1,1
3,1,49,284.1437632,266,-18.14376321,2,2,1.347057164,0.534243831,1,1
3,1,50,182.6638478,218,35.33615222,3,2,1.368292481,1.034433204,1,1
3,1,51,284.1437632,330,45.85623679,2,1,1.038056333,1.072680995,1,1
3,1,52,284.1437632,346,61.85623679,2,2,0.962469129,0.320041141,1,1
3,1,53,182.6638478,202,19.33615222,3,1,1.311229415,0.794299532,1,1
3,1,54,466.807611,426,-40.80761099,2,2,1.061676253,0.400516629,1,1
3,1,55,466.807611,490,23.19238901,2,2,0.935760372,0.273062794,1,1
3,1,56,284.1437632,330,45.85623679,2,1,1.366534503,0.767242084,1,1
3,1,57,182.6638478,234,51.33615222,3,1,1.017075124,0.768394589,1,1
3,1,58,182.6638478,202,19.33615222,3,1,0.734794184,1.054073504,1,1
3,1,59,466.807611,410,-56.80761099,2,2,0.796012978,0.599626335,1,1
3,1,60,182.6638478,250,67.33615222,3,1,0.896283611,0.790494894,1,1
3,1,61,284.1437632,314,29.85623679,2,2,0.702019722,0.297450728,1,1
3,1,62,466.807611,442,-24.80761099,1,2,0.84790092,0.493354407,1,1
3,1,63,182.6638478,202,19.33615222,2,2,1.291608713,0.610120664,1,1
3,1,64,284.1437632,298,13.85623679,2,2,0.832481917,0.302143264,1,1
3,1,65,284.1437632,346,61.85623679,2,1,0.87661566,0.339940234,1,1
3,1,66,466.807611,602,135.192389,1,2,1.111971991,0.321896042,1,1
3,1,67,182.6638478,234,51.33615222,3,2,1.217202172,0.395275824,1,1
3,1,68,284.1437632,346,61.85623679,2,2,0.807951035,0.266901247,1,1
3,1,69,182.6638478,186,3.33615222,3,1,1.138501628,0.394772115,1,1
3,1,70,466.807611,570,103.192389,1,2,1.522011079,0.315593087,1,1
3,1,71,182.6638478,298,115.3361522,2,1,0.926456013,2.200440891,1,1
3,1,72,182.6638478,266,83.33615222,3,1,1.057594738,0.383917531,1,1
3,1,73,182.6638478,266,83.33615222,3,2,0.959955443,0.327828413,1,1
3,1,74,466.807611,506,39.19238901,1,2,0.9877813,0.312953346,1,1
3,1,75,284.1437632,298,13.85623679,2,1,0.717296645,0.294791903,1,1
3,1,76,182.6638478,250,67.33615222,3,2,0.504081735,0.438010308,1,1
3,1,77,284.1437632,298,13.85623679,2,2,0.893016895,0.318361399,1,1
3,1,78,182.6638478,266,83.33615222,2,2,0.891152753,0.311005737,1,1
3,1,79,466.807611,490,23.19238901,2,1,1.267373757,0.341512846,1,1
3,1,80,182.6638478,250,67.33615222,1,1,1.527614849,0.355691262,1,1
3,1,81,466.807611,458,-8.807610994,1,2,0.946500422,0.334198412,1,1
3,1,82,284.1437632,314,29.85623679,2,1,0.725227304,0.471055643,1,1
3,1,83,182.6638478,250,67.33615222,3,1,1.272441695,0.974925162,1,1
3,1,84,182.6638478,218,35.33615222,2,1,0.77540279,0.480510138,1,1
3,1,85,182.6638478,266,83.33615222,2,2,0.79247816,0.273685031,1,1
3,1,86,284.1437632,282,-2.143763214,2,2,0.706478582,0.371789355,1,1
3,1,87,182.6638478,186,3.33615222,2,2,0.943196162,0.237968194,1,1
3,1,88,466.807611,490,23.19238901,1,2,0.835170447,0.346876768,1,1
3,1,89,284.1437632,314,29.85623679,1,2,0.892723823,0.304673304,1,1
3,1,90,466.807611,458,-8.807610994,1,1,0.925370329,0.366591856,1,1
3,1,91,466.807611,458,-8.807610994,1,1,0.910981723,0.31629236,1,1
3,1,92,284.1437632,346,61.85623679,2,1,0.987687672,0.635389796,1,1
3,1,93,182.6638478,250,67.33615222,3,1,1.152074058,0.857778597,1,1
3,1,94,284.1437632,346,61.85623679,2,2,0.773488101,0.271979992,1,1
3,1,95,182.6638478,234,51.33615222,3,1,0.704491235,0.358556214,1,1
3,1,96,466.807611,426,-40.80761099,1,1,1.185009,0.544274747,1,1
3,1,97,466.807611,522,55.19238901,1,2,0.848293139,0.575186753,1,1
3,1,98,182.6638478,282,99.33615222,2,1,0.997430677,0.305524542,1,1
3,1,99,284.1437632,346,61.85623679,2,2,0.948271491,0.364276166,1,1
3,1,100,284.1437632,346,61.85623679,2,2,0.990996709,0.274874951,1,1
3,1,101,182.6638478,218,35.33615222,3,1,0.712384788,0.564320871,1,1
3,1,102,466.807611,618,151.192389,2,2,3.621064639,1.036262606,1,0
3,1,103,466.807611,618,151.192389,1,2,1.291108268,0.613732434,1,0
3,1,104,182.6638478,234,51.33615222,3,1,1.031771779,0.8366482,1,1
3,1,105,466.807611,538,71.19238901,1,2,0.986857636,0.377090804,1,1
3,1,106,284.1437632,330,45.85623679,2,2,0.834414455,0.924744757,1,1
3,1,107,466.807611,490,23.19238901,1,2,1.079475792,0.618974206,1,1
3,1,108,182.6638478,266,83.33615222,1,1,1.111956322,0.50328791,1,1
3,1,109,182.6638478,250,67.33615222,3,1,1.011180054,0.734469917,1,1
3,1,110,284.1437632,314,29.85623679,2,2,1.14072039,0.41620372,1,1
3,1,111,182.6638478,298,115.3361522,2,2,0.768719148,0.338142496,1,1
3,1,112,182.6638478,266,83.33615222,2,2,0.896436115,0.630049446,1,1
3,1,113,284.1437632,378,93.85623679,1,2,0.889205639,0.402086119,1,1
3,1,114,466.807611,570,103.192389,1,1,1.627139165,0.383879232,1,1
3,1,115,284.1437632,346,61.85623679,2,1,0.929414376,1.157329117,1,1
3,1,116,182.6638478,202,19.33615222,3,1,0.87728655,0.818331969,1,1
3,1,117,466.807611,410,-56.80761099,1,1,1.16511068,0.521460695,1,1
3,1,118,466.807611,506,39.19238901,1,2,1.120244849,0.895239872,1,1
3,1,119,466.807611,554,87.19238901,1,2,0.843322224,0.39142928,1,1
3,1,120,284.1437632,346,61.85623679,2,1,1.311802881,0.72887239,1,1
3,2,121,466.807611,442,-24.80761099,2,2,0.977104109,0.382487542,1,1
3,2,122,466.807611,394,-72.80761099,1,1,1.058160354,0.588676505,1,1
3,2,123,284.1437632,394,109.8562368,1,1,0.913995975,0.551948476,1,1
3,2,124,466.807611,458,-8.807610994,1,2,1.511123922,1.08575761,1,1
3,2,125,182.6638478,314,131.3361522,2,2,1.768071229,1.11473256,1,1
3,2,126,466.807611,458,-8.807610994,1,2,1.232146359,1.096837053,1,1
3,2,127,466.807611,474,7.192389006,1,2,1.224251891,1.053409725,1,1
3,2,128,182.6638478,250,67.33615222,3,1,1.049084253,0.915276374,1,1
3,2,129,466.807611,490,23.19238901,2,2,0.956021355,0.526880627,1,1
3,2,130,182.6638478,218,35.33615222,3,2,1.319284195,0.393199473,1,1
3,2,131,466.807611,490,23.19238901,1,2,1.159607647,0.738057018,1,1
3,2,132,284.1437632,346,61.85623679,2,1,0.857467666,0.405768296,1,1
3,2,133,284.1437632,346,61.85623679,2,1,0.83076932,0.331489624,1,1
3,2,134,182.6638478,218,35.33615222,2,1,0.799383801,0.27905939,1,1
3,2,135,182.6638478,218,35.33615222,2,1,0.700455781,0.291305957,1,1
3,2,136,182.6638478,234,51.33615222,2,2,1.043414287,0.290688664,1,1
3,2,137,182.6638478,298,115.3361522,2,2,1.176545284,0.480565038,1,1
3,2,138,466.807611,522,55.19238901,1,1,0.892516769,0.435556144,1,1
3,2,139,284.1437632,314,29.85623679,2,2,0.89158145,0.457473415,1,1
3,2,140,466.807611,490,23.19238901,1,2,0.877292218,0.468470047,1,1
3,2,141,284.1437632,314,29.85623679,2,1,0.800022166,0.728877866,1,1
3,2,142,284.1437632,330,45.85623679,2,2,0.913257476,0.771172727,1,1
3,2,143,182.6638478,282,99.33615222,2,2,0.800505212,0.283208877,1,1
3,2,144,284.1437632,346,61.85623679,2,1,1.108700566,0.554855506,1,1
3,2,145,466.807611,538,71.19238901,1,2,0.875420665,0.833876118,1,1
3,2,146,466.807611,442,-24.80761099,2,1,1.780157256,0.847953512,1,1
3,2,147,182.6638478,218,35.33615222,3,1,0.869185089,0.646974104,1,1
3,2,148,182.6638478,234,51.33615222,3,1,0.801136193,2.511302947,1,1
3,2,149,466.807611,458,-8.807610994,1,2,0.813548521,0.744395656,1,1
3,2,150,284.1437632,362,77.85623679,2,1,1.018547677,0.357249219,1,1
3,2,151,466.807611,538,71.19238901,2,2,1.095187098,0.857506962,1,1
3,2,152,182.6638478,250,67.33615222,3,2,0.617757427,0.478633899,1,1
3,2,153,182.6638478,234,51.33615222,3,2,0.497055648,0.351150648,1,1
3,2,154,284.1437632,362,77.85623679,2,2,0.733428778,0.359109823,1,1
3,2,155,466.807611,474,7.192389006,1,2,0.785938426,0.552244896,1,1
3,2,156,182.6638478,234,51.33615222,3,2,0.763452378,0.479369707,1,1
3,2,157,182.6638478,298,115.3361522,2,1,0.953289985,0.295235244,1,1
3,2,158,182.6638478,298,115.3361522,2,1,0.94256889,0.414139442,1,1
3,2,159,466.807611,458,-8.807610994,1,2,1.05437288,0.670121634,1,1
3,2,160,284.1437632,362,77.85623679,2,1,0.980017853,0.782262116,1,1
3,2,161,284.1437632,330,45.85623679,2,2,0.332451192,0.323684813,1,1
3,2,162,182.6638478,250,67.33615222,2,1,0.4162985,0.438163882,1,1
3,2,163,284.1437632,378,93.85623679,2,2,0.320335409,0.264732532,1,1
3,2,164,182.6638478,234,51.33615222,3,1,1.784161746,0.488616658,1,1
3,2,165,284.1437632,378,93.85623679,2,2,0.203846687,0.170440973,1,1
3,2,166,284.1437632,346,61.85623679,2,2,0.237663813,0.219160419,1,1
3,2,167,466.807611,570,103.192389,1,2,0.373507657,0.462478555,1,1
3,2,168,182.6638478,282,99.33615222,3,1,0.350520247,0.373585731,1,1
3,2,169,466.807611,490,23.19238901,1,1,0.296601217,0.305657201,1,1
3,2,170,182.6638478,250,67.33615222,3,1,0.298524081,0.29093135,1,1
3,2,171,182.6638478,314,131.3361522,1,1,1.11147266,0.340987929,1,1
3,2,172,466.807611,506,39.19238901,2,1,0.664280347,0.429026111,1,1
3,2,173,466.807611,538,71.19238901,1,2,0.306590139,0.330954702,1,1
3,2,174,466.807611,346,-120.807611,1,1,0.771426484,0.377943381,1,0
3,2,175,466.807611,474,7.192389006,1,2,0.267420313,0.230437671,1,1
3,2,176,182.6638478,282,99.33615222,3,2,0.266876304,0.774565878,1,1
3,2,177,284.1437632,346,61.85623679,2,2,0.192349945,0.966257285,1,1
3,2,178,284.1437632,378,93.85623679,2,2,0.245879111,0.274731237,1,1
3,2,179,182.6638478,250,67.33615222,3,1,0.242691884,0.233726252,1,1
3,2,180,466.807611,474,7.192389006,1,1,0.231604962,0.259805167,1,1
3,2,181,284.1437632,346,61.85623679,2,1,0.372920181,0.362707349,1,1
3,2,182,466.807611,490,23.19238901,1,1,0.217020029,0.264446308,1,1
3,2,183,284.1437632,346,61.85623679,2,1,0.274339759,0.273613795,1,1
3,2,184,182.6638478,314,131.3361522,2,2,0.2196964,0.237850418,1,1
3,2,185,466.807611,522,55.19238901,1,2,0.272685913,0.288465969,1,1
3,2,186,182.6638478,266,83.33615222,2,2,0.37374915,0.314721024,1,1
3,2,187,284.1437632,346,61.85623679,2,1,0.223334821,0.256182703,1,1
3,2,188,182.6638478,250,67.33615222,2,2,0.22835192,0.261223852,1,1
3,2,189,284.1437632,362,77.85623679,2,1,1.016120823,0.77959687,1,1
3,2,190,284.1437632,282,-2.143763214,2,2,0.458959989,0.500474219,1,1
3,2,191,182.6638478,298,115.3361522,2,2,0.30812351,0.33636505,1,1
3,2,192,284.1437632,362,77.85623679,2,1,0.406217029,0.554071798,1,1
3,2,193,182.6638478,282,99.33615222,2,2,0.297346943,0.320620571,1,1
3,2,194,466.807611,474,7.192389006,1,2,0.284276934,0.371036187,1,1
3,2,195,466.807611,458,-8.807610994,2,2,0.300313247,0.411421012,1,1
3,2,196,466.807611,474,7.192389006,1,1,0.744898555,0.391572115,1,1
3,2,197,466.807611,490,23.19238901,2,2,0.488307547,0.422849126,1,1
3,2,198,284.1437632,314,29.85623679,2,1,0.504918066,0.335407653,1,1
3,2,199,284.1437632,170,-114.1437632,2,1,1.199412318,4.800083132,1,0
3,2,200,466.807611,506,39.19238901,1,1,0.362624166,0.409118543,1,1
3,2,201,182.6638478,202,19.33615222,3,1,0.50613227,0.468148538,1,1
3,2,202,466.807611,570,103.192389,1,2,0.502853587,0.455351099,1,1
3,2,203,182.6638478,250,67.33615222,2,2,1.05490319,0.846080699,1,1
3,2,204,466.807611,570,103.192389,1,2,0.430377805,0.501310028,1,1
3,2,205,284.1437632,394,109.8562368,2,2,0.477998761,0.549574878,1,1
3,2,206,182.6638478,314,131.3361522,3,1,1.138053694,0.98320212,1,1
3,2,207,284.1437632,314,29.85623679,3,1,0.40593002,0.378418656,1,1
3,2,208,284.1437632,362,77.85623679,2,1,0.300346351,0.298282157,1,1
3,2,209,284.1437632,346,61.85623679,2,1,0.260968995,0.264743313,1,1
3,2,210,182.6638478,26,-156.6638478,1,1,5.458202109,1.545802685,1,0
3,2,211,182.6638478,298,115.3361522,2,1,0.533517377,0.443601782,1,1
3,2,212,284.1437632,346,61.85623679,2,2,0.410031664,0.386931345,1,1
3,2,213,182.6638478,266,83.33615222,2,1,1.852904936,0.357349142,1,1
3,2,214,284.1437632,378,93.85623679,2,2,0.582937427,0.543040533,1,1
3,2,215,466.807611,490,23.19238901,1,1,1.499320539,1.415240565,1,1
3,2,216,284.1437632,330,45.85623679,2,1,0.796674317,0.489592568,1,1
3,2,217,466.807611,602,135.192389,1,1,0.567471054,0.544722083,1,1
3,2,218,284.1437632,410,125.8562368,2,2,0.45442736,0.40250772,1,1
3,2,219,466.807611,474,7.192389006,1,2,0.994278043,0.855803802,1,1
3,2,220,284.1437632,394,109.8562368,2,1,2.424855103,1.006375586,1,1
3,2,221,284.1437632,362,77.85623679,2,2,1.087296369,0.790775768,1,1
3,2,222,466.807611,490,23.19238901,3,2,1.068373254,0.331899957,1,1
3,2,223,466.807611,490,23.19238901,2,2,1.017585976,0.362341178,1,1
3,2,224,182.6638478,282,99.33615222,2,2,0.777960543,0.695298145,1,1
3,2,225,466.807611,442,-24.80761099,2,2,0.765366499,0.677940194,1,1
3,2,226,284.1437632,314,29.85623679,2,1,0.809121047,0.76294354,1,1
3,2,227,284.1437632,394,109.8562368,2,2,1.127859623,1.087628945,1,1
3,2,228,466.807611,522,55.19238901,1,1,1.024774633,1.152529605,1,1
3,2,229,284.1437632,362,77.85623679,2,2,0.955767969,0.871081641,1,1
3,2,230,466.807611,538,71.19238901,2,2,0.8866079,0.803138498,1,1
3,2,231,182.6638478,234,51.33615222,3,2,0.757691279,0.617631779,1,1
3,2,232,466.807611,538,71.19238901,1,2,1.208683198,1.187499544,1,1
3,2,233,284.1437632,346,61.85623679,2,1,0.694497654,1.155591477,1,1
3,2,234,182.6638478,282,99.33615222,3,2,0.81901495,0.844585676,1,1
3,2,235,466.807611,490,23.19238901,1,1,1.045419099,0.991953424,1,1
3,2,236,182.6638478,282,99.33615222,2,2,1.12396006,0.551233901,1,1
3,2,237,466.807611,538,71.19238901,1,1,0.959821932,1.4237079,1,1
3,2,238,466.807611,554,87.19238901,2,1,0.948815968,0.906969312,1,1
3,2,239,284.1437632,410,125.8562368,2,2,1.019039047,0.662302725,1,1
3,2,240,182.6638478,266,83.33615222,3,2,0.762812595,0.526866669,1,1
4,1,1,466.807611,410,-56.80761099,2,2,7.905651068,2.403285385,1,1
4,1,2,466.807611,378,-88.80761099,3,1,4.523231566,2.159646439,1,1
4,1,3,466.807611,298,-168.807611,2,2,7.628481308,3.125945498,1,1
4,1,4,284.1437632,330,45.85623679,3,1,1.850431533,2.683487036,1,1
4,1,5,182.6638478,186,3.33615222,3,2,4.407586103,2.158989143,1,1
4,1,6,182.6638478,186,3.33615222,3,2,1.226652225,2.084513407,1,1
4,1,7,182.6638478,170,-12.66384778,2,2,3.060408387,2.699323466,1,1
4,1,8,182.6638478,186,3.33615222,3,1,1.310789261,1.478932023,1,1
4,1,9,284.1437632,314,29.85623679,1,2,4.618051243,1.765301439,1,1
4,1,10,284.1437632,202,-82.14376321,2,1,8.494454643,1.490702934,1,1
4,1,11,284.1437632,266,-18.14376321,2,2,2.007798558,2.184533201,1,1
4,1,12,182.6638478,170,-12.66384778,3,1,1.069035302,1.143269602,1,1
4,1,13,284.1437632,282,-2.143763214,2,2,2.245683024,1.028192822,1,1
4,1,14,284.1437632,282,-2.143763214,1,2,0.907853729,1.402772697,1,1
4,1,15,182.6638478,202,19.33615222,2,2,1.950454743,3.282310801,1,1
4,1,16,284.1437632,234,-50.14376321,2,1,1.150973158,1.97122441,1,1
4,1,17,284.1437632,410,125.8562368,2,2,3.18079722,1.4884081,1,1
4,1,18,466.807611,410,-56.80761099,3,1,1.93231899,1.279927621,1,1
4,1,19,284.1437632,314,29.85623679,2,2,3.024007894,1.484865093,1,1
4,1,20,466.807611,474,7.192389006,1,2,3.956068121,3.077742146,1,1
4,1,21,466.807611,378,-88.80761099,3,2,1.933272426,2.849166948,1,1
4,1,22,466.807611,490,23.19238901,1,2,0.740871879,1.800951546,1,1
4,1,23,284.1437632,298,13.85623679,2,2,2.347829649,1.063112583,1,1
4,1,24,182.6638478,218,35.33615222,2,2,1.237920158,1.148668815,1,1
4,1,25,284.1437632,346,61.85623679,1,2,1.721804526,0.590130538,1,1
4,1,26,182.6638478,234,51.33615222,2,1,0.593149555,1.728211705,1,1
4,1,27,466.807611,506,39.19238901,2,2,1.329475908,0.765926141,1,1
4,1,28,466.807611,394,-72.80761099,2,1,1.281148778,1.80382694,1,1
4,1,29,284.1437632,250,-34.14376321,2,2,1.58427721,2.335254362,1,1
4,1,30,466.807611,362,-104.807611,2,1,1.335566787,0.707369086,1,1
4,1,31,284.1437632,330,45.85623679,2,1,1.055482345,1.167584957,1,1
4,1,32,182.6638478,234,51.33615222,3,2,2.291135146,2.198463307,1,1
4,1,33,284.1437632,362,77.85623679,1,2,2.893128322,0.508891871,1,1
4,1,34,466.807611,442,-24.80761099,2,2,2.599930268,1.824256893,1,1
4,1,35,182.6638478,234,51.33615222,2,2,2.353381079,1.872158134,1,1
4,1,36,466.807611,490,23.19238901,3,2,1.978989654,1.158024947,1,1
4,1,37,284.1437632,298,13.85623679,2,1,2.878841612,1.5894202,1,1
4,1,38,182.6638478,218,35.33615222,2,1,1.823486337,4.418509841,1,1
4,1,39,466.807611,458,-8.807610994,1,2,1.15385628,1.925341936,1,1
4,1,40,182.6638478,170,-12.66384778,2,2,1.080205101,0.669316802,1,1
4,1,41,182.6638478,202,19.33615222,2,2,2.194492477,1.275068285,1,1
4,1,42,182.6638478,298,115.3361522,3,1,1.734422089,1.110165653,1,0
4,1,43,182.6638478,218,35.33615222,2,1,2.831523188,0.57625453,1,1
4,1,44,284.1437632,362,77.85623679,2,2,1.347408426,1.797904518,1,1
4,1,45,466.807611,442,-24.80761099,2,2,0.505527267,2.001105157,1,1
4,1,46,466.807611,522,55.19238901,3,2,1.148293729,1.819285987,1,1
4,1,47,182.6638478,186,3.33615222,2,1,2.126214308,1.299024548,1,1
4,1,48,466.807611,394,-72.80761099,3,2,2.662000874,0.713311189,1,1
4,1,49,466.807611,458,-8.807610994,1,1,2.302596074,0.692608004,1,1
4,1,50,466.807611,506,39.19238901,2,1,0.607802465,1.493731828,1,1
4,1,51,466.807611,490,23.19238901,2,2,1.60809982,0.677028375,1,1
4,1,52,182.6638478,250,67.33615222,2,2,1.283849248,2.17430699,1,1
4,1,53,182.6638478,250,67.33615222,1,2,2.595371421,0.864030182,1,1
4,1,54,466.807611,426,-40.80761099,2,1,0.941581023,1.013704202,1,1
4,1,55,466.807611,474,7.192389006,3,1,2.823776517,3.782492882,1,1
4,1,56,284.1437632,330,45.85623679,2,2,3.122931678,12.43816351,1,1
4,1,57,182.6638478,202,19.33615222,2,1,1.180682858,1.194782955,1,1
4,1,58,284.1437632,298,13.85623679,1,1,0.953159198,1.38229404,1,1
4,1,59,284.1437632,330,45.85623679,2,2,1.609040028,0.898417835,1,1
4,1,60,284.1437632,346,61.85623679,1,2,1.646462751,0.391553356,1,1
4,1,61,466.807611,378,-88.80761099,1,2,0.519281554,0.322229062,1,1
4,1,62,284.1437632,314,29.85623679,2,1,1.454657701,0.295933324,1,1
4,1,63,182.6638478,202,19.33615222,2,2,6.744527805,0.553006997,1,1
4,1,64,182.6638478,202,19.33615222,3,2,0.962600764,0.458466747,1,1
4,1,65,284.1437632,282,-2.143763214,2,2,0.984848882,2.27313049,1,1
4,1,66,466.807611,410,-56.80761099,2,1,0.929422656,0.306713081,1,1
4,1,67,466.807611,442,-24.80761099,3,2,1.38199405,1.074059737,1,1
4,1,68,284.1437632,234,-50.14376321,2,2,1.411107548,0.620806889,1,1
4,1,69,182.6638478,234,51.33615222,2,1,0.994246544,0.316418436,1,1
4,1,70,182.6638478,234,51.33615222,2,2,0.997621951,0.444394806,1,1
4,1,71,284.1437632,330,45.85623679,2,2,0.401947078,0.383598457,1,1
4,1,72,182.6638478,202,19.33615222,3,1,1.253086366,1.085505173,1,1
4,1,73,284.1437632,298,13.85623679,2,2,1.215333281,0.842865579,1,1
4,1,74,466.807611,458,-8.807610994,1,2,2.6712918,1.155004071,1,1
4,1,75,466.807611,442,-24.80761099,2,2,1.363094106,2.99202294,1,1
4,1,76,466.807611,442,-24.80761099,1,2,0.966646681,0.281573235,1,1
4,1,77,182.6638478,202,19.33615222,1,1,1.87823714,0.570773229,1,1
4,1,78,466.807611,394,-72.80761099,1,1,1.49566501,0.25919741,1,1
4,1,79,182.6638478,234,51.33615222,2,2,0.848784014,1.102549291,1,1
4,1,80,466.807611,538,71.19238901,2,2,1.142415419,0.454860587,1,1
4,1,81,284.1437632,346,61.85623679,2,1,0.882103136,0.377181282,1,1
4,1,82,284.1437632,282,-2.143763214,2,1,1.140468629,0.380200164,1,1
4,1,83,182.6638478,186,3.33615222,2,1,0.789967919,0.249089637,1,1
4,1,84,182.6638478,202,19.33615222,2,2,1.276286223,0.334020964,1,1
4,1,85,182.6638478,202,19.33615222,3,1,1.161496279,0.433961913,1,1
4,1,86,182.6638478,218,35.33615222,2,2,0.617926378,0.252904463,1,1
4,1,87,182.6638478,218,35.33615222,2,2,1.137882642,0.399836615,1,1
4,1,88,182.6638478,234,51.33615222,3,2,0.297321022,1.146045168,1,1
4,1,89,466.807611,426,-40.80761099,2,2,1.101267461,1.386513727,1,1
4,1,90,182.6638478,106,-76.66384778,2,1,4.05054676,0.614523007,1,0
4,1,91,182.6638478,202,19.33615222,1,1,1.367493297,0.455577443,1,1
4,1,92,466.807611,234,-232.807611,1,1,1.147512573,0.366033854,1,0
4,1,93,466.807611,426,-40.80761099,2,2,0.723844049,1.413924635,1,1
4,1,94,284.1437632,314,29.85623679,3,2,0.369478376,0.931481554,1,1
4,1,95,284.1437632,250,-34.14376321,2,2,0.683256541,1.424871022,1,1
4,1,96,182.6638478,202,19.33615222,1,1,0.790014107,0.336818284,1,1
4,1,97,466.807611,570,103.192389,1,2,1.284503495,0.730329942,1,1
4,1,98,182.6638478,266,83.33615222,2,2,0.999113871,1.297774663,1,1
4,1,99,284.1437632,314,29.85623679,2,2,0.917806832,0.617191157,1,1
4,1,100,182.6638478,218,35.33615222,1,1,0.785029739,0.363904397,1,1
4,1,101,466.807611,474,7.192389006,2,1,0.561846148,0.247962231,1,1
4,1,102,466.807611,426,-40.80761099,1,1,0.465654343,0.345269917,1,1
4,1,103,182.6638478,186,3.33615222,2,2,0.833009372,0.485399546,1,1
4,1,104,182.6638478,218,35.33615222,2,2,0.95179067,0.884514859,1,1
4,1,105,284.1437632,314,29.85623679,3,2,2.405748709,0.656204145,1,1
4,1,106,466.807611,490,23.19238901,2,2,0.560510331,1.192623834,1,1
4,1,107,182.6638478,186,3.33615222,2,2,0.689239874,0.762446812,1,1
4,1,108,284.1437632,314,29.85623679,2,2,0.622898928,1.305016135,1,1
4,1,109,182.6638478,202,19.33615222,3,2,0.763230515,0.414719705,1,1
4,1,110,466.807611,378,-88.80761099,2,2,2.977913175,0.984466421,1,1
4,1,111,182.6638478,218,35.33615222,2,1,2.01806167,0.623505049,1,1
4,1,112,466.807611,522,55.19238901,2,1,1.990414716,0.536031778,1,1
4,1,113,284.1437632,250,-34.14376321,2,1,0.369129143,0.355365725,1,1
4,1,114,182.6638478,218,35.33615222,3,2,1.704977982,0.868556599,1,1
4,1,115,466.807611,410,-56.80761099,2,1,1.056375177,0.545151906,1,1
4,1,116,466.807611,442,-24.80761099,1,2,0.452874528,1.66293331,1,1
4,1,117,284.1437632,298,13.85623679,2,2,2.061948879,0.797111686,1,1
4,1,118,284.1437632,282,-2.143763214,3,2,0.877476343,0.602847405,1,1
4,1,119,182.6638478,170,-12.66384778,2,2,0.624728357,1.698023801,1,1
4,1,120,466.807611,570,103.192389,2,2,1.233115254,2.093966932,1,1
4,2,121,182.6638478,186,3.33615222,2,1,0.376680406,0.664330021,1,1
4,2,122,284.1437632,362,77.85623679,3,2,0.670856259,1.214885293,1,1
4,2,123,182.6638478,250,67.33615222,1,1,0.749610532,1.013915403,1,1
4,2,124,284.1437632,298,13.85623679,2,2,0.580601332,0.441008566,1,1
4,2,125,466.807611,266,-200.807611,2,1,0.429007634,0.529560184,1,0
4,2,126,284.1437632,394,109.8562368,2,2,2.083479886,1.318701931,1,1
4,2,127,182.6638478,234,51.33615222,2,2,1.093464055,0.906732984,1,1
4,2,128,284.1437632,282,-2.143763214,1,2,0.400064054,0.837233109,1,1
4,2,129,284.1437632,314,29.85623679,1,2,0.328900418,0.854319614,1,1
4,2,130,466.807611,362,-104.807611,2,1,0.606893822,0.590193271,1,1
4,2,131,182.6638478,234,51.33615222,2,2,1.096862903,0.912744244,1,1
4,2,132,284.1437632,282,-2.143763214,2,2,3.856945554,0.426856555,1,1
4,2,133,466.807611,362,-104.807611,2,2,2.433526507,1.183301206,1,1
4,2,134,182.6638478,234,51.33615222,1,1,1.059889778,1.099058708,1,1
4,2,135,466.807611,330,-136.807611,2,1,1.818468235,0.716770136,1,1
4,2,136,466.807611,426,-40.80761099,2,2,0.685255615,0.626168277,1,1
4,2,137,182.6638478,186,3.33615222,2,2,0.383205612,0.269786501,1,1
4,2,138,182.6638478,202,19.33615222,3,2,0.44446631,2.001759871,1,1
4,2,139,466.807611,442,-24.80761099,2,1,1.075278761,0.973103977,1,1
4,2,140,466.807611,442,-24.80761099,1,1,2.077000278,0.250106426,1,1
4,2,141,182.6638478,170,-12.66384778,2,1,0.234155105,1.011698236,1,1
4,2,142,466.807611,250,-216.807611,1,1,1.083306241,0.231199601,1,0
4,2,143,284.1437632,298,13.85623679,2,1,0.914197523,0.799690275,1,1
4,2,144,182.6638478,234,51.33615222,1,1,0.756848056,0.271956528,1,1
4,2,145,284.1437632,330,45.85623679,2,2,0.970830557,0.643017451,1,1
4,2,146,284.1437632,314,29.85623679,1,1,1.057512828,0.274443216,1,1
4,2,147,284.1437632,330,45.85623679,1,2,1.84333727,1.434582963,1,1
4,2,148,182.6638478,186,3.33615222,2,2,1.444361127,1.076285952,1,1
4,2,149,284.1437632,282,-2.143763214,2,2,0.772160208,1.230840345,1,1
4,2,150,182.6638478,202,19.33615222,1,1,1.217164171,0.334707478,1,1
4,2,151,284.1437632,314,29.85623679,2,2,1.194622895,0.371456046,1,1
4,2,152,284.1437632,218,-66.14376321,2,1,0.661412109,2.636396569,1,1
4,2,153,284.1437632,298,13.85623679,2,2,1.279554973,0.462983383,1,1
4,2,154,284.1437632,282,-2.143763214,2,2,0.729192387,0.479691472,1,1
4,2,155,284.1437632,282,-2.143763214,1,1,1.092500657,0.259424472,1,1
4,2,156,466.807611,458,-8.807610994,2,2,4.169795434,0.548705252,1,1
4,2,157,182.6638478,218,35.33615222,2,2,4.837033187,0.575231478,1,1
4,2,158,182.6638478,218,35.33615222,2,2,1.76528344,0.576130998,1,1
4,2,159,284.1437632,234,-50.14376321,3,2,0.74545926,2.735692329,1,1
4,2,160,284.1437632,282,-2.143763214,2,2,0.830374109,1.587128803,1,1
4,2,161,466.807611,522,55.19238901,2,2,1.119904713,1.239588489,1,1
4,2,162,182.6638478,202,19.33615222,2,2,0.753562179,1.086405247,1,1
4,2,163,284.1437632,330,45.85623679,3,2,0.964935416,1.503546295,1,1
4,2,164,182.6638478,218,35.33615222,2,1,1.152791818,1.084940689,1,1
4,2,165,182.6638478,250,67.33615222,1,2,1.253532653,1.130157371,1,1
4,2,166,284.1437632,282,-2.143763214,1,2,1.541233945,0.607916578,1,1
4,2,167,466.807611,426,-40.80761099,2,2,1.31631276,0.230460599,1,1
4,2,168,284.1437632,298,13.85623679,3,2,0.94413059,0.471760095,1,1
4,2,169,284.1437632,282,-2.143763214,2,2,1.393867725,1.952395961,1,1
4,2,170,466.807611,442,-24.80761099,1,2,2.216206654,0.973081817,1,1
4,2,171,466.807611,474,7.192389006,2,2,2.273847509,43.92127084,1,1
4,2,172,466.807611,426,-40.80761099,2,2,1.380833538,0.422466665,1,1
4,2,173,284.1437632,282,-2.143763214,2,2,0.953677009,2.689605704,1,1
4,2,174,182.6638478,186,3.33615222,1,1,0.22882829,0.349911258,1,1
4,2,175,466.807611,426,-40.80761099,2,2,1.464195063,7.254086262,1,1
4,2,176,182.6638478,202,19.33615222,3,2,1.655397714,0.218041049,1,1
4,2,177,284.1437632,282,-2.143763214,1,2,3.229918735,0.511860237,1,1
4,2,178,182.6638478,202,19.33615222,2,2,2.046521218,0.606748338,1,1
4,2,179,466.807611,410,-56.80761099,1,2,1.185202891,0.767990191,1,1
4,2,180,466.807611,474,7.192389006,1,2,6.069366628,3.785707885,1,1
4,2,181,284.1437632,394,109.8562368,2,2,2.294668397,1.933519941,1,1
4,2,182,284.1437632,10,-274.1437632,1,1,2.497439628,0.884117461,0,1
4,2,183,466.807611,442,-24.80761099,2,2,3.235451411,0.797981279,1,1
4,2,184,466.807611,506,39.19238901,2,1,1.972687147,1.464973996,1,1
4,2,185,284.1437632,1930,1645.856237,1,2,2.061037238,0.512073168,1,0
4,2,186,182.6638478,170,-12.66384778,2,2,0.737783736,1.280279019,1,1
4,2,187,466.807611,266,-200.807611,2,2,0.818255079,0.891794952,1,0
4,2,188,284.1437632,250,-34.14376321,2,2,0.440974377,1.847661631,1,1
4,2,189,182.6638478,250,67.33615222,2,1,0.370938905,0.506291012,1,1
4,2,190,284.1437632,314,29.85623679,2,2,0.629726639,0.676284847,1,1
4,2,191,284.1437632,362,77.85623679,3,1,0.726481443,1.262981714,1,1
4,2,192,284.1437632,314,29.85623679,1,2,2.402512477,0.963607943,1,1
4,2,193,466.807611,506,39.19238901,2,1,0.314269239,1.128151373,1,1
4,2,194,284.1437632,266,-18.14376321,2,2,0.418382984,0.511309647,1,1
4,2,195,466.807611,426,-40.80761099,2,2,2.508002684,0.693782099,1,1
4,2,196,466.807611,410,-56.80761099,2,2,3.158848951,1.519759286,1,1
4,2,197,466.807611,330,-136.807611,1,1,0.748219665,0.399118359,1,1
4,2,198,284.1437632,266,-18.14376321,2,1,0.328579877,0.473138542,1,1
4,2,199,182.6638478,218,35.33615222,3,1,0.350077711,2.093382544,1,1
4,2,200,466.807611,442,-24.80761099,2,2,0.574144837,0.590458221,1,1
4,2,201,284.1437632,266,-18.14376321,2,2,0.29357714,0.743955121,1,1
4,2,202,182.6638478,234,51.33615222,2,2,0.863523228,0.309338828,1,1
4,2,203,466.807611,426,-40.80761099,2,2,0.777232548,1.270818932,1,1
4,2,204,284.1437632,298,13.85623679,2,2,0.896042987,0.546280749,1,1
4,2,205,182.6638478,202,19.33615222,3,2,1.441430085,2.584493337,1,1
4,2,206,284.1437632,330,45.85623679,2,2,0.852248903,0.383600481,1,1
4,2,207,182.6638478,186,3.33615222,2,2,0.971470245,0.353783842,1,1
4,2,208,182.6638478,202,19.33615222,2,1,0.629835205,0.465441862,1,1
4,2,209,182.6638478,234,51.33615222,1,2,1.025512476,0.869333309,1,1
4,2,210,466.807611,346,-120.807611,2,2,0.436186698,0.327121129,1,1
4,2,211,182.6638478,202,19.33615222,2,2,0.278772303,0.465296973,1,1
4,2,212,284.1437632,282,-2.143763214,3,2,2.47610205,0.495783633,1,1
4,2,213,466.807611,426,-40.80761099,2,2,0.454131896,1.229294022,1,1
4,2,214,284.1437632,266,-18.14376321,2,1,0.738349332,0.703293793,1,1
4,2,215,182.6638478,154,-28.66384778,2,1,3.471246246,1.280601212,1,1
4,2,216,182.6638478,186,3.33615222,2,1,2.277175955,4.266450157,1,1
4,2,217,466.807611,394,-72.80761099,3,2,1.42573283,0.517474687,1,1
4,2,218,182.6638478,250,67.33615222,1,1,1.973094482,0.531334319,1,1
4,2,219,182.6638478,218,35.33615222,2,1,1.755760001,0.487022742,1,1
4,2,220,284.1437632,330,45.85623679,3,2,1.114102579,0.504289672,1,1
4,2,221,466.807611,426,-40.80761099,1,2,1.367199006,0.569051944,1,1
4,2,222,466.807611,394,-72.80761099,2,2,0.949277926,0.548323171,1,1
4,2,223,466.807611,474,7.192389006,2,1,1.164283512,1.005365784,1,1
4,2,224,284.1437632,266,-18.14376321,2,2,1.119897406,0.518325242,1,1
4,2,225,466.807611,362,-104.807611,2,1,0.576927558,0.449225982,1,1
4,2,226,284.1437632,282,-2.143763214,1,2,1.94368476,0.49732783,1,1
4,2,227,466.807611,10,-456.807611,1,1,0.888630299,0.301449155,0,1
4,2,228,284.1437632,10,-274.1437632,1,1,0.490145917,0.210664644,0,1
4,2,229,284.1437632,298,13.85623679,2,2,0.887102384,0.939266613,1,1
4,2,230,182.6638478,202,19.33615222,2,2,0.493261445,1.237068972,1,1
4,2,231,182.6638478,170,-12.66384778,1,2,1.747070005,2.194073253,1,1
4,2,232,466.807611,394,-72.80761099,2,1,1.053311409,0.831122457,1,1
4,2,233,182.6638478,186,3.33615222,3,2,0.373062587,0.198840397,1,1
4,2,234,284.1437632,314,29.85623679,3,2,0.697544825,0.301817501,1,1
4,2,235,284.1437632,266,-18.14376321,2,1,0.660843103,0.170285044,1,1
4,2,236,466.807611,490,23.19238901,2,2,1.273870363,0.342183742,1,1
4,2,237,182.6638478,170,-12.66384778,3,1,1.028813753,1.064362721,1,1
4,2,238,466.807611,410,-56.80761099,1,2,2.13247216,0.257433201,1,1
4,2,239,466.807611,554,87.19238901,2,1,0.495737233,1.41141794,1,1
4,2,240,466.807611,346,-120.807611,2,2,0.442480219,0.212154412,1,1
5,1,1,466.807611,314,-152.807611,2,1,3.186161462,8.180369398,1,1
5,1,2,182.6638478,170,-12.66384778,3,2,3.394140811,6.506624507,1,1
5,1,3,182.6638478,186,3.33615222,3,1,2.017664077,2.754162495,1,1
5,1,4,182.6638478,170,-12.66384778,2,2,1.928032622,4.992517694,1,1
5,1,5,284.1437632,298,13.85623679,2,1,1.978609282,3.243595665,1,1
5,1,6,182.6638478,186,3.33615222,2,2,1.987869928,2.923303173,1,1
5,1,7,284.1437632,298,13.85623679,2,1,2.173386263,11.47396334,1,1
5,1,8,466.807611,362,-104.807611,1,1,3.867265254,4.395731388,1,1
5,1,9,182.6638478,186,3.33615222,1,1,2.927600901,2.899981832,1,1
5,1,10,284.1437632,282,-2.143763214,3,2,3.475883725,1.50251197,1,1
5,1,11,182.6638478,202,19.33615222,2,1,3.359865899,1.033156811,1,1
5,1,12,284.1437632,234,-50.14376321,2,1,2.339472343,3.432320091,1,1
5,1,13,182.6638478,202,19.33615222,1,1,1.830176127,2.369239428,1,1
5,1,14,284.1437632,266,-18.14376321,2,2,2.707518986,1.451648048,1,1
5,1,15,182.6638478,202,19.33615222,2,1,1.568712117,0.737097873,1,1
5,1,16,284.1437632,250,-34.14376321,2,1,1.593634441,0.583880609,1,1
5,1,17,466.807611,410,-56.80761099,2,2,2.151770563,1.120930704,1,1
5,1,18,284.1437632,298,13.85623679,2,2,3.771869107,2.144875119,1,1
5,1,19,182.6638478,202,19.33615222,1,2,1.597563172,2.184269261,1,1
5,1,20,284.1437632,282,-2.143763214,1,1,1.978201336,0.861952761,1,1
5,1,21,182.6638478,218,35.33615222,1,1,1.237114742,0.97604507,1,1
5,1,22,466.807611,458,-8.807610994,1,1,1.615570702,11.6031056,1,1
5,1,23,466.807611,426,-40.80761099,1,2,1.535906604,2.989084979,1,1
5,1,24,182.6638478,186,3.33615222,1,2,2.510634515,3.246694293,1,1
5,1,25,284.1437632,266,-18.14376321,1,1,24.45698295,3.708773756,1,1
5,1,26,182.6638478,202,19.33615222,2,1,1.842629223,2.169506919,1,1
5,1,27,182.6638478,170,-12.66384778,1,2,1.484254631,3.151123885,1,1
5,1,28,182.6638478,186,3.33615222,2,1,1.665705732,2.006830044,1,1
5,1,29,182.6638478,186,3.33615222,1,1,1.84323535,2.673077888,1,1
5,1,30,182.6638478,202,19.33615222,1,1,2.280807472,1.305960073,1,1
5,1,31,284.1437632,298,13.85623679,1,1,1.506895239,4.42353062,1,1
5,1,32,182.6638478,186,3.33615222,2,2,2.522043638,9.662856289,1,1
5,1,33,284.1437632,266,-18.14376321,1,2,1.49361097,1.948793817,1,1
5,1,34,284.1437632,314,29.85623679,1,1,1.468269863,0.657803771,1,1
5,1,35,466.807611,442,-24.80761099,1,1,1.135827004,1.863132829,1,1
5,1,36,182.6638478,202,19.33615222,1,2,1.210192819,3.600873734,1,1
5,1,37,284.1437632,218,-66.14376321,2,2,1.407664636,2.634637008,1,1
5,1,38,466.807611,410,-56.80761099,1,2,1.3342356,0.989328001,1,1
5,1,39,284.1437632,282,-2.143763214,2,1,1.132347836,1.571290607,1,1
5,1,40,182.6638478,234,51.33615222,2,2,1.316766405,1.429549367,1,1
5,1,41,466.807611,394,-72.80761099,1,2,1.419082995,1.323557988,1,1
5,1,42,284.1437632,266,-18.14376321,1,2,1.163730077,4.927836682,1,1
5,1,43,182.6638478,170,-12.66384778,3,1,1.424745991,1.571561394,1,1
5,1,44,182.6638478,186,3.33615222,2,2,2.299243587,1.879673649,1,1
5,1,45,182.6638478,186,3.33615222,2,2,1.658311961,5.187800054,1,1
5,1,46,466.807611,474,7.192389006,1,2,1.545632953,4.637558399,1,1
5,1,47,284.1437632,234,-50.14376321,1,1,1.476677209,7.257671705,1,1
5,1,48,466.807611,490,23.19238901,1,2,1.83739108,2.185861764,1,1
5,1,49,466.807611,458,-8.807610994,2,1,2.277235798,2.322440687,1,1
5,1,50,466.807611,394,-72.80761099,2,2,1.580600085,2.836337908,1,1
5,1,51,182.6638478,170,-12.66384778,2,1,0.907374564,6.65367855,1,1
5,1,52,466.807611,410,-56.80761099,1,2,3.082473137,2.115831163,1,1
5,1,53,182.6638478,186,3.33615222,2,2,1.103101939,1.0494139,1,1
5,1,54,466.807611,394,-72.80761099,3,2,1.150060077,2.862225855,1,1
5,1,55,182.6638478,170,-12.66384778,2,2,1.317122484,2.003870343,1,1
5,1,56,466.807611,362,-104.807611,1,2,3.334919243,12.22006446,1,1
5,1,57,284.1437632,282,-2.143763214,2,1,1.551149462,0.904251758,1,1
5,1,58,182.6638478,202,19.33615222,1,1,1.471651621,2.294408707,1,1
5,1,59,466.807611,362,-104.807611,1,1,1.44117506,2.098003769,1,1
5,1,60,466.807611,394,-72.80761099,1,1,1.377178955,6.816760759,1,1
5,1,61,466.807611,330,-136.807611,1,1,1.704241743,2.108377175,1,1
5,1,62,182.6638478,154,-28.66384778,2,2,1.26481568,1.383015462,1,1
5,1,63,284.1437632,250,-34.14376321,1,1,3.424075466,5.747555832,1,1
5,1,64,284.1437632,250,-34.14376321,1,1,1.878661573,2.738087066,1,1
5,1,65,466.807611,362,-104.807611,1,1,1.864213233,11.75950111,1,1
5,1,66,182.6638478,186,3.33615222,2,2,1.390751579,1.26774062,1,1
5,1,67,466.807611,362,-104.807611,2,2,1.51628526,0.75691499,1,1
5,1,68,284.1437632,266,-18.14376321,2,2,1.377427168,6.791025458,1,1
5,1,69,284.1437632,266,-18.14376321,1,2,1.198241269,2.388427576,1,1
5,1,70,284.1437632,234,-50.14376321,1,2,1.756255125,14.21633424,1,1
5,1,71,284.1437632,186,-98.14376321,1,1,1.522907964,0.546971422,1,0
5,1,72,182.6638478,186,3.33615222,2,2,1.662219132,1.298474158,1,1
5,1,73,466.807611,362,-104.807611,1,2,1.111587549,0.753020324,1,1
5,1,74,182.6638478,186,3.33615222,2,2,1.264258912,0.428887886,1,1
5,1,75,182.6638478,154,-28.66384778,2,1,1.338532439,1.004789027,1,1
5,1,76,466.807611,410,-56.80761099,2,2,1.077630101,1.468056185,1,1
5,1,77,182.6638478,170,-12.66384778,2,2,4.729340763,1.941343871,1,1
5,1,78,182.6638478,170,-12.66384778,2,2,2.061478036,1.701525198,1,1
5,1,79,284.1437632,250,-34.14376321,1,1,1.402088429,0.924460493,1,1
5,1,80,284.1437632,266,-18.14376321,1,1,1.484659028,0.729054641,1,1
5,1,81,284.1437632,250,-34.14376321,1,2,3.83409769,1.744842413,1,1
5,1,82,466.807611,346,-120.807611,1,1,2.677540262,2.082223008,1,1
5,1,83,284.1437632,250,-34.14376321,2,2,1.885394242,0.472137677,1,1
5,1,84,284.1437632,266,-18.14376321,1,2,1.189561649,1.80052631,1,1
5,1,85,466.807611,282,-184.807611,2,2,1.367619336,1.132428759,1,0
5,1,86,466.807611,378,-88.80761099,1,2,1.27995336,1.347270921,1,1
5,1,87,182.6638478,170,-12.66384778,2,2,1.553248785,1.321076433,1,1
5,1,88,182.6638478,154,-28.66384778,2,2,1.163242049,0.973142738,1,1
5,1,89,284.1437632,266,-18.14376321,2,2,1.56354507,0.971989483,1,1
5,1,90,284.1437632,250,-34.14376321,2,2,1.274515664,1.049709491,1,1
5,1,91,182.6638478,202,19.33615222,2,1,1.287136243,1.964524282,1,1
5,1,92,284.1437632,266,-18.14376321,1,2,2.51008201,1.763844547,1,1
5,1,93,182.6638478,202,19.33615222,1,2,3.370405257,1.715580433,1,1
5,1,94,182.6638478,170,-12.66384778,1,1,1.638181493,2.053120622,1,1
5,1,95,466.807611,362,-104.807611,3,2,1.388995992,1.903852946,1,1
5,1,96,466.807611,378,-88.80761099,2,1,2.248311872,1.837762805,1,1
5,1,97,182.6638478,154,-28.66384778,2,2,6.306120143,3.718881325,1,1
5,1,98,284.1437632,282,-2.143763214,1,2,8.274972449,2.989554712,1,1
5,1,99,182.6638478,186,3.33615222,2,2,1.130549335,0.64301643,1,1
5,1,100,182.6638478,186,3.33615222,2,2,2.379785477,1.147080777,1,1
5,1,101,466.807611,298,-168.807611,1,1,1.073495605,1.126003617,1,1
5,1,102,284.1437632,250,-34.14376321,1,1,1.799093964,1.929890683,1,1
5,1,103,182.6638478,202,19.33615222,1,2,1.054420111,20.4712857,1,1
5,1,104,182.6638478,138,-44.66384778,2,1,0.937212749,1.420379883,1,1
5,1,105,284.1437632,266,-18.14376321,1,2,2.311419762,2.176224955,1,1
5,1,106,466.807611,394,-72.80761099,2,2,1.070057104,1.933937703,1,1
5,1,107,182.6638478,186,3.33615222,2,1,1.588979937,1.568888773,1,1
5,1,108,284.1437632,282,-2.143763214,1,2,2.638748276,1.818389685,1,1
5,1,109,182.6638478,154,-28.66384778,1,2,1.343898363,1.654481162,1,1
5,1,110,182.6638478,202,19.33615222,2,2,0.945777598,1.353304358,1,1
5,1,111,466.807611,426,-40.80761099,2,2,0.9650849,0.47688623,1,1
5,1,112,182.6638478,202,19.33615222,2,1,0.916899659,0.281813127,1,1
5,1,113,466.807611,394,-72.80761099,3,2,1.261090495,1.573263111,1,1
5,1,114,284.1437632,314,29.85623679,1,2,6.42951353,1.392661973,1,1
5,1,115,466.807611,378,-88.80761099,2,2,3.278973606,2.76290121,1,1
5,1,116,182.6638478,218,35.33615222,1,2,2.244183258,5.061418579,1,1
5,1,117,466.807611,410,-56.80761099,2,2,8.838858482,1.820753416,1,1
5,1,118,466.807611,442,-24.80761099,2,2,1.407434863,1.954192277,1,1
5,1,119,182.6638478,186,3.33615222,2,1,1.97041948,1.248371103,1,1
5,1,120,182.6638478,202,19.33615222,2,2,3.073437359,1.943394383,1,1
5,2,121,466.807611,394,-72.80761099,1,2,1.153524254,0.944305334,1,1
5,2,122,284.1437632,234,-50.14376321,1,2,2.701898039,2.027384502,1,1
5,2,123,284.1437632,282,-2.143763214,2,1,3.513204111,1.53236271,1,1
5,2,124,466.807611,506,39.19238901,1,2,1.501740114,1.092501692,1,1
5,2,125,466.807611,442,-24.80761099,1,2,1.438262921,3.586816328,1,1
5,2,126,466.807611,490,23.19238901,1,2,4.171572038,1.68824235,1,1
5,2,127,182.6638478,154,-28.66384778,2,2,1.825746924,1.450388847,1,1
5,2,128,466.807611,410,-56.80761099,2,2,3.898453651,7.207701655,1,1
5,2,129,182.6638478,202,19.33615222,2,1,2.176719982,1.855990882,1,1
5,2,130,466.807611,394,-72.80761099,2,2,1.147067996,1.143571083,1,1
5,2,131,182.6638478,170,-12.66384778,2,1,1.725454124,1.455483835,1,1
5,2,132,284.1437632,298,13.85623679,2,2,1.452938516,0.560032877,1,1
5,2,133,182.6638478,154,-28.66384778,2,2,3.078209112,2.732666475,1,1
5,2,134,466.807611,378,-88.80761099,2,1,1.194217487,0.545141299,1,1
5,2,135,284.1437632,330,45.85623679,1,1,1.056477567,0.639315594,1,1
5,2,136,466.807611,490,23.19238901,1,2,17.02705564,2.31850737,1,1
5,2,137,284.1437632,250,-34.14376321,1,1,1.853671285,6.831110942,1,1
5,2,138,466.807611,378,-88.80761099,2,2,2.202657906,5.967266401,1,1
5,2,139,284.1437632,266,-18.14376321,2,2,5.188362936,6.205663848,1,1
5,2,140,284.1437632,250,-34.14376321,2,1,1.658926752,2.242745698,1,1
5,2,141,466.807611,442,-24.80761099,2,2,6.981551251,1.484209046,1,1
5,2,142,466.807611,394,-72.80761099,1,2,1.799010647,1.350214905,1,1
5,2,143,466.807611,394,-72.80761099,2,2,2.008341681,3.141450783,1,1
5,2,144,182.6638478,186,3.33615222,2,1,1.174623935,0.922262026,1,1
5,2,145,284.1437632,250,-34.14376321,2,2,1.73351693,2.701409456,1,1
5,2,146,182.6638478,234,51.33615222,2,2,3.029584661,1.724024426,1,1
5,2,147,466.807611,362,-104.807611,1,2,1.734191953,1.264458388,1,1
5,2,148,182.6638478,186,3.33615222,2,1,1.160046497,1.208933856,1,1
5,2,149,284.1437632,250,-34.14376321,1,1,1.50550099,2.611009949,1,1
5,2,150,182.6638478,170,-12.66384778,2,2,1.486664991,0.801970949,1,1
5,2,151,284.1437632,282,-2.143763214,2,1,3.369523388,2.02787044,1,1
5,2,152,284.1437632,266,-18.14376321,1,1,5.320115465,2.954985693,1,1
5,2,153,466.807611,506,39.19238901,2,1,1.706489822,0.640802126,1,1
5,2,154,466.807611,490,23.19238901,3,2,1.851354311,0.806995957,1,1
5,2,155,466.807611,378,-88.80761099,2,2,1.282518013,2.622358931,1,1
5,2,156,466.807611,346,-120.807611,2,2,2.320184208,1.565282927,1,1
5,2,157,284.1437632,250,-34.14376321,1,2,1.67431584,3.061169119,1,1
5,2,158,284.1437632,282,-2.143763214,1,2,0.868120898,0.685809108,1,1
5,2,159,466.807611,442,-24.80761099,2,2,1.38383676,5.087931621,1,1
5,2,160,466.807611,426,-40.80761099,1,2,1.696824836,2.481099089,1,1
5,2,161,466.807611,458,-8.807610994,2,1,1.342959231,0.473508206,1,1
5,2,162,466.807611,394,-72.80761099,2,2,0.790677059,1.095311014,1,1
5,2,163,284.1437632,298,13.85623679,1,2,1.200844899,1.76659365,1,1
5,2,164,182.6638478,202,19.33615222,2,2,1.464386895,1.251301359,1,1
5,2,165,284.1437632,250,-34.14376321,2,1,1.814090902,1.042286587,1,1
5,2,166,466.807611,394,-72.80761099,2,2,3.4046921,1.830547492,1,1
5,2,167,466.807611,394,-72.80761099,2,2,1.059239531,1.118505166,1,1
5,2,168,284.1437632,250,-34.14376321,2,2,1.135936311,0.654393037,1,1
5,2,169,466.807611,394,-72.80761099,2,2,1.003642002,0.58460588,1,1
5,2,170,284.1437632,266,-18.14376321,1,2,5.750971017,9.241407576,1,1
5,2,171,466.807611,426,-40.80761099,2,2,3.704406463,1.313945018,1,1
5,2,172,284.1437632,330,45.85623679,2,2,3.786144742,2.230500898,1,1
5,2,173,466.807611,554,87.19238901,3,1,0.913749691,0.775362752,1,0
5,2,174,284.1437632,298,13.85623679,1,2,1.175510897,1.772464773,1,1
5,2,175,284.1437632,298,13.85623679,2,2,1.795150706,0.90070397,1,1
5,2,176,182.6638478,234,51.33615222,1,2,1.469293147,9.236115009,1,1
5,2,177,284.1437632,250,-34.14376321,2,1,2.837332885,1.515367656,1,1
5,2,178,284.1437632,266,-18.14376321,2,2,1.452992981,3.333041579,1,1
5,2,179,466.807611,426,-40.80761099,2,2,1.21140987,1.038492061,1,1
5,2,180,466.807611,426,-40.80761099,2,2,0.9475762,0.55226352,1,1
5,2,181,284.1437632,314,29.85623679,1,2,0.86110606,1.069116514,1,1
5,2,182,182.6638478,202,19.33615222,2,2,1.553107298,0.785915611,1,1
5,2,183,466.807611,426,-40.80761099,2,1,0.993927585,1.260728919,1,1
5,2,184,182.6638478,202,19.33615222,2,2,1.332703787,0.399979757,1,1
5,2,185,284.1437632,330,45.85623679,2,2,0.765355166,1.202423504,1,1
5,2,186,182.6638478,202,19.33615222,1,1,0.630742381,1.371207824,1,1
5,2,187,182.6638478,202,19.33615222,1,2,0.750744627,0.714821731,1,1
5,2,188,182.6638478,218,35.33615222,3,2,0.994502889,1.813471405,1,1
5,2,189,284.1437632,314,29.85623679,2,2,0.980137143,1.19331754,1,1
5,2,190,466.807611,442,-24.80761099,1,1,1.119430992,4.096833329,1,1
5,2,191,284.1437632,282,-2.143763214,1,1,1.224051188,9.907525356,1,1
5,2,192,466.807611,394,-72.80761099,1,2,0.710066555,0.625678348,1,1
5,2,193,284.1437632,314,29.85623679,1,2,3.280480971,2.314877731,1,1
5,2,194,182.6638478,218,35.33615222,2,1,0.866298445,1.141726002,1,1
5,2,195,182.6638478,186,3.33615222,3,2,0.981967207,0.641670092,1,1
5,2,196,284.1437632,250,-34.14376321,2,2,0.716140469,0.785730902,1,1
5,2,197,466.807611,426,-40.80761099,2,2,1.100744801,0.558797489,1,1
5,2,198,182.6638478,154,-28.66384778,2,2,0.926539935,0.619293471,1,1
5,2,199,182.6638478,170,-12.66384778,2,2,0.850357756,0.523164872,1,1
5,2,200,466.807611,346,-120.807611,2,1,2.508660328,0.573195394,1,1
5,2,201,466.807611,378,-88.80761099,2,2,1.479827429,0.75806702,1,1
5,2,202,284.1437632,394,109.8562368,3,2,0.70167747,1.153963786,1,0
5,2,203,284.1437632,346,61.85623679,3,1,0.864270775,1.175709299,1,1
5,2,204,182.6638478,266,83.33615222,2,2,0.967160698,0.493709098,1,0
5,2,205,284.1437632,266,-18.14376321,2,1,0.822456839,0.626460413,1,1
5,2,206,284.1437632,298,13.85623679,3,2,1.611324765,2.222454352,1,1
5,2,207,284.1437632,266,-18.14376321,3,2,1.317260031,0.521686444,1,1
5,2,208,182.6638478,202,19.33615222,2,1,0.936382049,0.605046477,1,1
5,2,209,466.807611,378,-88.80761099,3,1,2.009401423,1.26230704,1,1
5,2,210,182.6638478,202,19.33615222,1,2,1.200315529,1.677366885,1,1
5,2,211,284.1437632,298,13.85623679,1,1,0.855238313,2.446766214,1,1
5,2,212,284.1437632,234,-50.14376321,1,2,1.328170362,0.722545052,1,1
5,2,213,466.807611,346,-120.807611,1,2,3.043250921,2.082526055,1,1
5,2,214,466.807611,394,-72.80761099,2,2,2.223642451,0.892999448,1,1
5,2,215,284.1437632,282,-2.143763214,2,2,1.772105069,0.925013176,1,1
5,2,216,284.1437632,250,-34.14376321,1,1,1.03633896,0.6460866,1,1
5,2,217,466.807611,410,-56.80761099,3,2,0.993337882,0.497700984,1,1
5,2,218,466.807611,378,-88.80761099,3,2,1.052934122,1.303891407,1,1
5,2,219,466.807611,442,-24.80761099,2,1,1.490427857,0.694457863,1,1
5,2,220,284.1437632,282,-2.143763214,2,1,1.838688241,2.419761952,1,1
5,2,221,182.6638478,154,-28.66384778,2,1,2.288143459,1.140573736,1,1
5,2,222,182.6638478,154,-28.66384778,1,2,1.550606672,0.955072249,1,1
5,2,223,284.1437632,282,-2.143763214,2,2,0.987958856,1.255055236,1,1
5,2,224,182.6638478,218,35.33615222,1,2,0.84868416,1.086792356,1,1
5,2,225,182.6638478,218,35.33615222,1,2,0.946665879,1.148116893,1,1
5,2,226,284.1437632,298,13.85623679,2,2,0.961491728,0.646363839,1,1
5,2,227,466.807611,394,-72.80761099,2,1,0.833474152,1.191195809,1,1
5,2,228,182.6638478,266,83.33615222,2,1,0.798435399,1.035226949,1,0
5,2,229,466.807611,394,-72.80761099,2,2,1.252837016,0.789072984,1,1
5,2,230,466.807611,378,-88.80761099,1,2,0.99446195,1.976330572,1,1
5,2,231,182.6638478,202,19.33615222,1,1,1.038471002,0.688101779,1,1
5,2,232,284.1437632,298,13.85623679,1,1,1.472331894,2.972487321,1,1
5,2,233,182.6638478,202,19.33615222,1,2,1.552764691,0.496962277,1,1
5,2,234,466.807611,394,-72.80761099,2,1,0.991722515,1.358504813,1,1
5,2,235,182.6638478,202,19.33615222,1,2,0.879849306,0.472199166,1,1
5,2,236,284.1437632,250,-34.14376321,1,2,0.763876583,1.69442423,1,1
5,2,237,284.1437632,298,13.85623679,1,2,1.877150789,0.589602886,1,1
5,2,238,466.807611,362,-104.807611,2,2,0.801984706,0.510774542,1,1
5,2,239,284.1437632,250,-34.14376321,1,2,1.815392712,2.774153167,1,1
5,2,240,466.807611,394,-72.80761099,2,2,0.713753791,0.474888345,1,1
6,1,1,466.807611,90,-376.807611,1,1,12.26236166,4.517940956,1,0
6,1,2,466.807611,378,-88.80761099,3,1,2.179561857,4.916016563,1,1
6,1,3,466.807611,394,-72.80761099,2,1,2.034208865,6.269053771,1,1
6,1,4,284.1437632,234,-50.14376321,2,2,4.038984859,2.646131678,1,1
6,1,5,182.6638478,138,-44.66384778,3,2,1.844225449,6.165577575,1,1
6,1,6,182.6638478,170,-12.66384778,3,2,3.895292483,2.8287584,1,1
6,1,7,182.6638478,186,3.33615222,2,2,2.454748167,2.072029416,1,1
6,1,8,182.6638478,170,-12.66384778,1,2,2.13441746,1.301171541,1,1
6,1,9,284.1437632,234,-50.14376321,1,2,0.613191907,2.756468819,1,1
6,1,10,284.1437632,234,-50.14376321,2,2,2.122044074,1.891900599,1,1
6,1,11,284.1437632,250,-34.14376321,1,2,3.827797537,3.126765637,1,1
6,1,12,182.6638478,154,-28.66384778,3,1,1.885659135,1.378625189,1,1
6,1,13,284.1437632,266,-18.14376321,1,2,0.290262338,1.988934089,1,1
6,1,14,284.1437632,202,-82.14376321,2,2,2.216381125,2.014561031,1,1
6,1,15,182.6638478,138,-44.66384778,3,1,1.075213672,0.627509626,1,1
6,1,16,182.6638478,170,-12.66384778,1,2,2.283284662,5.322721663,1,1
6,1,17,182.6638478,186,3.33615222,2,1,2.15802988,0.956934983,1,1
6,1,18,466.807611,442,-24.80761099,2,1,1.344112758,2.888223742,1,1
6,1,19,284.1437632,234,-50.14376321,1,1,2.192351057,1.483627026,1,1
6,1,20,466.807611,330,-136.807611,1,2,2.904339428,1.432527588,1,1
6,1,21,182.6638478,170,-12.66384778,3,1,1.284330916,0.941521716,1,1
6,1,22,466.807611,442,-24.80761099,3,2,1.491151506,3.238991281,1,1
6,1,23,182.6638478,106,-76.66384778,3,2,1.225868768,1.124765244,1,0
6,1,24,284.1437632,202,-82.14376321,2,2,2.734589286,4.110232994,1,1
6,1,25,182.6638478,170,-12.66384778,1,2,1.756782454,1.087236641,1,1
6,1,26,182.6638478,154,-28.66384778,3,1,2.095484982,1.128772336,1,1
6,1,27,466.807611,362,-104.807611,3,2,1.097672588,1.516560227,1,1
6,1,28,466.807611,362,-104.807611,3,2,1.099418025,1.393079257,1,1
6,1,29,182.6638478,10,-172.6638478,1,2,3.554771364,1.358036355,0,1
6,1,30,182.6638478,170,-12.66384778,2,1,1.126024808,1.379332664,1,1
6,1,31,284.1437632,234,-50.14376321,1,1,1.14772296,1.164761405,1,1
6,1,32,182.6638478,186,3.33615222,2,1,2.667228954,1.47765393,1,1
6,1,33,284.1437632,234,-50.14376321,3,2,1.185610237,1.230050522,1,1
6,1,34,466.807611,394,-72.80761099,2,2,1.207604421,0.995696343,1,1
6,1,35,466.807611,426,-40.80761099,3,2,0.910955925,1.304782168,1,1
6,1,36,182.6638478,170,-12.66384778,1,2,2.383537175,1.270096049,1,1
6,1,37,284.1437632,250,-34.14376321,2,1,8.269114717,6.612278231,1,1
6,1,38,284.1437632,282,-2.143763214,3,1,1.278575747,1.156771879,1,1
6,1,39,466.807611,330,-136.807611,2,2,1.358255762,0.870043426,1,1
6,1,40,466.807611,394,-72.80761099,2,1,1.410761883,1.539093541,1,1
6,1,41,284.1437632,234,-50.14376321,3,1,0.766465884,1.077776431,1,1
6,1,42,284.1437632,202,-82.14376321,2,2,1.099154913,0.886349972,1,1
6,1,43,466.807611,282,-184.807611,2,1,3.221523545,2.681358076,1,1
6,1,44,182.6638478,122,-60.66384778,3,2,0.77898634,1.101298867,1,1
6,1,45,466.807611,330,-136.807611,3,2,0.598261941,0.986211955,1,1
6,1,46,284.1437632,202,-82.14376321,2,2,0.967812812,1.105927451,1,1
6,1,47,284.1437632,202,-82.14376321,2,1,1.536568286,1.317594061,1,1
6,1,48,466.807611,330,-136.807611,1,2,3.00133968,1.266045355,1,1
6,1,49,182.6638478,154,-28.66384778,3,2,0.993097025,0.921051703,1,1
6,1,50,466.807611,346,-120.807611,3,2,1.123551321,1.563429087,1,1
6,1,51,284.1437632,234,-50.14376321,2,2,1.129550396,0.682652836,1,1
6,1,52,182.6638478,154,-28.66384778,1,2,3.069519246,5.271122459,1,1
6,1,53,182.6638478,138,-44.66384778,3,2,0.778721446,0.914884516,1,1
6,1,54,466.807611,330,-136.807611,2,2,2.909954329,1.264446953,1,1
6,1,55,182.6638478,170,-12.66384778,3,2,1.160409311,1.226314355,1,1
6,1,56,466.807611,330,-136.807611,1,1,1.249793756,7.428211987,1,1
6,1,57,284.1437632,234,-50.14376321,2,2,0.784490658,1.057648812,1,1
6,1,58,182.6638478,170,-12.66384778,3,1,0.992808371,1.168978016,1,1
6,1,59,466.807611,346,-120.807611,2,2,1.75570568,0.818725887,1,1
6,1,60,466.807611,362,-104.807611,1,2,0.953730284,5.156982864,1,1
6,1,61,284.1437632,250,-34.14376321,3,2,2.685614655,0.306524808,1,1
6,1,62,284.1437632,234,-50.14376321,3,1,0.673676178,0.551142155,1,1
6,1,63,466.807611,362,-104.807611,2,1,0.752487932,1.334393857,1,1
6,1,64,466.807611,362,-104.807611,2,2,1.663341821,0.25425554,1,1
6,1,65,182.6638478,138,-44.66384778,3,2,2.606312903,1.034486146,1,1
6,1,66,284.1437632,202,-82.14376321,2,1,1.709997432,1.066119087,1,1
6,1,67,182.6638478,170,-12.66384778,3,2,1.076963578,1.041934623,1,1
6,1,68,466.807611,330,-136.807611,1,2,1.325703692,1.047531228,1,1
6,1,69,466.807611,362,-104.807611,3,1,1.390489068,1.121679939,1,1
6,1,70,182.6638478,186,3.33615222,2,1,3.542532148,4.353536494,1,1
6,1,71,466.807611,378,-88.80761099,2,2,3.903411439,1.252819817,1,1
6,1,72,182.6638478,170,-12.66384778,3,2,0.723636714,0.642637636,1,1
6,1,73,466.807611,346,-120.807611,2,1,1.568879809,1.559228764,1,1
6,1,74,466.807611,426,-40.80761099,3,1,1.509496011,1.417021132,1,1
6,1,75,284.1437632,250,-34.14376321,2,2,1.215057569,1.187842584,1,1
6,1,76,284.1437632,218,-66.14376321,3,1,0.986752204,0.492262903,1,1
6,1,77,182.6638478,154,-28.66384778,3,2,0.798026766,1.576722441,1,1
6,1,78,284.1437632,186,-98.14376321,2,2,2.300534718,2.338090725,1,1
6,1,79,182.6638478,170,-12.66384778,3,1,0.846045143,0.782831558,1,1
6,1,80,284.1437632,250,-34.14376321,2,2,0.861699344,0.716462821,1,1
6,1,81,466.807611,314,-152.807611,1,2,2.972285087,0.834332679,1,1
6,1,82,284.1437632,234,-50.14376321,3,1,0.861887498,1.57438923,1,1
6,1,83,182.6638478,154,-28.66384778,3,1,0.660198416,1.12236734,1,1
6,1,84,182.6638478,154,-28.66384778,3,1,1.633931061,1.038451005,1,1
6,1,85,284.1437632,234,-50.14376321,3,2,1.150943039,0.477674176,1,1
6,1,86,284.1437632,234,-50.14376321,1,2,0.521160408,1.423578536,1,1
6,1,87,284.1437632,234,-50.14376321,2,2,2.883495469,0.985083256,1,1
6,1,88,182.6638478,170,-12.66384778,2,2,4.213172655,0.921027843,1,1
6,1,89,284.1437632,234,-50.14376321,3,1,1.091234625,0.687132429,1,1
6,1,90,182.6638478,170,-12.66384778,3,2,0.926149428,0.435811738,1,1
6,1,91,284.1437632,266,-18.14376321,1,2,0.857238747,1.467281559,1,1
6,1,92,466.807611,282,-184.807611,1,2,0.772347025,0.880820618,1,1
6,1,93,182.6638478,170,-12.66384778,2,2,1.262719092,0.711717487,1,1
6,1,94,182.6638478,154,-28.66384778,3,1,1.265063725,0.818186198,1,1
6,1,95,182.6638478,138,-44.66384778,1,1,1.605091038,1.021906175,1,1
6,1,96,284.1437632,218,-66.14376321,2,2,1.437895036,1.282868899,1,1
6,1,97,284.1437632,170,-114.1437632,1,2,1.21080571,0.954064445,1,0
6,1,98,284.1437632,218,-66.14376321,2,2,1.930713615,0.933823189,1,1
6,1,99,466.807611,234,-232.807611,1,2,0.950505171,1.62101002,1,0
6,1,100,284.1437632,250,-34.14376321,2,2,7.935747399,2.478969757,1,1
6,1,101,466.807611,250,-216.807611,2,2,1.194299015,0.790143696,1,1
6,1,102,466.807611,346,-120.807611,3,1,1.775262643,0.568015156,1,1
6,1,103,284.1437632,234,-50.14376321,2,2,1.454838789,1.058590397,1,1
6,1,104,182.6638478,170,-12.66384778,3,1,0.975627559,0.397199608,1,1
6,1,105,466.807611,394,-72.80761099,2,2,1.164885425,0.882651916,1,1
6,1,106,182.6638478,154,-28.66384778,1,1,1.775880698,3.154331408,1,1
6,1,107,466.807611,410,-56.80761099,3,2,1.034654664,0.782376066,1,1
6,1,108,466.807611,410,-56.80761099,2,2,0.33546235,0.897400246,1,1
6,1,109,182.6638478,186,3.33615222,3,1,0.906382345,0.620483794,1,1
6,1,110,466.807611,410,-56.80761099,2,2,1.732878549,1.468609878,1,1
6,1,111,284.1437632,266,-18.14376321,1,2,1.881443111,1.107483926,1,1
6,1,112,466.807611,410,-56.80761099,1,2,0.628443282,0.783934755,1,1
6,1,113,466.807611,394,-72.80761099,1,2,0.226640545,1.187287224,1,1
6,1,114,466.807611,362,-104.807611,2,1,1.148046253,0.966286165,1,1
6,1,115,182.6638478,170,-12.66384778,3,2,0.91791595,1.310304346,1,1
6,1,116,466.807611,378,-88.80761099,2,1,0.976494172,1.369395241,1,1
6,1,117,182.6638478,186,3.33615222,3,1,1.778090716,1.166708408,1,1
6,1,118,466.807611,378,-88.80761099,2,2,1.51658582,1.744924211,1,1
6,1,119,466.807611,378,-88.80761099,1,2,0.884370548,1.534977768,1,1
6,1,120,466.807611,394,-72.80761099,2,2,1.516307294,0.862293537,1,1
6,2,121,182.6638478,186,3.33615222,3,2,1.082419124,0.632246411,1,1
6,2,122,466.807611,298,-168.807611,1,2,0.462241723,0.923206366,1,1
6,2,123,182.6638478,154,-28.66384778,3,1,0.912606641,0.362177288,1,1
6,2,124,182.6638478,154,-28.66384778,3,1,0.754341853,0.340789557,1,1
6,2,125,466.807611,442,-24.80761099,1,1,2.013453764,2.728734904,1,1
6,2,126,466.807611,426,-40.80761099,2,2,2.037497377,1.280815057,1,1
6,2,127,466.807611,378,-88.80761099,2,1,2.979715846,1.268906022,1,1
6,2,128,182.6638478,170,-12.66384778,3,2,1.000209971,0.912431131,1,1
6,2,129,284.1437632,218,-66.14376321,1,2,2.630293743,1.546612382,1,1
6,2,130,466.807611,506,39.19238901,2,2,0.939796456,0.687417187,1,1
6,2,131,182.6638478,154,-28.66384778,3,2,1.312378702,0.646533866,1,1
6,2,132,182.6638478,154,-28.66384778,3,2,1.384071996,0.486039552,1,1
6,2,133,284.1437632,186,-98.14376321,2,1,1.431003922,1.1130695,1,1
6,2,134,182.6638478,138,-44.66384778,1,2,3.151782186,1.316427598,1,1
6,2,135,466.807611,346,-120.807611,2,1,1.351442321,2.168019666,1,1
6,2,136,284.1437632,250,-34.14376321,2,2,1.946701542,0.884107308,1,1
6,2,137,182.6638478,186,3.33615222,3,1,1.749256208,1.40924036,1,1
6,2,138,284.1437632,218,-66.14376321,3,2,0.651237858,0.289223747,1,1
6,2,139,182.6638478,154,-28.66384778,2,2,1.286367368,1.116692133,1,1
6,2,140,466.807611,346,-120.807611,1,2,0.661608633,0.674191963,1,1
6,2,141,466.807611,394,-72.80761099,1,1,1.709946604,1.568340166,1,1
6,2,142,284.1437632,218,-66.14376321,2,2,1.882697554,0.427130984,1,1
6,2,143,182.6638478,186,3.33615222,2,2,1.266650859,1.935151135,1,1
6,2,144,284.1437632,234,-50.14376321,2,2,1.974569818,0.522991487,1,1
6,2,145,182.6638478,154,-28.66384778,2,1,29.28376277,2.390526105,1,1
6,2,146,182.6638478,170,-12.66384778,1,2,0.176891053,1.539588853,1,1
6,2,147,182.6638478,154,-28.66384778,3,2,1.045718376,1.123894352,1,1
6,2,148,182.6638478,154,-28.66384778,3,2,1.078734723,0.45974871,1,1
6,2,149,284.1437632,250,-34.14376321,2,2,0.372727135,2.465552132,1,1
6,2,150,466.807611,346,-120.807611,3,2,0.899762484,0.425939354,1,1
6,2,151,466.807611,506,39.19238901,2,2,1.907959401,1.073325859,1,1
6,2,152,182.6638478,170,-12.66384778,2,2,1.30492629,0.401868617,1,1
6,2,153,284.1437632,218,-66.14376321,1,2,0.648812799,1.214509718,1,1
6,2,154,182.6638478,186,3.33615222,3,2,1.34997096,0.266245553,1,1
6,2,155,284.1437632,186,-98.14376321,1,2,0.643935385,0.881568711,1,1
6,2,156,182.6638478,186,3.33615222,1,2,1.411244001,0.687125186,1,1
6,2,157,466.807611,506,39.19238901,1,1,0.616029718,1.533837369,1,1
6,2,158,284.1437632,282,-2.143763214,3,1,0.848155323,1.131594189,1,1
6,2,159,284.1437632,186,-98.14376321,1,2,0.707317514,0.703116906,1,1
6,2,160,284.1437632,250,-34.14376321,3,2,0.74513454,0.275868361,1,1
6,2,161,182.6638478,202,19.33615222,2,2,1.539121787,0.538666246,1,1
6,2,162,182.6638478,186,3.33615222,3,2,0.829746763,1.219556099,1,1
6,2,163,182.6638478,186,3.33615222,3,2,0.716007095,0.471515677,1,1
6,2,164,466.807611,442,-24.80761099,2,2,1.122919873,1.858508915,1,1
6,2,165,466.807611,442,-24.80761099,2,2,1.468837044,1.507443866,1,1
6,2,166,284.1437632,250,-34.14376321,3,2,0.340255348,0.792527127,1,1
6,2,167,284.1437632,266,-18.14376321,3,1,0.675630097,0.553930644,1,1
6,2,168,466.807611,442,-24.80761099,1,1,1.167221204,0.307389087,1,1
6,2,169,466.807611,458,-8.807610994,1,1,2.432474529,1.076545591,1,1
6,2,170,284.1437632,298,13.85623679,2,2,0.669125896,2.405028245,1,1
6,2,171,466.807611,378,-88.80761099,1,2,0.641528544,0.630232154,1,1
6,2,172,182.6638478,442,259.3361522,1,2,0.561295656,1.261828835,1,0
6,2,173,284.1437632,314,29.85623679,1,2,1.801373958,3.503592963,1,0
6,2,174,182.6638478,170,-12.66384778,3,2,0.89181229,0.374069885,1,1
6,2,175,466.807611,362,-104.807611,1,2,3.000345017,1.006027981,1,1
6,2,176,284.1437632,266,-18.14376321,2,2,1.187797283,0.992022018,1,1
6,2,177,284.1437632,250,-34.14376321,1,2,4.526144991,1.377728043,1,1
6,2,178,182.6638478,202,19.33615222,2,2,1.08785565,0.431443648,1,1
6,2,179,284.1437632,10,-274.1437632,1,2,4.622227356,1.323924295,0,1
6,2,180,284.1437632,266,-18.14376321,2,2,0.888307183,1.047726965,1,1
6,2,181,284.1437632,282,-2.143763214,2,2,1.001635981,0.475243299,1,1
6,2,182,466.807611,394,-72.80761099,3,1,0.694116321,1.228193748,1,1
6,2,183,182.6638478,202,19.33615222,3,1,2.939657696,0.667391785,1,1
6,2,184,182.6638478,186,3.33615222,3,2,1.048698004,4.179611047,1,1
6,2,185,284.1437632,266,-18.14376321,2,2,1.198392307,0.666834504,1,1
6,2,186,284.1437632,266,-18.14376321,2,2,2.670635493,1.173852469,1,1
6,2,187,284.1437632,250,-34.14376321,1,2,1.491401191,1.615348962,1,1
6,2,188,182.6638478,218,35.33615222,1,2,0.716236463,0.886561249,1,1
6,2,189,284.1437632,266,-18.14376321,2,1,3.642335063,2.200842968,1,1
6,2,190,284.1437632,266,-18.14376321,3,1,0.705775213,1.290259754,1,1
6,2,191,284.1437632,234,-50.14376321,2,2,1.206911265,1.134270666,1,1
6,2,192,284.1437632,266,-18.14376321,3,2,2.177520678,0.616369537,1,1
6,2,193,466.807611,378,-88.80761099,3,2,0.78424809,0.599373474,1,1
6,2,194,182.6638478,186,3.33615222,2,2,0.936211765,0.399698625,1,1
6,2,195,466.807611,346,-120.807611,1,2,12.87669592,1.287684584,1,1
6,2,196,466.807611,394,-72.80761099,2,2,1.288097917,0.508402428,1,1
6,2,197,284.1437632,266,-18.14376321,3,2,0.867321084,0.342265831,1,1
6,2,198,284.1437632,234,-50.14376321,3,2,0.932061877,0.364141838,1,1
6,2,199,284.1437632,234,-50.14376321,2,1,0.867755969,0.638507858,1,1
6,2,200,182.6638478,186,3.33615222,2,2,1.184427287,0.972266279,1,1
6,2,201,284.1437632,266,-18.14376321,1,2,1.300140257,0.853836233,1,1
6,2,202,284.1437632,250,-34.14376321,1,2,0.932883181,0.483329354,1,1
6,2,203,182.6638478,234,51.33615222,1,2,0.686247013,0.393315304,1,0
6,2,204,182.6638478,154,-28.66384778,2,2,4.308375895,0.424586013,1,1
6,2,205,466.807611,394,-72.80761099,2,2,1.663333667,0.366751333,1,1
6,2,206,284.1437632,298,13.85623679,3,1,0.830422848,1.732296269,1,1
6,2,207,466.807611,410,-56.80761099,3,2,2.195609736,0.28056332,1,1
6,2,208,284.1437632,314,29.85623679,3,2,1.268043877,0.242272874,1,0
6,2,209,182.6638478,186,3.33615222,2,1,1.07025873,0.24588637,1,1
6,2,210,466.807611,394,-72.80761099,2,2,1.204511112,0.337663189,1,1
6,2,211,466.807611,458,-8.807610994,1,2,0.791507535,0.387767147,1,1
6,2,212,284.1437632,282,-2.143763214,2,1,0.438147734,1.951722042,1,1
6,2,213,284.1437632,234,-50.14376321,2,2,0.777084317,0.519867145,1,1
6,2,214,466.807611,458,-8.807610994,1,2,4.097090434,1.710779312,1,1
6,2,215,466.807611,410,-56.80761099,2,2,0.527748758,0.804030058,1,1
6,2,216,182.6638478,218,35.33615222,1,1,0.71948392,0.92687468,1,1
6,2,217,284.1437632,250,-34.14376321,2,2,0.987195767,0.402719657,1,1
6,2,218,466.807611,346,-120.807611,3,1,0.861380119,1.849885562,1,1
6,2,219,466.807611,378,-88.80761099,1,1,3.54116898,5.654671,1,1
6,2,220,466.807611,378,-88.80761099,1,2,0.227826722,2.205481962,1,1
6,2,221,466.807611,426,-40.80761099,1,2,1.306794641,0.865128204,1,1
6,2,222,284.1437632,282,-2.143763214,1,2,1.645610899,0.409217845,1,1
6,2,223,466.807611,378,-88.80761099,1,2,1.403210314,1.38107633,1,1
6,2,224,284.1437632,250,-34.14376321,1,2,0.755010124,1.196778772,1,1
6,2,225,182.6638478,186,3.33615222,2,2,1.112238498,0.398908356,1,1
6,2,226,284.1437632,186,-98.14376321,2,1,5.532250925,3.02202065,1,1
6,2,227,284.1437632,266,-18.14376321,2,2,1.643651975,1.102315001,1,1
6,2,228,182.6638478,170,-12.66384778,3,2,1.214612084,0.505956629,1,1
6,2,229,466.807611,10,-456.807611,1,2,4.83390478,1.052398369,0,1
6,2,230,182.6638478,154,-28.66384778,2,2,3.695607594,1.533860728,1,1
6,2,231,466.807611,586,119.192389,2,2,1.116273485,0.680069807,1,0
6,2,232,182.6638478,186,3.33615222,2,1,1.854880051,1.031396856,1,1
6,2,233,284.1437632,266,-18.14376321,3,1,0.676290201,0.615849,1,1
6,2,234,182.6638478,170,-12.66384778,3,2,0.940254854,0.286785994,1,1
6,2,235,466.807611,314,-152.807611,1,2,0.890301119,0.8328777,1,1
6,2,236,182.6638478,170,-12.66384778,2,1,4.608701507,6.48559225,1,1
6,2,237,466.807611,442,-24.80761099,1,1,0.782534658,0.760202636,1,1
6,2,238,182.6638478,170,-12.66384778,3,2,1.14314212,0.61161,1,1
6,2,239,466.807611,378,-88.80761099,2,2,2.434468827,1.076321307,1,1
6,2,240,182.6638478,42,-140.6638478,1,2,3.417730874,1.754882101,1,0
7,1,1,466.807611,218,-248.807611,1,2,6.958770556,2.586561583,1,0
7,1,2,284.1437632,250,-34.14376321,2,1,2.47168142,3.346630664,1,1
7,1,3,182.6638478,202,19.33615222,3,1,1.513586882,2.760391186,1,1
7,1,4,284.1437632,266,-18.14376321,2,2,1.510832343,1.783147311,1,1
7,1,5,284.1437632,218,-66.14376321,3,1,1.470382893,1.651181773,1,1
7,1,6,284.1437632,250,-34.14376321,2,2,2.053996442,2.3316697,1,1
7,1,7,182.6638478,202,19.33615222,2,1,1.774159056,1.712027236,1,1
7,1,8,182.6638478,186,3.33615222,3,2,1.50065642,1.257647731,1,1
7,1,9,466.807611,378,-88.80761099,2,1,1.219165055,1.273784382,1,1
7,1,10,284.1437632,10,-274.1437632,1,1,5.99869206,1.416266347,0,1
7,1,11,284.1437632,234,-50.14376321,1,1,2.002652903,1.515824875,1,1
7,1,12,466.807611,362,-104.807611,2,2,1.220780904,1.168650777,1,1
7,1,13,466.807611,458,-8.807610994,2,2,1.166138407,1.949112939,1,1
7,1,14,284.1437632,10,-274.1437632,1,1,4.508195769,1.211923297,0,1
7,1,15,182.6638478,250,67.33615222,3,2,1.860516103,2.726656832,1,1
7,1,16,284.1437632,314,29.85623679,2,1,1.111990208,2.491757868,1,1
7,1,17,182.6638478,266,83.33615222,2,1,1.314650552,1.31984841,1,1
7,1,18,182.6638478,218,35.33615222,3,2,1.415471834,1.933673256,1,1
7,1,19,284.1437632,298,13.85623679,2,2,1.227177205,1.027389908,1,1
7,1,20,284.1437632,314,29.85623679,1,1,1.316225603,0.941827299,1,1
7,1,21,466.807611,410,-56.80761099,2,2,2.448468373,1.509429832,1,1
7,1,22,284.1437632,282,-2.143763214,3,1,1.187043559,1.089512603,1,1
7,1,23,182.6638478,234,51.33615222,2,2,1.037121858,1.851905878,1,1
7,1,24,466.807611,378,-88.80761099,1,2,1.362891822,1.029782328,1,1
7,1,25,182.6638478,234,51.33615222,2,1,1.785027593,0.754490594,1,1
7,1,26,284.1437632,266,-18.14376321,2,2,1.350484745,0.745663353,1,1
7,1,27,182.6638478,250,67.33615222,3,2,1.413946258,2.224343726,1,1
7,1,28,182.6638478,250,67.33615222,2,2,1.093863641,1.563388431,1,1
7,1,29,284.1437632,282,-2.143763214,1,2,1.925499162,0.934546517,1,1
7,1,30,284.1437632,298,13.85623679,1,2,1.957684348,0.772459099,1,1
7,1,31,466.807611,346,-120.807611,2,2,1.083893596,0.875707089,1,1
7,1,32,466.807611,426,-40.80761099,2,1,1.095536676,0.941640224,1,1
7,1,33,284.1437632,330,45.85623679,2,1,3.45416949,0.992769101,1,1
7,1,34,182.6638478,234,51.33615222,1,1,1.098778144,0.760207425,1,1
7,1,35,284.1437632,298,13.85623679,2,2,1.525606156,0.478855743,1,1
7,1,36,466.807611,426,-40.80761099,2,2,2.900425598,1.712439457,1,1
7,1,37,466.807611,394,-72.80761099,3,2,1.536388778,0.88936522,1,1
7,1,38,182.6638478,218,35.33615222,2,1,1.803089708,1.274288775,1,1
7,1,39,182.6638478,250,67.33615222,2,1,1.034662543,1.690839062,1,1
7,1,40,284.1437632,282,-2.143763214,2,2,1.1286591,1.214058615,1,1
7,1,41,466.807611,426,-40.80761099,1,2,1.111152419,1.001626347,1,1
