Subj_idx,Trial_number,Stimulus,Response,Confidence,RT_dec,RT_conf,Time_finish,Response_angle_in_degrees,Response_raw_in_degrees,RT_start_trial
1053,1,229,0,25,3.3,11.3,14.6,33.2,164.2,14.8
1053,2,335,0,22,3.2,7.3,10.5,295.3,-39.7,2.9
1053,3,125,1,31,2.6,12.5,15.1,113,-12,3.4
1053,4,203,1,20,2.7,9.6,12.3,187.7,-15.3,2.8
1053,5,56,0,19,3,6.1,9.1,115.5,59.5,3.2
1053,6,42,1,20,4.6,12.2,16.8,24.1,-17.9,2.5
1053,7,275,1,17,3.2,3.6,6.8,260.1,-14.9,7
1053,8,155,1,18,3,12.8,15.8,155.8,0.8,4.8
1053,9,96,1,17,2.6,22.1,24.7,110.8,14.8,3.4
1053,10,59,1,18,2.9,6.7,9.6,57,-2,2.5
1053,11,293,0,17,1.8,11.8,13.6,240.4,-52.6,2.8
1053,12,287,1,28,3.3,2.9,6.2,304.7,17.7,2.8
1053,13,312,1,14,2.6,1.9,4.5,301.6,-10.4,3.8
1053,14,117,1,16,2.5,5.8,8.3,117.6,0.6,3.8
1053,15,219,1,18,2.9,3,5.9,236.2,17.2,2.3
1053,16,75,1,26,2.3,23.2,25.5,84.8,9.8,4.1
1053,17,167,1,18,2.2,8.1,10.3,174.2,7.2,3.1
1053,18,175,0,24,1.5,6.2,7.7,213.2,38.2,3.4
1053,19,323,0,35,2.5,11.3,13.8,118.6,155.6,2.2
1053,20,14,1,27,2.4,5.9,8.3,8.4,-5.6,3
1053,21,21,1,30,2,10.5,12.5,18.3,-2.7,1.9
1053,22,127,0,14,2.1,5.5,7.6,109.8,-17.2,2.5
1053,23,137,1,22,1.7,8.1,9.8,116.4,-20.6,2
1053,24,220,0,12,1.6,8.2,9.8,337.9,117.9,2.6
1053,25,171,1,24,1.2,6,7.2,178.5,7.5,1.4
1053,26,200,1,15,3,1.1,4.1,212.6,12.6,3.5
1053,27,324,1,48,2.2,14.5,16.7,280.5,-43.5,3.6
1053,28,66,0,24,2.5,5,7.5,143.7,77.7,2.6
1053,29,227,1,28,1.8,2.7,4.5,247.3,20.3,2.8
1053,30,14,1,25,2.1,14.8,16.9,37.7,23.7,2.3
2230,1,7,0,27,1.6,11.3,12.9,327,-40,10.4
2230,2,217,1,37,3.7,11.9,15.6,230.4,13.4,2.6
2230,3,192,1,20,3.5,12.2,15.7,197.6,5.6,2.9
2230,4,218,1,14,3.4,12.9,16.3,217.5,-0.5,2.7
2230,5,85,0,11,2.8,6.4,9.2,97.8,12.8,3.7
2230,6,113,1,28,2,11.2,13.2,123,10,2.6
2230,7,110,1,23,1.9,12.6,14.5,109.6,-0.4,3.3
2230,8,81,1,12,1.2,10.3,11.5,79.3,-1.7,2.6
2230,9,153,1,14,1.5,5.1,6.6,146.3,-6.7,2.6
2230,10,240,1,16,0.8,6.8,7.6,241.8,1.8,2.1
2230,11,309,0,13,1.6,7.2,8.8,332.7,23.7,1.4
2230,12,254,0,24,0.5,9.1,9.6,229.5,-24.5,1.9
2230,13,15,1,11,0.6,9,9.6,12,-3,2.2
2230,14,86,0,9,0.4,3.5,3.9,69.8,-16.2,0.8
2230,15,327,0,10,1,8.6,9.6,302.3,-24.7,3.1
2230,16,152,1,29,0.9,9,9.9,157,5,1.8
2230,17,118,0,17,1.3,7.1,8.4,85.7,-32.3,1.9
2230,18,42,0,21,0.6,7,7.6,64,22,1.4
2230,19,276,1,10,2.6,4.5,7.1,267.1,-8.9,1.5
2230,20,209,1,29,0.8,15,15.8,218.7,9.7,1.2
2230,21,323,1,17,0.6,9.4,10,313.5,-9.5,2.7
2230,22,296,1,22,0.4,6.8,7.2,308.2,12.2,3.4
2230,23,295,1,14,1.4,6.9,8.3,286.6,-8.4,3.7
2230,24,24,1,19,2.4,7.8,10.2,32.4,8.4,2.1
2230,25,175,0,15,1.1,7,8.1,156.6,-18.4,1.1
2230,26,159,1,12,0.5,10.5,11,157.5,-1.5,2.2
2230,27,40,0,11,1.6,7,8.6,51.5,11.5,2.1
2230,28,282,1,22,1,11.3,12.3,285.7,3.7,3.3
2230,29,217,1,19,1.1,6.2,7.3,223.8,6.8,2
2230,30,227,1,24,0.5,11.8,12.3,223.7,-3.3,4
2554,1,12,0,18,1.8,11.3,13.1,349.7,-22.3,5.1
2554,2,128,1,16,1.8,11,12.8,123,-5,1.8
2554,3,79,0,17,1.6,20.1,21.7,21.8,-57.2,2.7
2554,4,181,0,4,1.8,10.8,12.6,149.6,-31.4,1.3
2554,5,352,1,18,1.6,13.9,15.5,356,4,1.6
2554,6,264,0,14,1.7,26.5,28.2,317.2,53.2,3.3
2554,7,337,1,14,1.2,9.1,10.3,325.3,-11.7,2.4
2554,8,54,1,16,1.8,8.1,9.9,43.4,-10.6,2.5
2554,9,269,0,2,2,7.5,9.5,252.6,-16.4,2
2554,10,136,1,16,4.4,6.2,10.6,120.3,-15.7,1.6
2554,11,113,1,27,1.8,9.6,11.4,122.9,9.9,2.2
2554,12,356,1,23,1.3,8.4,9.7,9.9,13.9,3.6
2554,13,72,1,15,1.7,7,8.7,67.5,-4.5,2.3
2554,14,17,1,25,2.7,6,8.7,359.6,-17.4,3.9
2554,15,142,0,14,1,3.9,4.9,66.4,-75.6,2.8
2554,16,158,1,17,0.9,3.6,4.5,147.4,-10.6,1.5
2554,17,344,1,20,1.4,7.3,8.7,344,0,1.1
2554,18,284,1,16,2.1,9.4,11.5,297.1,13.1,2.3
2554,19,109,1,21,1.8,10.2,12,110.7,1.7,3
2554,20,28,1,17,1,7.7,8.7,22.8,-5.2,2
2554,21,315,0,18,1.2,3.1,4.3,277.1,-37.9,4.7
2554,22,248,1,17,1.8,9.4,11.2,243.8,-4.2,2.5
2554,23,116,1,6,1.7,9.2,10.9,113.3,-2.7,2.5
2554,24,18,0,17,1.5,11.1,12.6,37.4,19.4,2.1
2554,25,178,0,15,1.8,6.6,8.4,162.3,-15.7,3.7
2554,26,126,1,17,1.6,10,11.6,133.8,7.8,1.3
2554,27,173,1,23,1.1,12.8,13.9,166.1,-6.9,2.1
2554,28,110,1,21,1.2,9.6,10.8,90,-20,2.5
2554,29,101,1,19,1.9,8.2,10.1,117,16,1.5
2554,30,164,1,20,1.1,6.2,7.3,157.6,-6.4,1.3
2734,1,357,0,17,7.2,16.6,23.8,47,50,5.5
2734,2,256,0,29,3.4,10.5,13.9,218.5,-37.5,4.4
2734,3,318,0,30,3.1,22.1,25.2,265,-53,2.8
2734,4,143,0,28,2.1,13.3,15.4,95.6,-47.4,2.4
2734,5,160,1,37,4,17,21,176.2,16.2,3.6
2734,6,319,0,27,3.4,26.1,29.5,86,127,3.5
2734,7,197,1,40,3,21.9,24.9,198.6,1.6,2.7
2734,8,337,1,22,2.5,20.4,22.9,328.9,-8.1,3.8
2734,9,296,0,19,2.1,9.4,11.5,266.4,-29.6,2.8
2734,10,262,0,0,2.9,26.9,29.8,323.1,61.1,2
2734,11,92,1,29,3.6,11.4,15,88.5,-3.5,2.7
2734,12,20,0,18,2.1,14.8,16.9,52.9,32.9,5.5
2734,13,276,1,15,1.9,13.5,15.4,272,-4,3
2734,14,337,1,18,1.5,20.8,22.3,320,-17,3.2
2734,15,344,0,18,1,15,16,5.6,21.6,2.9
2734,16,94,1,26,2.2,17.8,20,84.5,-9.5,2.4
2734,17,338,1,28,1.8,17.4,19.2,324,-14,4.8
2734,18,126,1,36,2.7,16.2,18.9,104.4,-21.6,3.3
2734,19,87,1,37,1.9,15.7,17.6,74,-13,1.8
2734,20,342,1,32,1.1,16.8,17.9,0.6,18.6,2.4
2734,21,333,1,34,2.2,14.1,16.3,312.4,-20.6,2
2734,22,253,1,41,1.6,23.4,25,265.1,12.1,4.4
2734,23,145,0,16,1.9,10.6,12.5,119.3,-25.7,3.5
2734,24,240,0,40,2.7,21.6,24.3,127.6,-112.4,1.9
2734,25,89,1,37,1.9,18.2,20.1,87.1,-1.9,2.9
2734,26,282,1,36,2.4,12.4,14.8,296.4,14.4,4.5
2734,27,60,1,47,1,14.5,15.5,15.7,-44.3,3.4
2734,28,306,0,22,1.3,10.4,11.7,259.4,-46.6,2.2
2734,29,61,0,0,1,14.8,15.8,137.4,76.4,2.5
2734,30,335,1,24,1.6,13.3,14.9,333.7,-1.3,1.9
3127,1,202,1,13,2.8,14.8,17.6,200.2,-1.8,1.5
3127,2,42,1,15,0.6,7.8,8.4,56.4,14.4,2.4
3127,3,35,1,15,0.8,12,12.8,34.3,-0.7,1.1
3127,4,340,0,17,2.3,13.5,15.8,320.3,-19.7,2.8
3127,5,25,1,16,1.8,10.5,12.3,19.2,-5.8,2
3127,6,6,0,15,0.6,19.5,20.1,255.6,-110.4,2.7
3127,7,260,1,16,1.3,12.4,13.7,259.8,-0.2,2.5
3127,8,279,1,18,2.5,23.8,26.3,278.1,-0.9,1.5
3127,9,328,1,14,1.4,13.3,14.7,333.8,5.8,2.4
3127,10,256,1,16,1.4,4.5,5.9,251.6,-4.4,2.7
3127,11,105,0,15,0.6,9.6,10.2,88.8,-16.2,1.7
3127,12,99,1,16,1.5,12.4,13.9,109.5,10.5,1.4
3127,13,267,0,12,1.6,12.7,14.3,99.6,-167.4,2.4
3127,14,189,1,12,0.6,7.8,8.4,195.9,6.9,2.4
3127,15,333,1,17,1,10.1,11.1,337,4,2.2
3127,16,277,0,13,0.7,13.9,14.6,236.8,-40.2,2
3127,17,253,1,16,1.5,7.7,9.2,261.5,8.5,2.5
3127,18,91,1,12,1.5,8.3,9.8,94.8,3.8,1.4
3127,19,345,0,10,1.2,7.6,8.8,323.8,-21.2,2.4
3127,20,292,1,22,0.5,7.4,7.9,280.7,-11.3,1.4
3127,21,216,0,17,0.5,19.7,20.2,239.7,23.7,2.1
3127,22,114,1,14,2.7,21.2,23.9,117.3,3.3,1.4
3127,23,235,1,17,1.7,6.1,7.8,244.3,9.3,1.7
3127,24,298,1,15,1.4,12.7,14.1,294.9,-3.1,1.6
3127,25,67,0,17,1.8,11.2,13,84.3,17.3,2.8
3127,26,295,0,18,0.6,7.4,8,346.9,51.9,1.2
3127,27,102,1,18,1.5,15,16.5,100.7,-1.3,1.4
3127,28,27,1,18,0.6,17,17.6,24.2,-2.8,2.5
3127,29,202,0,5,0.9,13.1,14,252.5,50.5,1.2
3127,30,238,1,12,0.5,12.2,12.7,233.3,-4.7,1.1
3259,1,349,1,20,3.7,6.6,10.3,353.7,4.7,13.8
3259,2,115,1,17,2.7,6.4,9.1,129.2,14.2,5
3259,3,157,1,16,3.1,11.1,14.2,158.3,1.3,2.7
3259,4,224,0,25,2.5,8.8,11.3,255.1,31.1,2.7
3259,5,100,1,16,2.5,8.3,10.8,114.1,14.1,1.9
3259,6,321,0,23,3,5.2,8.2,248.9,-72.1,2.9
3259,7,44,0,19,2.2,4.9,7.1,5.5,-38.5,3.1
3259,8,242,0,20,3.4,9.3,12.7,202.7,-39.3,2.5
3259,9,86,1,23,1.8,10.3,12.1,92.9,6.9,2.4
3259,10,64,1,20,3.4,6.7,10.1,53.9,-10.1,2.2
3259,11,253,0,15,3.7,19,22.7,355.5,102.5,2.9
3259,12,131,1,12,2.5,15.5,18,123.2,-7.8,1.8
3259,13,358,1,17,2.3,8.3,10.6,346,-12,2.6
3259,14,88,1,10,1.8,9.7,11.5,85,-3,2.3
3259,15,285,0,17,3.7,12.4,16.1,325.7,40.7,2.8
3259,16,49,1,37,1.5,9.3,10.8,74.8,25.8,2.7
3259,17,329,0,15,2.6,7.9,10.5,305.4,-23.6,2.4
3259,18,28,1,30,1.4,6.5,7.9,48.2,20.2,2.2
3259,19,192,0,26,2,7.2,9.2,100.3,-91.7,2.9
3259,20,122,0,23,3.1,5,8.1,91.7,-30.3,2.4
3259,21,260,0,20,3.6,5.4,9,238.1,-21.9,9.7
3259,22,197,1,30,2.7,15.1,17.8,207.9,10.9,1.5
3259,23,172,1,22,2.4,20.9,23.3,153.6,-18.4,3.7
3259,24,45,1,19,3.7,9.5,13.2,36.7,-8.3,1.1
3259,25,173,1,21,1.7,12.9,14.6,155.8,-17.2,2.6
3259,26,137,1,14,1.8,8.4,10.2,127.2,-9.8,2
3259,27,176,1,12,2.2,15.7,17.9,165.8,-10.2,1.9
3259,28,320,1,18,1.6,5.4,7,317.5,-2.5,1.9
3259,29,345,1,19,1.1,4.4,5.5,345.2,0.2,1.1
3259,30,264,1,18,0.9,4.1,5,256.2,-7.8,1.8
4156,1,290,1,17,1.1,17.8,18.9,296,6,7.7
4156,2,6,0,17,2.4,14.4,16.8,30.3,24.3,3.1
4156,3,131,1,27,4.3,13.3,17.6,113.1,-17.9,5.3
4156,4,340,1,29,3.7,19,22.7,1.4,21.4,5
4156,5,1,0,30,2.9,21.4,24.3,283,-78,4.6
4156,6,224,1,27,1.4,31.2,32.6,229.5,5.5,3.2
4156,7,4,1,11,2.5,15.3,17.8,359.8,-4.2,3.4
4156,8,290,0,16,4.5,17.9,22.4,330.1,40.1,3.1
4156,9,150,1,16,1.9,20.6,22.5,136.7,-13.3,2.3
4156,10,282,0,18,2,20.6,22.6,327.7,45.7,3.4
4156,11,55,1,30,2.6,15.9,18.5,67.8,12.8,4.1
4156,12,199,1,15,2,14.7,16.7,185.6,-13.4,4
4156,13,294,1,18,2.5,18.1,20.6,298,4,3.1
4156,14,283,0,12,2.2,12.4,14.6,255.6,-27.4,3.5
4156,15,238,0,18,1.9,13.4,15.3,310.7,72.7,4.5
4156,16,54,1,23,1.4,23.8,25.2,57.7,3.7,7
4156,17,209,0,23,2,18.3,20.3,159.6,-49.4,9
4156,18,355,0,30,2.1,22.4,24.5,298.7,-56.3,11.6
4156,19,292,1,26,4.1,13.2,17.3,272.5,-19.5,5.9
4156,20,222,1,20,2.4,22.2,24.6,224.7,2.7,6.1
4156,21,339,1,19,2.1,12.7,14.8,332.8,-6.2,4.2
4156,22,189,1,18,1.3,16.1,17.4,205.6,16.6,4.2
4156,23,114,0,19,4.2,6.9,11.1,133.2,19.2,4.2
4156,24,76,1,18,1,6.2,7.2,67.7,-8.3,5.5
4156,25,64,0,17,1.2,11.7,12.9,347.3,-76.7,2.4
4156,26,118,0,16,2.4,19.5,21.9,66.5,-51.5,2.7
4156,27,31,1,25,1.8,8.5,10.3,8.2,-22.8,3.2
4156,28,192,0,28,1.8,11.3,13.1,157.4,-34.6,7.3
4156,29,187,1,17,1.9,9.4,11.3,200.4,13.4,2.7
4156,30,215,0,18,1.4,10.2,11.6,186.7,-28.3,5.3
4710,1,277,0,16,2.5,14.7,17.2,240.9,-36.1,6.5
4710,2,241,1,16,2.5,22.8,25.3,229.2,-11.8,2.4
4710,3,355,1,16,2.1,19,21.1,355.1,0.1,2.8
4710,4,241,0,14,2.1,16.9,19,256.9,15.9,2.9
4710,5,190,1,20,1.9,23,24.9,200.5,10.5,2.5
4710,6,310,0,15,2.4,21.2,23.6,284.9,-25.1,3.6
4710,7,241,0,30,1.6,53.2,54.8,41.4,160.4,3.1
4710,8,45,0,11,1.1,20.7,21.8,57.3,12.3,2.9
4710,9,145,1,16,1.2,13,14.2,138.8,-6.2,2.6
4710,10,98,1,17,1.2,13.4,14.6,91,-7,4.9
4710,11,156,1,26,1.5,26.3,27.8,166.5,10.5,1.5
4710,12,153,1,36,1.1,23.5,24.6,165.1,12.1,2
4710,13,193,0,20,2.5,11.4,13.9,163.9,-29.1,3.4
4710,14,98,0,9,2.4,13.8,16.2,120.3,22.3,2.9
4710,15,199,1,24,1,13.4,14.4,178.2,-20.8,4.1
4710,16,310,1,30,1.4,10.3,11.7,291.6,-18.4,7.2
4710,17,357,1,33,2.2,17.3,19.5,336.7,-20.3,4.7
4710,18,308,0,50,2.3,21.3,23.6,38.7,90.7,4.7
4710,19,206,0,40,2,21.3,23.3,117.5,-88.5,2.4
4710,20,17,1,49,1.2,17.6,18.8,9.8,-7.2,2.1
4710,21,347,0,22,2,11.6,13.6,323.2,-23.8,5.6
4710,22,304,0,25,0.9,6.8,7.7,274.8,-29.2,3.7
4710,23,298,0,33,1.4,11.2,12.6,198.6,-99.4,9.2
4710,24,139,1,23,1.6,13.3,14.9,130.4,-8.6,2.9
4710,25,344,0,27,0.8,17.2,18,286.1,-57.9,2.1
4710,26,102,1,16,1.8,7.4,9.2,102.6,0.6,3.2
4710,27,119,1,13,1.8,7.9,9.7,113.4,-5.6,4.9
4710,28,67,1,21,1.7,14.5,16.2,46.8,-20.2,2.8
4710,29,182,1,23,1.8,8.7,10.5,177.4,-4.6,3.9
4710,30,100,1,12,1.9,10.2,12.1,92,-8,4.5
5587,1,74,0,11,2.2,7.8,10,358.8,-75.2,4.4
5587,2,342,1,10,2.4,12.9,15.3,338.5,-3.5,7.4
5587,3,262,0,7,2.8,5,7.8,246.5,-15.5,10.6
5587,4,238,1,10,1.4,5.2,6.6,230.1,-7.9,1.4
5587,5,277,0,10,0.9,4.6,5.5,242.6,-34.4,2.1
5587,6,156,0,10,2.6,4.4,7,135.7,-20.3,2
5587,7,310,0,9,1.8,7.2,9,285.3,-24.7,0.8
5587,8,67,0,10,1.3,8.6,9.9,147.9,80.9,12.3
5587,9,174,0,11,3.1,2.9,6,41.1,-132.9,1.4
5587,10,40,1,180,1.7,15.7,17.4,270,-130,1.1
5587,11,322,0,10,1.5,4.8,6.3,347,25,2.2
5587,12,186,0,9,2.2,8.1,10.3,242.7,56.7,4.3
5587,13,295,1,9,2.7,3.9,6.6,290,-5,1.4
5587,14,40,0,11,2.3,7.2,9.5,133,93,1.2
5587,15,41,0,7,2.5,4.5,7,24.7,-16.3,3.4
5587,16,306,1,10,2.5,5.4,7.9,296.1,-9.9,3.7
5587,17,307,1,180,1.1,6.9,8,135,-172,2.2
5587,18,212,0,8,0.9,5.6,6.5,227.9,15.9,3.9
5587,19,303,0,7,2,2,4,291.9,-11.1,2.6
5587,20,109,0,8,4.9,7,11.9,124.7,15.7,1.5
5587,21,228,0,7,2,3.6,5.6,186.6,-41.4,1.8
5587,22,134,0,8,1.8,16.7,18.5,65.5,-68.5,2.9
5587,23,131,1,6,0.9,6.3,7.2,136.5,5.5,1.7
5587,24,107,0,9,3,0.8,3.8,92.6,-14.4,1.7
5587,25,324,0,7,1,4.9,5.9,291.1,-32.9,2.4
5587,26,80,0,7,0.8,6.9,7.7,68.6,-11.4,2.3
5587,27,193,0,7,3.1,2.1,5.2,183.4,-9.6,2.5
5587,28,268,0,7,2.9,3.4,6.3,173.5,-94.5,1.3
5587,29,164,1,7,2.4,4.2,6.6,158.3,-5.7,1.4
5587,30,133,1,7,0.9,4.1,5,126.9,-6.1,2.8
5651,1,297,0,15,1.6,10.1,11.7,275.8,-21.2,9.9
5651,2,141,1,15,2.3,6.5,8.8,155.1,14.1,2.7
5651,3,303,0,15,2.9,11.2,14.1,33.8,90.8,11.5
5651,4,190,0,24,2.1,8.7,10.8,314.9,124.9,2.9
5651,5,341,0,16,1.1,10,11.1,319.7,-21.3,1.6
5651,6,355,0,34,3.3,13.1,16.4,78.7,83.7,1.2
5651,7,337,0,28,1.7,9.1,10.8,83.2,106.2,1.5
5651,8,20,0,0,0.7,2.9,3.6,50,30,0.9
5651,9,324,0,0,2.1,4.7,6.8,0,36,2.3
5651,10,245,1,18,3.6,2.6,6.2,241.8,-3.2,2.1
5651,11,62,0,0,0.8,1.8,2.6,69.9,7.9,2.4
5651,12,159,0,40,0.9,5.8,6.7,313.9,154.9,2.8
5651,13,131,1,22,2.7,4.6,7.3,113,-18,2.7
5651,14,343,1,17,1.2,4.4,5.6,344,1,9.1
5651,15,194,0,17,1.6,5.6,7.2,140,-54,2.5
5651,16,256,1,38,1.4,6.2,7.6,267.5,11.5,2.9
5651,17,6,0,38,1.8,14.2,16,318.4,-47.6,4.6
5651,18,161,1,29,1.7,4.8,6.5,152.5,-8.5,3.6
5651,19,287,1,24,0.7,11.7,12.4,267.9,-19.1,4.8
5651,20,140,0,14,0.8,11.3,12.1,103.6,-36.4,5.7
5651,21,1,0,28,1.1,10.7,11.8,81.9,80.9,3.7
5651,22,44,0,1,1.6,5,6.6,67.3,23.3,5.3
5651,23,157,1,45,1.5,2.7,4.2,117.7,-39.3,1.3
5651,24,335,0,29,3.3,4.7,8,21.5,46.5,5.3
5651,25,157,1,19,3.7,1,4.7,139.8,-17.2,4.7
5651,26,28,1,29,1.9,7.6,9.5,4.7,-23.3,4.6
5651,27,105,1,36,3.7,1.8,5.5,112.1,7.1,4.3
5651,28,20,0,31,1.6,7.5,9.1,326.8,-53.2,4
5651,29,312,1,35,1.6,5.2,6.8,333.6,21.6,3
5651,30,120,0,32,2.2,0.1,2.3,69.8,-50.2,3.7
5844,1,86,1,15,1.3,7.6,8.9,95.2,9.2,15.3
5844,2,260,1,15,3.4,9.9,13.3,248,-12,2.5
5844,3,265,0,11,1.4,6.2,7.6,281.6,16.6,2.7
5844,4,160,1,31,1.3,9.1,10.4,165.4,5.4,3.3
5844,5,72,1,12,2.4,1.9,4.3,71,-1,3.4
5844,6,8,1,16,2.1,5.6,7.7,354.2,-13.8,1.5
5844,7,105,0,9,2.3,3.5,5.8,114.1,9.1,2.8
5844,8,223,1,20,1,7.3,8.3,231.6,8.6,2.4
5844,9,355,0,10,0.7,5.7,6.4,340.1,-14.9,2
5844,10,48,1,13,0.8,2.2,3,45.9,-2.1,2.4
5844,11,292,0,13,0.5,7.2,7.7,274.4,-17.6,1.8
5844,12,247,1,23,0.6,4,4.6,269.5,22.5,2.4
5844,13,250,1,14,1.7,3.6,5.3,239.2,-10.8,2.2
5844,14,176,0,22,1.7,2.3,4,231.8,55.8,1.4
5844,15,12,0,27,1.6,11.2,12.8,63.7,51.7,2.7
5844,16,43,1,23,1.7,2.1,3.8,52.9,9.9,4.3
5844,17,293,0,31,1.9,10.7,12.6,148.3,-144.7,2.5
5844,18,328,0,22,0.5,8.1,8.6,358.9,30.9,1.3
5844,19,62,0,44,2.7,5.7,8.4,108.1,46.1,2.3
5844,20,18,1,31,2.1,4.2,6.3,46.8,28.8,2.3
5844,21,350,1,51,0.5,8.4,8.9,354,4,2.4
5844,22,289,1,20,0.5,5.3,5.8,271.8,-17.2,1.8
5844,23,33,1,59,1.3,8.1,9.4,7.2,-25.8,0.8
5844,24,327,1,17,0.5,5.8,6.3,324.1,-2.9,1.6
5844,25,170,0,10,0.6,8.1,8.7,146,-24,1.8
5844,26,155,0,15,1.3,9.2,10.5,202.3,47.3,1
5844,27,267,0,27,0.5,19.5,20,20,113,2.5
5844,28,141,1,15,0.5,7.3,7.8,136.5,-4.5,2.2
5844,29,25,0,16,1.5,6.6,8.1,256.7,-128.3,1.7
5844,30,240,1,23,0.6,2.3,2.9,247.9,7.9,1.2
6358,1,178,1,13,0.8,9.7,10.5,179.2,1.2,13.2
6358,2,133,0,14,1.1,12.2,13.3,149.5,16.5,3
6358,3,26,1,11,3.1,19.7,22.8,18.4,-7.6,3.5
6358,4,134,0,12,2.4,16.8,19.2,62.3,-71.7,5.1
6358,5,54,1,28,2.2,32.1,34.3,61.9,7.9,3
6358,6,1,0,12,2.9,8.7,11.6,34.5,33.5,3.2
6358,7,71,1,35,2.2,16.4,18.6,58.6,-12.4,2.7
6358,8,312,1,18,3.7,19.7,23.4,301.4,-10.6,6.4
6358,9,116,1,10,3.5,7.6,11.1,111,-5,3.4
6358,10,198,0,13,2.8,14.7,17.5,233.5,35.5,3.8
6358,11,21,0,14,1.6,17.1,18.7,341.8,-39.2,3.7
6358,12,332,1,9,2.5,9,11.5,340.7,8.7,2.8
6358,13,58,1,18,2.8,13.9,16.7,57.7,-0.3,3.4
6358,14,48,1,8,3.4,9.3,12.7,46.3,-1.7,4.5
6358,15,347,0,6,2.4,12.6,15,319.7,-27.3,3.8
6358,16,197,1,24,1.9,15.7,17.6,205.1,8.1,3.2
6358,17,147,0,17,2.8,13.8,16.6,112,-35,4.1
6358,18,103,0,16,2.1,24.5,26.6,70.9,-32.1,3.6
6358,19,49,1,31,4.3,27,31.3,22.3,-26.7,2.8
6358,20,221,0,15,2.4,7.2,9.6,276.7,55.7,2.4
6358,21,18,0,17,1.9,21.9,23.8,353.9,-24.1,2.9
6358,22,259,1,26,1.5,25.7,27.2,243.9,-15.1,2
6358,23,317,1,19,2.3,21.8,24.1,326.3,9.3,2.2
6358,24,41,1,13,2.9,22.6,25.5,39.4,-1.6,14.7
6358,25,177,0,9,4.1,12.2,16.3,159.2,-17.8,3
6358,26,154,0,28,2.9,22.6,25.5,120.3,-33.7,7.2
6358,27,54,1,39,3.6,16,19.6,71.6,17.6,4
6358,28,312,0,22,2.7,16.9,19.6,340,28,3.1
6358,29,16,1,35,2.7,28.1,30.8,24.7,8.7,2.3
6358,30,88,1,11,2.4,10.1,12.5,89.6,1.6,2.4
6360,1,21,0,7,1.2,27.6,28.8,316.3,-64.7,4.1
6360,2,166,0,0,1.8,8.6,10.4,108.4,-57.6,1.7
6360,3,305,0,7,0.8,25.7,26.5,347.4,42.4,2.6
6360,4,143,0,5,1.5,9.5,11,126.4,-16.6,2.6
6360,5,75,1,17,0.7,8.8,9.5,72,-3,2.3
6360,6,175,0,1,2,29,31,168.8,-6.2,2.2
6360,7,268,1,9,2,10.7,12.7,274.8,6.8,1.9
6360,8,214,0,13,1.4,17.9,19.3,264.6,50.6,1.6
6360,9,60,1,11,0.9,7.9,8.8,56.4,-3.6,1.2
6360,10,329,0,5,1.1,10.7,11.8,335.1,6.1,0.8
6360,11,288,1,10,1.6,11.4,13,293.2,5.2,1.6
6360,12,106,0,9,1.7,9.4,11.1,88.4,-17.6,1
6360,13,70,0,11,1,10.5,11.5,43.6,-26.4,2.4
6360,14,217,0,10,1.7,14.9,16.6,176.1,-40.9,2.6
6360,15,291,1,9,1.8,12.3,14.1,289.4,-1.6,2.3
6360,16,247,1,13,0.9,16.8,17.7,246.7,-0.3,2.4
6360,17,151,0,8,0.9,8.3,9.2,139.9,-11.1,2.1
6360,18,216,0,8,1.6,14.1,15.7,190.4,-25.6,2.3
6360,19,131,1,10,1,8.6,9.6,139.6,8.6,1.2
6360,20,281,1,10,1.9,11,12.9,274.4,-6.6,2.8
6360,21,264,0,10,1.3,10.2,11.5,249.8,-14.2,1.8
6360,22,307,1,10,1.6,7.7,9.3,305.8,-1.2,1.1
6360,23,72,0,7,1.8,10.4,12.2,63.6,-8.4,1.5
6360,24,276,1,8,2.2,8.9,11.1,274.8,-1.2,2.8
6360,25,32,1,11,1.6,9.9,11.5,23,-9,1.8
6360,26,310,1,10,1.3,8.7,10,314,4,2
6360,27,212,1,11,2,9.6,11.6,201,-11,3.6
6360,28,186,1,9,1.6,11.4,13,191.7,5.7,3.3
6360,29,282,1,7,2,11.7,13.7,282.5,0.5,1.4
6360,30,339,0,9,1.7,14.5,16.2,329.1,-9.9,1.8
6374,1,92,0,19,2.1,7.9,10,43.1,-48.9,8
6374,2,15,1,17,2.2,7.1,9.3,9.9,-5.1,3.3
6374,3,288,0,14,1.6,6.9,8.5,262,-26,2.9
6374,4,261,0,16,1,10,11,231.9,-29.1,2
6374,5,146,1,28,2,6,8,143.7,-2.3,0.8
6374,6,259,1,16,1.3,6.9,8.2,250.2,-8.8,1.7
6374,7,129,0,26,1.2,15.5,16.7,182.6,53.6,1.1
6374,8,115,1,16,1.4,3.2,4.6,113.4,-1.6,1.9
6374,9,94,1,27,1.2,5.9,7.1,120.8,26.8,1.3
6374,10,20,0,24,1.3,7.3,8.6,45,25,1.8
6374,11,178,1,16,0.6,4.6,5.2,173,-5,2.2
6374,12,250,0,14,1.7,2.2,3.9,232.5,-17.5,1.1
6374,13,224,1,27,0.6,10.5,11.1,200.8,-23.2,1.8
6374,14,345,1,18,1.8,7.9,9.7,347.7,2.7,1.8
6374,15,350,1,25,0.6,7.5,8.1,331.5,-18.5,1.3
6374,16,168,0,15,1.4,12.5,13.9,136.2,-31.8,0.5
6374,17,202,0,16,1.6,8.9,10.5,167.5,-34.5,0.8
6374,18,315,1,22,0.7,9.3,10,299.5,-15.5,1.6
6374,19,99,0,0,0.9,7,7.9,198.4,99.4,2.3
6374,20,194,1,24,1.9,7.5,9.4,177.3,-16.7,2
6374,21,96,0,24,2.4,15.2,17.6,120.9,24.9,1.2
6374,22,109,1,25,0.7,3.5,4.2,90.2,-18.8,1.2
6374,23,141,1,24,1.4,10.6,12,135.7,-5.3,1
6374,24,84,1,17,2,5.7,7.7,67.7,-16.3,1.5
6374,25,164,1,26,1.9,8.4,10.3,172.9,8.9,5.4
6374,26,272,0,0,2,3.4,5.4,149,-123,3.3
6374,27,350,1,28,2.1,5.4,7.5,338.1,-11.9,7.2
6374,28,20,1,29,0.7,9.9,10.6,7.2,-12.8,1.1
6374,29,37,1,21,1.6,6.3,7.9,24.3,-12.7,1.5
6374,30,74,1,23,1.1,1.6,2.7,66.1,-7.9,0.7
7056,1,341,1,18,1.6,3.7,5.3,346.8,5.8,4.3
7056,2,287,0,17,1.1,8.3,9.4,316.6,29.6,1.4
7056,3,143,1,30,1.4,48.2,49.6,116.6,-26.4,1.5
7056,4,8,0,15,1,6.8,7.8,315.9,-52.1,1.8
7056,5,85,0,13,1.4,3,4.4,121.9,36.9,2
7056,6,251,1,29,1.9,6.3,8.2,232,-19,2.1
7056,7,248,1,25,1.5,5.9,7.4,232.4,-15.6,2.2
7056,8,104,0,29,1.4,5.9,7.3,60.8,-43.2,2.1
7056,9,52,0,18,1.4,5.5,6.9,33.7,-18.3,0.9
7056,10,282,1,30,0.6,5.7,6.3,263,-19,0.8
7056,11,4,NaN,NaN,NaN,NaN,NaN,NaN,NaN,NaN
7056,12,239,1,30,1.8,9.3,11.1,240.1,1.1,1.4
7056,13,206,0,13,1.8,3.6,5.4,188,-18,2.1
7056,14,151,0,26,0.6,7.4,8,116.1,-34.9,1.1
7056,15,306,1,15,1.5,8.4,9.9,299,-7,1.9
7056,16,298,0,0,2,34.1,36.1,123.7,-174.3,1.9
7056,17,193,0,11,0.6,7.4,8,177.5,-15.5,1.8
7056,18,173,0,31,1.9,4,5.9,132.2,-40.8,1.2
7056,19,183,0,0,0.9,6.4,7.3,135,-48,1.2
7056,20,277,NaN,NaN,NaN,NaN,NaN,NaN,NaN,NaN
7056,21,52,1,15,0.8,6.5,7.3,54.7,2.7,3.1
7056,22,110,1,26,1.1,5,6.1,88.4,-21.6,1.1
7056,23,35,0,19,1.6,2.6,4.2,355.3,-39.7,1.5
7056,24,310,0,0,1.1,9.5,10.6,270,-40,1.1
7056,25,208,0,7,1.4,6.9,8.3,188.9,-19.1,2.1
7056,26,256,0,28,1.6,4.3,5.9,215.1,-40.9,1.4
7056,27,201,NaN,NaN,NaN,NaN,NaN,NaN,NaN,NaN
7056,28,127,1,25,2.3,4.2,6.5,120.8,-6.2,1.7
7056,29,258,1,25,0.9,4.5,5.4,268.7,10.7,1.8
7056,30,221,0,18,0.9,5.8,6.7,148.2,-72.8,2.1
7434,1,208,1,27,11.1,25.6,36.7,207.1,-0.9,3.5
7434,2,102,0,17,14,35.8,49.8,277.2,175.2,25
7434,3,308,1,13,5.1,7.8,12.9,298.6,-9.4,6.1
7434,4,211,1,5,7.8,2.8,10.6,214.5,3.5,68
7434,5,130,1,10,4.4,9.4,13.8,120.3,-9.7,10.5
7434,6,121,0,15,8.8,23.8,32.6,144.3,23.3,8.1
7434,7,132,1,22,4,19.4,23.4,152.4,20.4,23.6
7434,8,330,0,16,6.2,35.3,41.5,305.2,-24.8,22.7
7434,9,313,1,27,10.2,2.9,13.1,322.1,9.1,6.4
7434,10,27,0,21,5.2,15.6,20.8,51.7,24.7,2.9
7434,11,288,1,31,4.8,8.5,13.3,300.1,12.1,31.1
7434,12,270,1,30,8.7,26.7,35.4,254.7,-15.3,31.4
7434,13,75,1,15,4.8,11.4,16.2,78.4,3.4,5.4
7434,14,289,0,21,2.7,10.6,13.3,262.8,-26.2,18.8
7434,15,296,1,23,6.2,4.6,10.8,297.7,1.7,2.5
7434,16,207,1,11,3.5,9.1,12.6,216.5,9.5,3
7434,17,204,1,17,8.8,6.2,15,187.3,-16.7,45.4
7434,18,17,0,11,3.6,8.5,12.1,353.7,-23.3,15.4
7434,19,50,1,18,2.9,7.4,10.3,50.4,0.4,30
7434,20,166,0,16,3.2,15.4,18.6,138.7,-27.3,3
7434,21,327,1,23,2.8,7.3,10.1,335.8,8.8,2.5
7434,22,198,1,22,1.4,18.4,19.8,210.2,12.2,4.3
7434,23,46,0,23,2.1,13.2,15.3,351.3,-54.7,10.6
7434,24,51,1,31,3.4,26.8,30.2,64.9,13.9,4
7434,25,156,1,25,3.5,25.9,29.4,166,10,5
7434,26,337,1,24,2.4,8.1,10.5,329.4,-7.6,6
7434,27,98,1,38,1.6,12,13.6,72.8,-25.2,2.3
7434,28,5,1,27,1.4,14.6,16,6.6,1.6,7.5
7434,29,285,1,10,1.6,3,4.6,279.8,-5.2,5
7434,30,103,1,31,1.4,19.9,21.3,110.6,7.6,3
7482,1,297,0,24,3.2,15.9,19.1,354.5,57.5,11
7482,2,275,0,35,3.9,7.1,11,211.2,-63.8,0.9
7482,3,218,1,43,4.1,12.1,16.2,207.2,-10.8,0.9
7482,4,165,0,32,3.6,10.8,14.4,326,161,1.2
7482,5,108,1,29,1.9,20.5,22.4,94.3,-13.7,5.4
7482,6,132,1,33,2.7,24,26.7,148.5,16.5,1.2
7482,7,64,1,31,1.7,15.5,17.2,50.1,-13.9,2
7482,8,108,0,21,6,19.7,25.7,72.2,-35.8,1.1
7482,9,122,0,26,3.3,27.3,30.6,82.9,-39.1,0.9
7482,10,217,1,27,3.3,3.7,7,199.6,-17.4,2
7482,11,335,1,39,3,38.5,41.5,355.1,20.1,4.3
7482,12,13,1,31,2.6,14.6,17.2,22.9,9.9,1.9
7482,13,132,0,39,2.5,18.4,20.9,55.4,-76.6,2.1
7482,14,340,0,28,2.1,9,11.1,300.6,-39.4,1.7
7482,15,221,1,28,2.2,18.7,20.9,202.8,-18.2,1.6
7482,16,30,1,36,4.1,12.7,16.8,28.5,-1.5,1.5
7482,17,130,1,36,2.7,9.1,11.8,110.8,-19.2,4.1
7482,18,356,1,30,4.8,8.2,13,358.5,2.5,0.9
7482,19,228,1,23,3.7,9.8,13.5,237.6,9.6,2.4
7482,20,108,1,36,1.6,11.5,13.1,117.9,9.9,4
7482,21,348,1,32,1.8,9.1,10.9,332.9,-15.1,2.1
7482,22,227,1,36,3.4,15,18.4,216.9,-10.1,1.3
7482,23,132,1,38,1.7,12.3,14,110.9,-21.1,1.7
7482,24,110,1,19,1.9,9.6,11.5,102.4,-7.6,4
7482,25,202,1,24,1.4,9.4,10.8,219.8,17.8,1.8
7482,26,215,1,25,2.1,6.8,8.9,218.6,3.6,0.7
7482,27,354,0,27,2.5,21.5,24,38.4,44.4,0.7
7482,28,21,1,24,2.2,6.9,9.1,3.1,-17.9,1.7
7482,29,8,1,23,2.5,6.5,9,1,-7,1.6
7482,30,11,1,27,2,7,9,358.7,-12.3,2.6
7860,1,42,1,24,2.8,12.2,15,65.7,23.7,5.8
7860,2,23,0,40,1.4,16.1,17.5,332.7,-50.3,1.6
7860,3,343,1,38,1.9,10.5,12.4,322.7,-20.3,2.4
7860,4,330,0,47,1.8,10.8,12.6,269.1,-60.9,2.5
7860,5,217,1,47,2.7,10.1,12.8,232.4,15.4,2.3
7860,6,115,1,32,1.2,15.4,16.6,111.8,-3.2,2.4
7860,7,172,1,23,1.9,10.4,12.3,152.7,-19.3,1
7860,8,216,1,24,2.5,5.1,7.6,233.6,17.6,1.8
7860,9,128,0,32,2.5,17.9,20.4,26.1,-101.9,2.4
7860,10,276,1,34,2.6,4.5,7.1,276.6,0.6,1.1
7860,11,131,1,26,1.5,4.5,6,152.4,21.4,0.9
7860,12,223,1,30,1.6,12.3,13.9,209.3,-13.7,3.7
7860,13,268,1,21,2.4,10.7,13.1,281.4,13.4,2.2
7860,14,256,1,18,2.4,4.6,7,241.3,-14.7,2.4
7860,15,316,1,20,2.3,5.6,7.9,308.1,-7.9,1
7860,16,52,1,23,0.7,4.8,5.5,31.3,-20.7,1.1
7860,17,5,0,20,3,9.7,12.7,341.6,-23.4,2.1
7860,18,284,1,15,1.9,5,6.9,282.4,-1.6,2.2
7860,19,102,0,20,1.9,9.6,11.5,79.4,-22.6,1.8
7860,20,162,1,20,0.9,6,6.9,150.9,-11.1,0.9
7860,21,55,1,22,1.9,4.1,6,39.2,-15.8,2
7860,22,263,1,24,2.3,6.9,9.2,244.7,-18.3,2.2
7860,23,69,1,15,2.1,5.3,7.4,80.1,11.1,2.2
7860,24,282,1,17,0.8,9.5,10.3,292.8,10.8,2
7860,25,66,1,21,1.5,6.5,8,56.3,-9.7,0.9
7860,26,49,1,14,1.8,5.2,7,49.3,0.3,2
7860,27,305,0,15,0.8,8.3,9.1,100.6,155.6,1.4
7860,28,236,1,22,1.6,5.6,7.2,225.3,-10.7,1.7
7860,29,52,1,15,2.4,5,7.4,43.7,-8.3,2.4
7860,30,129,1,20,2,8.8,10.8,138.3,9.3,1
7982,1,40,1,17,1.3,8.3,9.6,45.3,5.3,6.4
7982,2,322,0,10,1.9,4.8,6.7,307,-15,2.9
7982,3,288,0,14,2.1,9.1,11.2,250.8,-37.2,3.8
7982,4,261,0,13,2.7,10.1,12.8,241.4,-19.6,3.7
7982,5,344,0,20,1.6,13,14.6,277.7,-66.3,3.4
7982,6,60,1,23,2.9,9.7,12.6,75.9,15.9,1.9
7982,7,16,1,21,3.9,6.8,10.7,11.1,-4.9,3.9
7982,8,73,0,20,2.2,7,9.2,44.1,-28.9,2.1
7982,9,185,0,20,2.7,14.9,17.6,206,21,4.5
7982,10,358,0,26,2.5,4.4,6.9,24.1,26.1,3.1
7982,11,266,1,26,2.3,13.1,15.4,249.5,-16.5,4.2
7982,12,274,0,13,1.3,15.2,16.5,348,74,2.1
7982,13,215,0,17,3.9,7.5,11.4,192.4,-22.6,2.6
7982,14,322,1,20,2,10.3,12.3,321,-1,3.8
7982,15,50,0,9,2.3,6.7,9,33.5,-16.5,2.9
7982,16,350,1,18,2.2,8.6,10.8,332.5,-17.5,1.8
7982,17,283,1,14,0.9,8.3,9.2,286.2,3.2,1.2
7982,18,141,1,15,0.8,7.7,8.5,136.5,-4.5,2.5
7982,19,33,1,20,1.9,7,8.9,21.3,-11.7,1.9
7982,20,145,1,22,0.8,11.1,11.9,151.3,6.3,3.7
7982,21,143,0,17,1.5,6.5,8,164.7,21.7,3.3
7982,22,350,0,16,1.7,12.9,14.6,82.4,92.4,2.1
7982,23,343,1,17,2,8.6,10.6,345.1,2.1,4.2
7982,24,51,1,15,2.9,5.9,8.8,55.2,4.2,1.9
7982,25,53,1,24,1.7,6,7.7,53.8,0.8,1.6
7982,26,32,1,11,1.6,4.4,6,41.8,9.8,3.3
7982,27,300,1,16,0.5,6.7,7.2,299.6,-0.4,2.2
7982,28,214,1,15,1.2,6.6,7.8,199.7,-14.3,2
7982,29,335,0,17,1.7,9.5,11.2,302.8,-32.2,1.7
7982,30,163,0,14,1.8,3.7,5.5,147,-16,1.6
8501,1,272,0,13,2,3.6,5.6,226.2,-45.8,7.1
8501,2,214,0,15,2.1,9.1,11.2,326.4,112.4,1.4
8501,3,241,0,9,1.8,7.2,9,197.4,-43.6,2.2
8501,4,330,0,43,2.2,14.6,16.8,183.6,-146.4,1.4
8501,5,351,1,39,2.3,7.7,10,330.9,-20.1,2.2
8501,6,30,0,29,2,6.7,8.7,323.5,-66.5,1.8
8501,7,56,0,26,1.8,4.9,6.7,94.5,38.5,1.5
8501,8,261,0,36,2,5.1,7.1,71.6,170.6,1.3
8501,9,108,0,28,1.1,5.6,6.7,13.8,-94.2,2.5
8501,10,20,0,35,1.1,5,6.1,66.7,46.7,3
8501,11,72,1,31,2,3.9,5.9,56.7,-15.3,2.6
8501,12,342,1,28,2,3.9,5.9,321.9,-20.1,3
8501,13,203,0,12,1,19.6,20.6,18.4,175.4,2.6
8501,14,197,0,22,1.1,5.9,7,156.2,-40.8,2.6
8501,15,150,0,20,1,4.6,5.6,208.8,58.8,2.4
8501,16,241,1,15,1,3.5,4.5,234,-7,2.6
8501,17,125,1,25,1.9,4.4,6.3,122.1,-2.9,1.7
8501,18,36,1,27,2,4.2,6.2,55.2,19.2,2.4
8501,19,331,1,15,0.9,4.9,5.8,320.8,-10.2,3.9
8501,20,8,1,23,1.9,2.5,4.4,29.7,21.7,2.4
8501,21,334,0,38,1.9,2.9,4.8,286.3,-47.7,2.8
8501,22,70,1,39,0.9,4.8,5.7,57.4,-12.6,1
8501,23,32,1,27,1.7,4.1,5.8,26.2,-5.8,1.5
8501,24,117,0,40,2.3,5.2,7.5,357.7,-119.3,2.3
8501,25,256,1,29,1.8,2.3,4.1,281.8,25.8,1.2
8501,26,200,1,24,1.6,3.3,4.9,195.9,-4.1,1.6
8501,27,181,0,24,0.9,1.9,2.8,290.4,109.4,2
8501,28,336,0,31,1.7,2.3,4,222.5,-113.5,1.9
8501,29,341,1,40,1.8,4.7,6.5,304.4,-36.6,1.8
8501,30,209,1,39,0.7,3.5,4.2,187.8,-21.2,2.1
8686,1,331,1,18,0.8,21.8,22.6,331.2,0.2,21.7
8686,2,348,0,17,1,23.2,24.2,302.4,-45.6,6.6
8686,3,338,0,18,0.9,32.5,33.4,315.6,-22.4,4.1
8686,4,61,0,22,1.5,22.9,24.4,21.1,-39.9,5.4
8686,5,23,1,20,3.8,12,15.8,11.8,-11.2,3.8
8686,6,141,0,17,0.8,28.8,29.6,104.9,-36.1,4
8686,7,172,1,13,3.6,31.2,34.8,171.5,-0.5,6.4
8686,8,104,1,20,2.8,53.9,56.7,115.8,11.8,8.6
8686,9,226,0,12,0.8,25.4,26.2,183.2,-42.8,6.9
8686,10,53,0,15,2.5,31.3,33.8,346.1,-66.9,6.9
8686,11,239,1,21,0.8,36.5,37.3,238.5,-0.5,6.9
8686,12,118,0,16,1,41.2,42.2,9.9,-108.1,11.9
8686,13,88,1,15,1.5,26.7,28.2,90,2,6.4
8686,14,289,0,11,1.1,28.3,29.4,241.8,-47.2,8
8686,15,228,1,17,3.4,30.4,33.8,227.8,-0.2,6.8
8686,16,124,0,19,2.3,23.9,26.2,81.9,-42.1,6.3
8686,17,223,1,13,2.3,35.5,37.8,221.7,-1.3,4.7
8686,18,254,1,20,0.9,44.6,45.5,269.6,15.6,7.1
8686,19,160,1,15,0.8,30.4,31.2,145.1,-14.9,4.3
8686,20,7,1,13,2.1,28.3,30.4,10.8,3.8,6.9
8686,21,253,1,14,1.5,36,37.5,266.6,13.6,4.1
8686,22,194,1,17,0.7,30.8,31.5,209.5,15.5,4.1
8686,23,142,1,15,1.6,44.7,46.3,146.5,4.5,7.4
8686,24,139,0,20,1.5,26.1,27.6,117.6,-21.4,6.8
8686,25,126,0,18,0.6,44.4,45,104,-22,4.1
8686,26,358,0,22,0.7,26.8,27.5,299.8,-58.2,2.6
8686,27,23,1,18,1.6,22,23.6,29.2,6.2,2.9
8686,28,97,1,16,1.1,24.2,25.3,86.3,-10.7,5.8
8686,29,246,0,18,0.6,20.6,21.2,271,25,2
8686,30,331,0,16,0.7,26.5,27.2,301.9,-29.1,2.9
8736,1,350,1,6,1.6,8.7,10.3,346.3,-3.7,6.8
8736,2,271,1,10,1.5,10.2,11.7,270,-1,2.1
8736,3,8,1,8,1.6,9.3,10.9,15.9,7.9,1.3
8736,4,336,0,3,2.1,9.6,11.7,343.8,7.8,2.7
8736,5,344,0,11,1,6,7,332.9,-11.1,3.6
8736,6,251,0,15,1.4,10.7,12.1,212.4,-38.6,2.5
8736,7,261,1,19,1,17.2,18.2,266.6,5.6,2.4
8736,8,303,0,14,0.9,7.2,8.1,286.9,-16.1,2.1
8736,9,355,0,18,0.8,14.4,15.2,79,84,1
8736,10,261,0,18,1.5,24.6,26.1,159.8,-101.2,2.9
8736,11,203,0,18,2,14.9,16.9,166.1,-36.9,1.2
8736,12,288,1,18,0.8,13.1,13.9,295.7,7.7,2.7
8736,13,178,1,24,0.9,11,11.9,173.1,-4.9,2.6
8736,14,130,1,9,1.8,11.2,13,122.9,-7.1,2.4
8736,15,180,0,16,1.6,6.7,8.3,158.5,-21.5,3
8736,16,272,0,20,1.3,13.6,14.9,241.6,-30.4,2.9
8736,17,43,0,12,1.3,6.4,7.7,19.7,-23.3,2.9
8736,18,104,1,18,1,8.1,9.1,105.7,1.7,2.1
8736,19,237,1,20,0.9,16.7,17.6,220.7,-16.3,3.3
8736,20,8,0,25,0.8,8.3,9.1,335,-33,1.5
8736,21,258,0,19,1.8,6.7,8.5,209.5,-48.5,1.7
8736,22,313,1,19,0.9,7,7.9,308.5,-4.5,1.5
8736,23,280,1,13,1.6,18.7,20.3,283.9,3.9,1.3
8736,24,50,1,15,1.6,13.4,15,59.4,9.4,2.3
8736,25,236,1,16,1.7,9,10.7,222.6,-13.4,1.9
8736,26,276,1,16,2.1,11.6,13.7,282.6,6.6,1.9
8736,27,38,1,10,1.5,4.4,5.9,29.1,-8.9,1.5
8736,28,348,1,9,0.8,5.7,6.5,343.3,-4.7,1.7
8736,29,113,1,16,1.5,9.5,11,109.4,-3.6,2.6
8736,30,213,0,16,1.1,10.5,11.6,183.1,-29.9,1.4
9595,1,275,1,13,2.9,8.2,11.1,272.1,-2.9,23.2
9595,2,49,1,8,1.8,12.7,14.5,52.2,3.2,4.3
9595,3,121,1,19,2.4,14.5,16.9,123.7,2.7,2.4
9595,4,123,1,2,2.6,6.2,8.8,122.9,-0.1,3.6
9595,5,147,0,9,1.3,8.4,9.7,92.6,-54.4,2.8
9595,6,138,1,13,3.3,4.8,8.1,150,12,3.3
9595,7,183,1,18,2.7,11.6,14.3,182.8,-0.2,3.3
9595,8,301,1,6,2.9,6.6,9.5,307,6,2
9595,9,304,0,8,2.8,1.6,4.4,288.3,-15.7,2.3
9595,10,136,0,0,2.7,34.4,37.1,26.6,-109.4,2.9
9595,11,170,1,10,1.9,6.5,8.4,180,10,2
9595,12,77,1,20,1.6,22.4,24,81.1,4.1,3.2
9595,13,336,0,15,3.5,9,12.5,288.6,-47.4,2.7
9595,14,261,1,14,1.5,12.5,14,253.3,-7.7,3.2
9595,15,182,1,17,1.9,6.2,8.1,168.4,-13.6,3
9595,16,52,1,24,2.1,10.9,13,35.1,-16.9,2.2
9595,17,180,1,15,2.2,18.5,20.7,176.7,-3.3,2
9595,18,146,1,11,2.6,6.4,9,154,8,2
9595,19,121,1,13,2.7,4.3,7,108.8,-12.2,3.2
9595,20,101,1,11,2.6,5.2,7.8,106.2,5.2,1.8
9595,21,205,1,17,2.2,9.8,12,203.7,-1.3,3.7
9595,22,310,1,9,1.7,11.9,13.6,315.6,5.6,2.6
9595,23,152,1,9,2.1,6,8.1,146,-6,2.8
9595,24,9,0,10,2.2,5.4,7.6,339.8,-29.2,1.8
9595,25,177,1,13,1.4,11.4,12.8,169.4,-7.6,2.9
9595,26,212,1,31,1.8,24.1,25.9,227.9,15.9,3.1
9595,27,262,1,26,2.4,6.7,9.1,236.6,-25.4,3.2
9595,28,292,1,11,2.2,6.5,8.7,296,4,1.4
9595,29,136,1,16,1.3,9.6,10.9,140.7,4.7,3.3
9595,30,152,0,10,1.9,5.7,7.6,123.2,-28.8,1.8
9880,1,25,1,17,1.9,9,10.9,32.3,7.3,8.4
9880,2,33,0,25,1.7,8.6,10.3,355.9,-37.1,2.5
9880,3,44,0,20,3.3,6.6,9.9,17.6,-26.4,2.5
9880,4,340,0,33,2.3,16.9,19.2,33.3,53.3,1.8
9880,5,51,0,27,1.5,6.6,8.1,339.9,-71.1,1.8
9880,6,5,1,47,2.2,7.7,9.9,324.1,-40.9,2.6
9880,7,105,0,1,1.5,9.9,11.4,90,-15,2.3
9880,8,20,0,44,1.6,10.4,12,329.3,-50.7,2.2
9880,9,193,1,9,3.8,8,11.8,193.1,0.1,2
9880,10,49,1,27,1.5,5.6,7.1,29.6,-19.4,2.8
9880,11,112,0,27,1.8,11.9,13.7,83.2,-28.8,3.2
9880,12,256,0,39,2.3,10.4,12.7,299.4,43.4,2.5
9880,13,278,1,36,2.2,13.2,15.4,282.7,4.7,1.5
9880,14,139,0,23,1.4,20.7,22.1,226.8,87.8,2.5
9880,15,334,0,33,2.1,12.2,14.3,290.8,-43.2,2
9880,16,226,1,14,1.8,13.5,15.3,214,-12,1.3
9880,17,317,1,53,1.1,9.8,10.9,325.9,8.9,2.2
9880,18,325,1,28,2,3.3,5.3,309.7,-15.3,2.7
9880,19,297,1,29,1.5,7.7,9.2,288,-9,1
9880,20,13,1,30,1.8,8,9.8,354.1,-18.9,2.7
9880,21,217,1,26,1.3,9.2,10.5,202.1,-14.9,1.8
9880,22,95,1,62,1.9,8.9,10.8,116.5,21.5,1.7
9880,23,260,1,36,1.4,17.8,19.2,264.4,4.4,1.1
9880,24,182,1,18,0.9,8.7,9.6,180,-2,2.3
9880,25,306,1,29,1.8,9.6,11.4,330.3,24.3,1
9880,26,127,1,52,1.7,16.8,18.5,88,-39,1.9
9880,27,135,1,19,1.5,6.5,8,136.1,1.1,1.9
9880,28,313,1,25,1.6,9.7,11.3,331.3,18.3,2
9880,29,157,1,21,1.3,12.6,13.9,173.8,16.8,1.9
9880,30,215,1,20,0.7,7,7.7,212.7,-2.3,2.1
1390,1,286,0,11,1.1,8.2,9.3,302.5,16.5,11.9
1390,2,78,0,20,2.5,10.1,12.6,284.6,-153.4,3
1390,3,2,0,34,2.2,4.8,7,325.9,-36.1,2
1390,4,333,1,24,2.7,10.3,13,323.1,-9.9,1.2
1390,5,303,1,36,3.7,3.8,7.5,293.2,-9.8,3.2
1390,6,305,0,27,1.1,6.4,7.5,347.4,42.4,2.3
1390,7,144,0,23,1.3,5.1,6.4,211.7,67.7,2.9
1390,8,118,1,47,2.1,10.9,13,95.1,-22.9,2
1390,9,321,0,32,1.2,5.9,7.1,205.5,-115.5,1.7
1390,10,238,1,55,1.4,6.5,7.9,227.9,-10.1,2.6
1390,11,157,1,19,2.6,4.6,7.2,140.7,-16.3,1.6
1390,12,301,0,23,2.5,6.4,8.9,269.8,-31.2,3.1
1390,13,273,0,30,1.2,8.2,9.4,309.8,36.8,2.9
1390,14,157,1,26,0.9,5,5.9,150.6,-6.4,2.7
1390,15,276,1,20,2.1,8.9,11,289.5,13.5,1.6
1390,16,95,1,179,1.8,12.1,13.9,143.4,48.4,3
1390,17,29,0,35,1.3,3.5,4.8,82.5,53.5,1.3
1390,18,230,1,29,2.1,3.5,5.6,203.1,-26.9,2.1
1390,19,329,1,22,0.9,3.3,4.2,334.3,5.3,4.4
1390,20,240,0,20,1.8,7.4,9.2,268.6,28.6,1.5
1390,21,24,1,42,1.7,9.9,11.6,36,12,1
1390,22,42,1,19,1.8,5.2,7,45.2,3.2,2
1390,23,309,0,19,0.8,9.7,10.5,7.7,58.7,1.7
1390,24,146,0,29,0.7,6.3,7,112.1,-33.9,1.4
1390,25,207,0,19,2.1,8.9,11,53.6,-153.4,2.5
1390,26,340,0,23,0.8,4.3,5.1,148.2,168.2,1.2
1390,27,325,1,36,0.6,6.5,7.1,340,15,2.9
1390,28,264,1,23,1.8,7,8.8,272,8,1.3
1390,29,31,1,24,1.8,4.5,6.3,8.1,-22.9,2.2
1390,30,70,0,20,0.9,10.2,11.1,49.5,-20.5,2.7
3402,1,105,0,4,5.7,20.5,26.2,112.5,7.5,6.3
3402,2,125,0,5,1.8,18.9,20.7,85,-40,1.9
3402,3,100,0,6,2.4,12.9,15.3,63.8,-36.2,3.1
3402,4,105,0,14,2.4,12.2,14.6,85.4,-19.6,3.7
3402,5,29,0,15,0.9,18.1,19,1.6,-27.4,2.8
3402,6,121,1,22,1.6,11,12.6,110.4,-10.6,3.7
3402,7,158,1,19,1.7,9.4,11.1,162.5,4.5,2.3
3402,8,346,1,28,0.8,18.2,19,326.4,-19.6,1.7
3402,9,121,1,23,1.8,13.8,15.6,108.3,-12.7,1.5
3402,10,95,1,31,0.9,3.7,4.6,65.2,-29.8,1.2
3402,11,192,0,20,0.9,10,10.9,229.4,37.4,2.3
3402,12,146,1,180,2.9,9.1,12,85.9,-60.1,2
3402,13,305,1,23,1,6.7,7.7,300.6,-4.4,5.1
3402,14,257,0,11,0.8,3.4,4.2,273.9,16.9,1.7
3402,15,270,0,25,1.4,5.6,7,242.7,-27.3,1.6
3402,16,352,1,17,3.2,7.1,10.3,343.4,-8.6,2.6
3402,17,265,0,14,2,15.8,17.8,189.5,-75.5,4.4
3402,18,189,0,16,1,10.4,11.4,163.8,-25.2,2.4
3402,19,219,1,18,1.8,7.2,9,222.9,3.9,7.6
3402,20,145,1,14,2.6,7.4,10,137.4,-7.6,3.8
3402,21,326,1,18,1.9,11.4,13.3,327.6,1.6,2.6
3402,22,239,0,19,2,6.1,8.1,269.2,30.2,1.9
3402,23,180,1,22,0.9,7.1,8,191.7,11.7,1.2
3402,24,183,1,13,1.6,13.9,15.5,191.1,8.1,3
3402,25,66,0,14,0.8,14.3,15.1,51,-15,3.3
3402,26,325,1,18,1.5,8.2,9.7,319.1,-5.9,1.4
3402,27,297,1,11,1.6,11.8,13.4,287.9,-9.1,2.3
3402,28,209,1,14,1.1,7.3,8.4,199.6,-9.4,1.7
3402,29,134,0,13,1.8,8.1,9.9,118.7,-15.3,0.8
3402,30,24,0,13,0.6,13.5,14.1,7.5,-16.5,2.1
3310,1,106,1,11,3.4,23.4,26.8,95.2,-10.8,3.8
3310,2,172,0,11,1.7,13.3,15,206.6,34.6,5.2
3310,3,108,0,8,3.4,17.6,21,92.2,-15.8,3.4
3310,4,172,0,15,2.8,14.9,17.7,208.5,36.5,3.9
3310,5,119,1,13,5.2,5.6,10.8,106.3,-12.7,3.5
3310,6,94,1,13,4.9,14.5,19.4,91,-3,3.9
3310,7,32,0,10,2.3,28.6,30.9,45.6,13.6,2.6
3310,8,268,0,10,3.4,9.1,12.5,278.9,10.9,1.6
3310,9,115,0,14,1.1,17.8,18.9,78.1,-36.9,2.9
3310,10,18,1,16,2,6.4,8.4,8.8,-9.2,1.7
3310,11,225,1,22,2.2,6.9,9.1,204.1,-20.9,10
3310,12,282,0,22,2.4,8.9,11.3,321.6,39.6,4
3310,13,285,1,21,2.7,5.8,8.5,288.5,3.5,2.6
3310,14,117,1,16,1.9,8.9,10.8,113.5,-3.5,3.1
3310,15,194,0,13,2.3,6.7,9,177.3,-16.7,2.3
3310,16,340,0,23,2.6,7.5,10.1,305.9,-34.1,2.2
3310,17,343,0,31,1.8,15.5,17.3,227,-116,1.3
3310,18,156,1,24,1.5,17.3,18.8,148,-8,2.1
3310,19,263,0,27,4.3,12.3,16.6,301.3,38.3,3
3310,20,162,1,40,1.6,7.3,8.9,158.6,-3.4,1.9
3310,21,22,1,18,3.6,6.5,10.1,15.4,-6.6,1.5
3310,22,257,0,10,1.1,8,9.1,242.4,-14.6,2.3
3310,23,75,1,19,1,14.1,15.1,67.7,-7.3,1.5
3310,24,187,1,11,1.6,15,16.6,182.7,-4.3,2.1
3310,25,350,1,20,4.2,13,17.2,7.4,17.4,2.2
3310,26,359,1,18,2.1,10.3,12.4,347.9,-11.1,6.1
3310,27,152,0,16,2.6,16.5,19.1,112.1,-39.9,1.6
3310,28,278,1,19,1,11.3,12.3,281.5,3.5,1.8
3310,29,166,1,28,1.5,8.9,10.4,164.8,-1.2,1.5
3310,30,212,1,17,1.6,7.7,9.3,209.3,-2.7,1.3
3769,1,247,1,17,4.5,21.3,25.8,247.8,0.8,8.5
3769,2,109,0,17,2,6.7,8.7,81,-28,2.7
3769,3,306,0,29,2.5,13,15.5,335,29,1.5
3769,4,253,1,180,2.2,20.4,22.6,45,152,1.4
3769,5,55,0,28,2.2,10.5,12.7,7,-48,10.5
3769,6,33,0,28,2.3,9.8,12.1,104,71,0.7
3769,7,57,1,44,3.4,15.5,18.9,34.6,-22.4,1.9
3769,8,308,1,19,2.2,16.5,18.7,311,3,1.7
3769,9,78,1,28,2.2,17.1,19.3,104.6,26.6,2.3
3769,10,353,1,20,2.3,10.3,12.6,359,6,1.7
3769,11,167,1,17,1.9,11.9,13.8,150.6,-16.4,2.4
3769,12,333,0,17,2.6,10.8,13.4,295.4,-37.6,1.2
3769,13,244,1,42,1.8,6.2,8,262,18,2.4
3769,14,234,1,31,2.3,5.1,7.4,247.9,13.9,1.5
3769,15,50,0,11,2.1,11.2,13.3,25.2,-24.8,2
3769,16,204,1,51,3.6,3.6,7.2,185,-19,2.4
3769,17,338,0,7,2,10.7,12.7,4.3,26.3,1.4
3769,18,314,1,27,1.4,16.7,18.1,320.9,6.9,3.7
3769,19,203,0,16,0.9,7.6,8.5,186,-17,1.3
3769,20,91,1,16,2.2,8,10.2,83.8,-7.2,2.6
3769,21,74,0,10,1.6,9.3,10.9,55.7,-18.3,1.7
3769,22,32,1,14,0.9,9.8,10.7,31.8,-0.2,2
3769,23,12,1,13,0.8,7.8,8.6,20.5,8.5,2.5
3769,24,11,1,11,2.4,7.5,9.9,5.3,-5.7,8.1
3769,25,25,1,17,2,12.3,14.3,24.4,-0.6,2.6
3769,26,270,0,13,1.8,9.5,11.3,255.9,-14.1,2.3
3769,27,352,0,18,1,8,9,297.7,-54.3,2.2
3769,28,198,1,180,0.8,11.1,11.9,0,162,2.1
3769,29,343,0,19,1.1,7.1,8.2,321.9,-21.1,2.4
3769,30,101,1,16,1.1,5.2,6.3,90.4,-10.6,1
3803,1,250,1,17,2.2,13.7,15.9,241.8,-8.2,20.3
3803,2,297,1,11,2.2,6.1,8.3,297.9,0.9,2.4
3803,3,33,0,9,2.3,8.3,10.6,20.1,-12.9,2.1
3803,4,143,0,23,2,18.9,20.9,168.7,25.7,2.2
3803,5,149,0,29,2,11.2,13.2,108.5,-40.5,5.6
3803,6,129,1,36,2.6,18.2,20.8,106.5,-22.5,8
3803,7,261,1,19,2.3,6.5,8.8,267.8,6.8,5
3803,8,263,1,24,3.1,16.7,19.8,268.4,5.4,2.5
3803,9,304,1,28,3.4,13.8,17.2,296.3,-7.7,3
3803,10,5,1,17,2,9.6,11.6,351.9,-13.1,2.2
3803,11,229,1,28,1.7,8,9.7,211.1,-17.9,2.5
3803,12,296,1,18,1.6,5.9,7.5,289.1,-6.9,2.3
3803,13,216,1,16,1.6,6.2,7.8,205.6,-10.4,1.8
3803,14,27,1,19,2.7,7.2,9.9,41.1,14.1,2.2
3803,15,327,1,29,1.3,9.2,10.5,330.7,3.7,1.1
3803,16,217,1,20,1.1,7.1,8.2,206.6,-10.4,2.1
3803,17,183,1,20,1.8,5.1,6.9,192.6,9.6,2.4
3803,18,252,1,19,2,7.3,9.3,260.9,8.9,1.3
3803,19,18,1,180,2.2,13.4,15.6,243.4,-134.6,3.4
3803,20,308,1,26,1,5.7,6.7,295.6,-12.4,1.6
3803,21,115,1,19,1.9,6.9,8.8,102.1,-12.9,1.3
3803,22,174,0,19,2.2,8.8,11,154.9,-19.1,5.8
3803,23,90,1,28,2,10.1,12.1,103.1,13.1,1.9
3803,24,44,1,28,2.8,8.6,11.4,54.2,10.2,1.3
3803,25,25,0,19,2,4.7,6.7,354.1,-30.9,1.6
3803,26,232,1,32,2.7,16.8,19.5,211.2,-20.8,20.1
3803,27,116,1,180,1.8,4.2,6,53.1,-62.9,2.8
3803,28,294,0,15,1.9,6,7.9,275.6,-18.4,12.8
3803,29,69,1,26,2.4,7.6,10,52,-17,1.3
3803,30,84,1,24,2,6.3,8.3,66.9,-17.1,2.7
3837,1,160,0,4,1.6,20.1,21.7,153.9,-6.1,7.4
3837,2,14,1,11,1.9,15.1,17,3.6,-10.4,2.5
3837,3,284,0,7,2.2,13.5,15.7,298.7,14.7,27.3
3837,4,9,1,29,0.8,8.1,8.9,12.2,3.2,5.6
3837,5,332,0,4,1.6,10.3,11.9,357.4,25.4,4.4
3837,6,275,0,9,0.8,14.6,15.4,263.5,-11.5,3.8
3837,7,157,1,33,0.5,7.6,8.1,146.8,-10.2,12.5
3837,8,266,1,11,1.4,7.2,8.6,265.9,-0.1,2.8
3837,9,190,0,23,1.3,7.4,8.7,147.3,-42.7,2.4
3837,10,215,0,17,1.4,10.4,11.8,237.9,22.9,3.1
3837,11,136,0,28,1.4,11.3,12.7,106.4,-29.6,1.7
3837,12,33,1,69,1.4,14.4,15.8,21.1,-11.9,2.9
3837,13,149,1,50,2.1,13,15.1,152.9,3.9,16.8
3837,14,294,0,17,3.1,7.8,10.9,312.9,18.9,12.4
3837,15,76,0,11,0.6,6.5,7.1,61,-15,2.3
3837,16,134,1,17,1.6,10.7,12.3,143.1,9.1,5.5
3837,17,2,1,14,1.5,10.2,11.7,10.2,8.2,1.3
3837,18,92,0,6,0.5,6.4,6.9,61.2,-30.8,1.9
3837,19,359,0,0,0.8,6.2,7,13.6,14.6,1.2
3837,20,5,0,0,1.7,7.7,9.4,26.3,21.3,2.4
3837,21,22,1,5,0.5,7.2,7.7,19.3,-2.7,2
3837,22,357,0,4,1.3,5.2,6.5,4.3,7.3,2.7
3837,23,78,1,11,0.5,12.5,13,72,-6,2.1
3837,24,333,1,19,0.7,8.7,9.4,349.5,16.5,5.5
3837,25,51,1,9,0.5,5.2,5.7,46.3,-4.7,2.1
3837,26,324,1,11,1.8,6.1,7.9,321.5,-2.5,3.1
3837,27,51,0,0,1.9,9.1,11,341.9,-69.1,2.3
3837,28,168,1,27,0.4,6.9,7.3,168.5,0.5,27
3837,29,313,0,10,1.6,4.8,6.4,343.4,30.4,1.3
3837,30,219,1,15,1.4,4.6,6,221.7,2.7,2.3
4058,1,291,1,22,2.3,5.3,7.6,279.8,-11.2,3.1
4058,2,104,1,31,1,6.9,7.9,125.5,21.5,2.4
4058,3,53,0,24,1.1,6.7,7.8,82.5,29.5,1.4
4058,4,53,1,34,1.7,5.6,7.3,71.3,18.3,1.4
4058,5,198,1,21,1.2,8.7,9.9,211.6,13.6,1
4058,6,113,0,26,1,7,8,166.5,53.5,0.9
4058,7,311,0,43,3.4,4.6,8,253.2,-57.8,2.7
4058,8,295,0,35,1.1,8.3,9.4,206.4,-88.6,2.3
4058,9,266,1,23,1,7.2,8.2,283.5,17.5,2.1
4058,10,111,0,21,2.1,11.9,14,82,-29,2.1
4058,11,236,1,39,3.4,6.9,10.3,216.4,-19.6,2.3
4058,12,338,1,25,0.7,5.5,6.2,335.6,-2.4,2.4
4058,13,287,1,26,0.6,9.5,10.1,276.9,-10.1,2.3
4058,14,168,0,28,0.5,5.7,6.2,109.2,-58.8,36.5
4058,15,215,1,33,0.6,6,6.6,212,-3,3
4058,16,9,1,24,2.3,6.5,8.8,4.1,-4.9,3.6
4058,17,324,0,28,1.6,9.8,11.4,294.2,-29.8,4.4
4058,18,289,0,16,2.2,3.1,5.3,272.8,-16.2,2.3
4058,19,312,0,31,1.4,6.7,8.1,20.4,68.4,2
4058,20,313,0,18,1.4,2.3,3.7,293.3,-19.7,1.5
4058,21,105,1,20,0.7,6.2,6.9,109.6,4.6,2.1
4058,22,293,1,16,0.6,6.4,7,293.3,0.3,2.7
4058,23,180,0,16,1.3,6,7.3,147.5,-32.5,2.4
4058,24,269,1,25,1.2,5.5,6.7,290.4,21.4,2.7
4058,25,166,1,39,1.6,9.2,10.8,173.1,7.1,2.3
4058,26,354,1,18,1.7,4,5.7,345.5,-8.5,4.1
4058,27,73,1,20,1.5,7.8,9.3,55.8,-17.2,1.9
4058,28,176,1,27,1.5,4.9,6.4,189.4,13.4,2.2
4058,29,278,0,19,1,11.7,12.7,240.5,-37.5,1.5
4058,30,231,0,12,1.1,8.8,9.9,214,-17,1.9
4109,1,335,1,19,3.7,23.8,27.5,326.5,-8.5,3.9
4109,2,257,1,22,4.3,23,27.3,262.8,5.8,3.5
4109,3,220,0,17,3.1,22.2,25.3,182,-38,2.2
4109,4,348,1,17,1.9,9.7,11.6,345.9,-2.1,2.2
4109,5,69,0,23,2.2,13.4,15.6,42.6,-26.4,1.3
4109,6,162,0,17,2.4,12.8,15.2,100.8,-61.2,0.8
4109,7,136,0,27,0.8,13.3,14.1,103.9,-32.1,0.8
4109,8,87,0,23,1.9,8.3,10.2,40.4,-46.6,2
4109,9,119,0,21,1.2,11.5,12.7,75.3,-43.7,0.9
4109,10,198,0,19,1,11.9,12.9,162.9,-35.1,2.4
4109,11,141,1,30,0.7,7.7,8.4,135.3,-5.7,1.8
4109,12,4,1,23,0.7,14.4,15.1,11.5,7.5,2
4109,13,52,0,23,0.9,10.4,11.3,356.2,-55.8,1.4
4109,14,201,1,24,0.9,12.7,13.6,205.9,4.9,1.6
4109,15,236,0,23,0.7,7.6,8.3,260.5,24.5,1.1
4109,16,228,1,22,1,8.1,9.1,219.4,-8.6,1.9
4109,17,321,0,1,0.9,43.8,44.7,135,174,1.7
4109,18,136,0,13,0.9,16.6,17.5,117.8,-18.2,0.8
4109,19,175,0,18,1.6,9.8,11.4,153.2,-21.8,5.2
4109,20,15,1,37,2.1,8.7,10.8,349.2,-25.8,1
4109,21,300,1,23,1.7,12.1,13.8,288.7,-11.3,2.6
4109,22,353,1,20,0.8,10.1,10.9,336.7,-16.3,2.6
4109,23,199,1,31,2.3,6.4,8.7,225,26,0.9
4109,24,180,0,25,2,5.3,7.3,121.2,-58.8,1.8
4109,25,68,0,29,1.7,16.8,18.5,20.4,-47.6,2.3
4109,26,19,1,30,0.6,7.7,8.3,6.8,-12.2,0.8
4109,27,332,1,19,2,4.4,6.4,316.9,-15.1,2
4109,28,43,1,32,1,12.6,13.6,39.8,-3.2,1.2
4109,29,37,1,33,1.1,7.3,8.4,24.5,-12.5,2.5
4109,30,129,0,29,2,2.7,4.7,270,141,1.1
4143,1,215,1,16,2.6,19.3,21.9,206.7,-8.3,3.5
4143,2,156,0,13,2.3,18.7,21,181,25,4.2
4143,3,101,1,14,2.2,10.6,12.8,88,-13,2.5
4143,4,243,0,12,2.6,12.8,15.4,229.5,-13.5,4.2
4143,5,95,1,16,2.5,10.6,13.1,90.9,-4.1,1.5
4143,6,171,0,15,3.1,20,23.1,190.1,19.1,2.5
4143,7,349,0,25,1.8,33.4,35.2,323.8,-25.2,1.4
4143,8,352,0,25,2.3,21.5,23.8,310.5,-41.5,3.2
4143,9,313,1,27,1.4,18.1,19.5,309.5,-3.5,3.7
4143,10,65,1,30,1.9,30.8,32.7,64.1,-0.9,2
4143,11,206,0,16,2.4,16.1,18.5,178.5,-27.5,2.7
4143,12,108,1,17,1.1,9.6,10.7,106.8,-1.2,1.5
4143,13,124,0,22,2,29.1,31.1,90.2,-33.8,3.4
4143,14,322,0,20,1,22.4,23.4,297.9,-24.1,2.8
4143,15,128,1,18,2.2,17.8,20,115.7,-12.3,3.1
4143,16,199,1,19,2.3,31.5,33.8,199.5,0.5,2.7
4143,17,354,0,17,3,12.4,15.4,84.9,90.9,5.8
4143,18,72,1,17,1.2,15.2,16.4,59.6,-12.4,3.2
4143,19,212,1,12,1.1,13.8,14.9,205.7,-6.3,3.9
4143,20,343,1,17,1.7,17.1,18.8,336.3,-6.7,3.2
4143,21,18,1,16,1.3,12.9,14.2,12.9,-5.1,3
4143,22,40,0,11,1.9,13.2,15.1,20.7,-19.3,3.3
4143,23,160,1,179,3.6,18.3,21.9,116.6,-43.4,1.5
4143,24,79,1,17,2.1,11.8,13.9,65.6,-13.4,4.9
4143,25,284,0,21,2.3,13.3,15.6,248,-36,3.1
4143,26,16,1,15,2.2,14.1,16.3,1.6,-14.4,2.4
4143,27,297,0,17,1.7,12.4,14.1,276.1,-20.9,2.2
4143,28,93,1,27,1.8,17,18.8,77.3,-15.7,2.6
4143,29,211,1,18,2.1,12.1,14.2,219.2,8.2,1.6
4143,30,150,1,13,1.2,24.6,25.8,162,12,2.9
4381,1,51,0,7,2.4,12,14.4,88.1,37.1,6.5
4381,2,346,0,9,4.5,12.8,17.3,235,-111,2.2
4381,3,295,0,7,2.9,9.4,12.3,320,25,2.2
4381,4,237,0,0,3.1,5.3,8.4,175.2,-61.8,3.3
4381,5,195,0,17,1.9,14.2,16.1,309.8,114.8,2.2
4381,6,132,0,6,3.3,6.8,10.1,235.4,103.4,0.8
4381,7,89,0,10,0.8,16.4,17.2,62.2,-26.8,0.8
4381,8,1,0,10,1.5,12,13.5,335.8,-25.2,2.3
4381,9,79,0,9,2.7,13.7,16.4,296.6,-142.4,1.8
4381,10,169,0,15,2.2,12.3,14.5,190.4,21.4,0.9
4381,11,136,0,9,1.2,8.6,9.8,156.3,20.3,2.1
4381,12,253,1,17,1.7,10.1,11.8,250.2,-2.8,1
4381,13,255,0,15,0.9,10.4,11.3,230.8,-24.2,2.8
4381,14,126,0,13,1.4,10.3,11.7,79.4,-46.6,5.4
4381,15,157,0,15,1.1,9.7,10.8,196.5,39.5,1.4
4381,16,230,1,15,2,9.2,11.2,236.6,6.6,1.7
4381,17,183,1,11,1.9,7,8.9,180.4,-2.6,6.8
4381,18,128,0,18,3.1,12.8,15.9,83.8,-44.2,4.5
4381,19,38,1,23,4.3,11.9,16.2,27.5,-10.5,4.4
4381,20,161,0,20,0.7,6.5,7.2,200.6,39.6,3.7
4381,21,340,0,18,0.8,9.4,10.2,315.7,-24.3,0.9
4381,22,36,0,21,0.5,9.4,9.9,335.4,-60.6,2.2
4381,23,202,1,14,1.5,7.6,9.1,208,6,5.2
4381,24,174,0,15,0.5,7.8,8.3,139.7,-34.3,2.1
4381,25,239,1,16,0.6,12.6,13.2,231.8,-7.2,6
4381,26,107,0,21,0.4,10.2,10.6,78.1,-28.9,0.9
4381,27,216,0,17,0.5,9.4,9.9,250.4,34.4,1.1
4381,28,223,1,14,1.4,12.4,13.8,224,1,0.8
4381,29,73,1,12,1.7,11.4,13.1,73.4,0.4,4.9
4381,30,234,1,10,0.6,8.3,8.9,229.9,-4.1,4.9
4415,1,161,0,10,2.2,12.7,14.9,139.3,-21.7,7.6
4415,2,276,1,16,2,31.4,33.4,269.8,-6.2,5.8
4415,3,259,0,17,2.2,10.6,12.8,276,17,4.6
4415,4,178,0,14,1.8,13.1,14.9,237.3,59.3,7.4
4415,5,61,0,19,1.1,21.7,22.8,82.9,21.9,6.1
4415,6,57,0,20,1.2,14.1,15.3,355.3,-61.7,48.1
4415,7,216,0,23,5.6,9.9,15.5,136.4,-79.6,17.4
4415,8,148,1,21,1.1,32.6,33.7,154,6,10
4415,9,7,0,13,1.5,13.1,14.6,281.2,-85.8,4.8
4415,10,31,1,18,1.1,37.2,38.3,43,12,6.8
4415,11,63,1,17,0.7,15.1,15.8,50.2,-12.8,24.3
4415,12,43,0,17,0.6,32.5,33.1,136.5,93.5,5.7
4415,13,290,1,21,1.2,14.6,15.8,285.6,-4.4,7.8
4415,14,183,0,25,1.8,16.5,18.3,223.3,40.3,3.7
4415,15,167,0,25,1.6,7.8,9.4,192.2,25.2,6.4
4415,16,105,0,46,0.6,24.4,25,171.3,66.3,8.8
4415,17,242,0,24,1.5,12.6,14.1,165.4,-76.6,6
4415,18,14,0,25,0.7,18.1,18.8,42.5,28.5,7.6
4415,19,328,1,27,0.8,8.8,9.6,323.9,-4.1,9.4
4415,20,64,0,22,1.6,9,10.6,28.9,-35.1,6.7
4415,21,266,0,18,1.5,14.3,15.8,205.3,-60.7,3.7
4415,22,194,0,22,1.6,7.5,9.1,107,-87,6.1
4415,23,81,1,29,1.6,13.4,15,62.5,-18.5,12.2
4415,24,318,0,22,2.3,9.8,12.1,340.2,22.2,4.7
4415,25,57,1,21,1.4,9,10.4,47.7,-9.3,8.3
4415,26,290,0,18,0.8,13.8,14.6,263.8,-26.2,4.7
4415,27,155,1,22,1.4,7.2,8.6,156.2,1.2,4.1
4415,28,111,1,15,1.5,7.9,9.4,113.7,2.7,4.6
4415,29,213,0,22,1.7,7.8,9.5,160.6,-52.4,6.3
4415,30,302,0,13,0.5,13.6,14.1,267.8,-34.2,4.7
4806,1,212,1,22,3,18.1,21.1,205.3,-6.7,3.1
4806,2,348,1,24,2.4,9.1,11.5,336.5,-11.5,5.2
4806,3,238,1,19,3.3,10.3,13.6,236.6,-1.4,2
4806,4,111,1,27,3.2,11.5,14.7,112.4,1.4,2.6
4806,5,60,0,15,2,2.4,4.4,93.8,33.8,2.6
4806,6,75,1,17,1.9,14.3,16.2,63,-12,1.6
4806,7,248,0,13,2.6,6.7,9.3,219.7,-28.3,4.3
4806,8,91,NaN,NaN,NaN,NaN,NaN,NaN,NaN,NaN
4806,9,241,0,22,1.3,6,7.3,210.9,-30.1,2.8
4806,10,202,1,26,2.4,6.8,9.2,188.7,-13.3,2.6
4806,11,260,0,8,2.5,6.5,9,206.7,-53.3,2
4806,12,153,1,27,1.1,8.9,10,164.3,11.3,2.2
4806,13,126,1,24,2.3,5.5,7.8,116.9,-9.1,1.4
4806,14,246,0,31,2,14.4,16.4,282,36,2.1
4806,15,336,1,21,1,6.3,7.3,321.8,-14.2,2.7
4806,16,205,1,27,1.2,7.3,8.5,202.7,-2.3,2.4
4806,17,18,1,31,2.6,7.7,10.3,0.2,-17.8,3.1
4806,18,174,1,20,1,8.2,9.2,163.1,-10.9,2.5
4806,19,167,1,15,3.2,8,11.2,165,-2,2.3
4806,20,344,1,21,1.2,11.2,12.4,342.4,-1.6,1.1
4806,21,313,1,19,1.1,9.1,10.2,314.2,1.2,1.4
4806,22,93,1,27,2.2,17.3,19.5,87.9,-5.1,1.7
4806,23,309,1,12,1.7,6.9,8.6,302.6,-6.4,1.7
4806,24,96,0,4,1,7.4,8.4,113.7,17.7,2.9
4806,25,204,,,,,,,,
4806,26,53,0,25,2.9,13.2,16.1,22.2,-30.8,1.3
4806,27,203,0,21,2,12.8,14.8,321.9,118.9,3.4
4806,28,148,1,16,1.9,5.7,7.6,153.5,5.5,2.4
4806,29,95,1,19,1.3,5.9,7.2,76.1,-18.9,1.6
4806,30,84,0,14,1.9,3.6,5.5,66.8,-17.2,1.6
4840,1,191,0,20,4.8,16.9,21.7,163.3,-27.7,4
4840,2,355,1,22,2.7,23.7,26.4,7.5,12.5,1.7
4840,3,224,0,26,4.4,14.5,18.9,305.6,81.6,1.4
4840,4,54,1,20,4.5,16,20.5,43.9,-10.1,4.1
4840,5,315,1,20,2.6,13.1,15.7,304.3,-10.7,2.6
4840,6,262,1,16,3.1,12.6,15.7,253.7,-8.3,1.9
4840,7,156,0,14,2.4,13.1,15.5,170.4,14.4,2.9
4840,8,281,0,22,2.8,11.5,14.3,213.4,-67.6,3.1
4840,9,157,1,22,2.7,8.4,11.1,170,13,2.9
4840,10,51,1,19,2.2,13.2,15.4,56,5,1.8
4840,11,293,1,15,3.3,6,9.3,307.8,14.8,2.6
4840,12,76,1,25,2.4,6.7,9.1,53.5,-22.5,1.3
4840,13,138,0,19,3.8,9.7,13.5,247.8,109.8,3.2
4840,14,54,0,25,1.9,13.2,15.1,9.4,-44.6,2.6
4840,15,119,0,26,2,3.9,5.9,59.4,-59.6,2.3
4840,16,188,0,25,2.6,9.2,11.8,335.9,147.9,3.1
4840,17,136,0,27,1.5,7.9,9.4,103.8,-32.2,2.4
4840,18,306,0,30,1,19.4,20.4,266,-40,1.2
4840,19,109,0,27,1.2,8.3,9.5,56.1,-52.9,2.2
4840,20,48,1,23,2.4,4.9,7.3,59.1,11.1,1.4
4840,21,269,0,23,0.8,7.3,8.1,318.7,49.7,1.8
4840,22,52,1,20,2,3.8,5.8,57,5,2.3
4840,23,110,1,24,0.5,8.9,9.4,107.4,-2.6,4
4840,24,154,1,13,1.5,12,13.5,149.7,-4.3,2.6
4840,25,20,1,22,2,10.6,12.6,20.3,0.3,3.3
4840,26,63,1,16,1.5,6,7.5,65.6,2.6,2.3
4840,27,51,0,14,1,4.1,5.1,105.6,54.6,3.3
4840,28,8,0,24,2.8,7.9,10.7,325.1,-42.9,2.1
4840,29,320,1,15,1.9,5.6,7.5,313.1,-6.9,3.1
4840,30,148,1,11,0.8,7.8,8.6,141.6,-6.4,1.6
4908,1,154,0,11,1.3,10.8,12.1,142.8,-11.2,3.5
4908,2,301,0,13,1.5,9.4,10.9,282.6,-18.4,3.1
4908,3,356,0,4,1.4,11.8,13.2,116.8,120.8,1.8
4908,4,289,0,9,2.1,4,6.1,273.2,-15.8,4
4908,5,31,0,9,2.3,5.8,8.1,15.6,-15.4,2.2
4908,6,35,0,19,0.9,8,8.9,84.4,49.4,2.5
4908,7,276,1,17,2.1,6.9,9,280.8,4.8,2.8
4908,8,27,0,19,0.5,8.6,9.1,352.4,-34.6,2
4908,9,108,1,17,1.6,5.3,6.9,113.1,5.1,2.5
4908,10,241,NaN,NaN,NaN,NaN,NaN,NaN,NaN,NaN
4908,11,327,1,17,0.8,5.7,6.5,312.7,-14.3,1
4908,12,95,1,20,1.2,8.9,10.1,107.1,12.1,2.7
4908,13,46,1,16,1.6,5.6,7.2,39.4,-6.6,2.1
4908,14,130,1,17,0.6,5.5,6.1,133.6,3.6,1.6
4908,15,102,0,12,2.6,3.8,6.4,89.8,-12.2,2.2
4908,16,125,0,14,1.5,7,8.5,85.6,-39.4,3.5
4908,17,204,1,22,0.8,5.7,6.5,187.7,-16.3,1.1
4908,18,183,1,21,1.3,7.2,8.5,186.1,3.1,1.7
4908,19,183,0,17,0.9,4.9,5.8,146.1,-36.9,2.2
4908,20,317,1,14,0.8,4.9,5.7,311.6,-5.4,2.3
4908,21,182,0,18,0.8,2.5,3.3,141.6,-40.4,1.8
4908,22,194,0,19,1.7,1.4,3.1,164.3,-29.7,0.8
4908,23,298,0,13,2.3,4.4,6.7,284.9,-13.1,0.9
4908,24,101,1,20,0.8,6,6.8,90.8,-10.2,2.7
4908,25,97,1,15,0.7,4.3,5,88.2,-8.8,6.7
4908,26,100,0,10,0.2,8.1,8.3,86.6,-13.4,3.1
4908,27,289,1,20,0.6,3,3.6,308.8,19.8,2.3
4908,28,115,0,17,1.5,3.8,5.3,97,-18,2.1
4908,29,114,NaN,NaN,NaN,NaN,NaN,NaN,NaN,NaN
4908,30,232,0,10,3.1,2.6,5.7,332.7,100.7,0.6
5061,1,39,0,27,2.4,12,14.4,357,-42,3.2
5061,2,270,1,30,2.7,22.7,25.4,268.6,-1.4,2.9
5061,3,251,1,14,2.1,13.3,15.4,250.4,-0.6,3.7
5061,4,316,1,8,1.4,9.7,11.1,320.2,4.2,2.6
5061,5,167,0,6,1.9,7.9,9.8,274,107,1.4
5061,6,359,1,21,1.2,13.1,14.3,16.9,17.9,1.1
5061,7,175,1,13,1.3,10.4,11.7,162.6,-12.4,1.9
5061,8,73,1,5,2.5,9.7,12.2,74.2,1.2,2.3
5061,9,245,1,8,3,8.2,11.2,245.3,0.3,1.1
5061,10,291,0,6,1.3,12.9,14.2,277.2,-13.8,2.7
5061,11,7,1,12,1.8,10.5,12.3,1,-6,2.8
5061,12,298,0,3,1.5,10,11.5,283.4,-14.6,2.1
5061,13,62,0,13,7.1,32.3,39.4,77.9,15.9,13
5061,14,356,0,4,2.9,5.7,8.6,351.7,-4.3,99.8
5061,15,243,0,26,2,6.9,8.9,276.9,33.9,2.5
5061,16,215,0,8,2.2,12.1,14.3,204.7,-10.3,1.9
5061,17,232,1,18,1.8,10.1,11.9,220.6,-11.4,2.2
5061,18,134,1,33,2.4,9.7,12.1,129.1,-4.9,3.5
5061,19,257,0,12,1.2,11,12.2,242.6,-14.4,1.5
5061,20,73,1,10,3.1,9.7,12.8,79.9,6.9,1
5061,21,53,0,17,1.8,8.7,10.5,28.1,-24.9,1.9
5061,22,77,1,16,2.1,12,14.1,78.3,1.3,2.7
5061,23,31,0,14,2.7,8,10.7,46,15,1.8
5061,24,232,0,13,0.7,7.8,8.5,199.6,-32.4,20.3
5061,25,84,1,14,1.1,7.8,8.9,71,-13,3.7
5061,26,10,1,14,1.7,6.1,7.8,15.9,5.9,2.3
5061,27,34,0,13,1.9,12.6,14.5,15,-19,2.9
5061,28,192,,,,,,,,
5061,29,229,1,15,2,5.2,7.2,223,-6,1.8
5061,30,13,1,19,1.4,2.7,4.1,7.8,-5.2,0.8
5078,1,129,NaN,NaN,NaN,NaN,NaN,NaN,NaN,NaN
5078,2,289,1,16,1.9,21.5,23.4,281.7,-7.3,10
5078,3,49,0,18,1.6,28.5,30.1,11.3,-37.7,3.5
5078,4,229,0,12,1,20.3,21.3,208.3,-20.7,4.1
5078,5,58,1,16,1.4,12.2,13.6,49.5,-8.5,2.7
5078,6,34,1,30,2.6,12.7,15.3,33.9,-0.1,3.4
5078,7,207,0,179,1.3,19.9,21.2,26.6,179.6,2.9
5078,8,202,1,180,4.7,9.8,14.5,213.7,11.7,1.1
5078,9,160,1,16,2.1,11.4,13.5,154.7,-5.3,6.2
5078,10,346,0,11,1.6,10.2,11.8,5.7,19.7,4.3
5078,11,294,1,16,1.7,12.6,14.3,301.7,7.7,3
5078,12,267,1,17,12.1,16.7,28.8,276.7,9.7,3.3
5078,13,10,0,15,3.6,11.8,15.4,346.4,-23.6,2.3
5078,14,34,0,5,7.7,-1,6.7,13.4,-20.6,2.1
5078,15,40,1,11,2.2,6.8,9,42.8,2.8,3.5
5078,16,123,1,17,3.2,15.6,18.8,129.5,6.5,2.2
5078,17,289,0,14,1.1,10.7,11.8,272.3,-16.7,3.1
5078,18,150,1,22,1,12,13,148,-2,3.2
5078,19,63,0,8,1.4,49.9,51.3,18.8,-44.2,5.3
5078,20,60,1,12,6.5,12,18.5,56.3,-3.7,25.6
5078,21,20,0,15,1.7,10.2,11.9,354.8,-25.2,3.2
5078,22,20,0,0,2,5.8,7.8,1.6,-18.4,4.2
5078,23,105,0,16,1.2,9.7,10.9,73,-32,2.4
5078,24,15,1,20,1.7,8.1,9.8,27.7,12.7,2.3
5078,25,150,1,20,2.9,7.1,10,145.3,-4.7,6.8
5078,26,154,1,16,2.2,5.9,8.1,139.8,-14.2,3.1
5078,27,150,1,5,1.9,5.5,7.4,145.4,-4.6,6.3
5078,28,312,1,12,1.7,6.2,7.9,320.9,8.9,6.7
5078,29,329,0,9,0.9,5.8,6.7,301.8,-27.2,2.3
5078,30,254,0,29,2,6.9,8.9,68.8,174.8,1.3
6839,1,341,NaN,NaN,NaN,NaN,NaN,NaN,NaN,NaN
6839,2,172,NaN,NaN,NaN,NaN,NaN,NaN,NaN,NaN
6839,3,79,1,18,3.3,78.5,81.8,96.4,17.4,4.7
6839,4,342,0,17,8.9,3.6,12.5,319.4,-22.6,1.9
6839,5,159,0,25,3.2,11.4,14.6,117.3,-41.7,1.6
6839,6,47,1,168,2.5,19.1,21.6,303.7,-103.3,2.3
6839,7,184,1,17,5.1,2.2,7.3,183.7,-0.3,4.5
6839,8,290,0,6,2.4,10.9,13.3,314.7,24.7,2.7
6839,9,242,0,27,1.8,12.5,14.3,201.5,-40.5,2.6
6839,10,215,1,26,4.6,6.1,10.7,189.4,-25.6,2.4
6839,11,254,0,29,2.3,5.7,8,159.4,-94.6,3.3
6839,12,334,0,30,1.4,11,12.4,235.2,-98.8,2.5
6839,13,190,0,28,2.2,10.8,13,100.1,-89.9,2.7
6839,14,352,1,17,1.2,11.1,12.3,6.8,14.8,3.2
6839,15,332,1,30,2.3,12.3,14.6,323,-9,3.4
6839,16,142,1,17,2.7,16,18.7,138.8,-3.2,2.5
6839,17,178,1,5,1.6,8.8,10.4,175.3,-2.7,4.3
6839,18,205,0,6,2,3.8,5.8,188.5,-16.5,1.6
6839,19,153,0,15,5,11.4,16.4,115.3,-37.7,2.1
6839,20,144,1,17,1.3,16.9,18.2,127.9,-16.1,2.4
6839,21,158,0,16,2.5,7.7,10.2,124.5,-33.5,2.3
6839,22,86,1,20,3.2,7.4,10.6,84.9,-1.1,2.7
6839,23,66,0,29,3.2,7.5,10.7,108.6,42.6,2.6
6839,24,114,1,17,0.7,7.7,8.4,113.6,-0.4,1.3
6839,25,123,0,19,0.8,12.8,13.6,101.9,-21.1,5.4
6839,26,145,1,43,1.7,6.2,7.9,133.8,-11.2,2.5
6839,27,12,0,25,1.5,16.9,18.4,339.9,-32.1,6.7
6839,28,16,0,18,1.4,12.3,13.7,331.9,-44.1,0.5
6839,29,339,0,19,1,16.3,17.3,226.8,-112.2,1.3
6839,30,81,1,20,2.2,10.8,13,61.6,-19.4,2.4
6858,1,342,0,30,3.6,9.1,12.7,222.2,-119.8,3.1
6858,2,74,1,44,3.4,9.1,12.5,32.3,-41.7,3
6858,3,220,1,40,1.6,5.8,7.4,201.8,-18.2,2.8
6858,4,145,1,30,0,12.4,12.4,151.3,6.3,3.1
6858,5,79,1,27,2,11.5,13.5,61.3,-17.7,1.3
6858,6,137,1,42,2.7,14.5,17.2,117.4,-19.6,2.2
6858,7,352,1,37,0.9,14.6,15.5,3.7,11.7,4
6858,8,78,1,40,2.1,14.8,16.9,49.6,-28.4,2.5
6858,9,140,0,24,1.8,5.8,7.6,180.6,40.6,1.2
6858,10,64,1,36,1.7,12.4,14.1,67.5,3.5,0.9
6858,11,327,1,41,4.1,5.9,10,294.4,-32.6,7.9
6858,12,195,0,31,1.8,11.2,13,121.1,-73.9,2.6
6858,13,47,0,48,2.2,5.7,7.9,326.5,-80.5,2.2
6858,14,353,1,46,1.9,3.5,5.4,1.2,8.2,4
6858,15,356,1,39,2.4,5.2,7.6,338.2,-17.8,3.4
6858,16,276,1,31,1.7,5.6,7.3,290.6,14.6,1.5
6858,17,357,1,36,3,8.9,11.9,23.1,26.1,5.6
6858,18,147,0,23,1.2,9,10.2,49.8,-97.2,1.2
6858,19,291,1,59,1.7,11.7,13.4,318,27,2.9
6858,20,220,1,44,1.9,6.2,8.1,241.9,21.9,2.8
6858,21,348,1,49,0.6,9.3,9.9,24.5,36.5,2.8
6858,22,50,1,27,2.2,5.3,7.5,35.5,-14.5,4
6858,23,93,1,53,2,6.4,8.4,128.3,35.3,1.3
6858,24,255,1,57,0.7,8.8,9.5,260.7,5.7,3
6858,25,53,1,49,0.6,9.3,9.9,55.6,2.6,1.8
6858,26,4,0,16,2.3,5.2,7.5,333.4,-30.6,2.5
6858,27,327,0,11,1,11.5,12.5,342.9,15.9,3.2
6858,28,50,0,27,1.3,6.5,7.8,82,32,3.4
6858,29,37,1,31,1,7.4,8.4,49.8,12.8,2.2
6858,30,273,1,43,1.2,8.3,9.5,304.5,31.5,2.2
7124,1,56,1,23,3.7,7.5,11.2,67.2,11.2,4.3
7124,2,95,1,21,4.5,8.1,12.6,78.1,-16.9,2.9
7124,3,199,1,15,3.8,10.5,14.3,199.1,0.1,1.8
7124,4,65,0,27,2.5,13.2,15.7,31.6,-33.4,1.8
7124,5,191,1,22,1.7,9,10.7,186.3,-4.7,3.5
7124,6,107,1,23,1.4,10.9,12.3,98.1,-8.9,3.1
7124,7,152,NaN,NaN,NaN,NaN,NaN,NaN,NaN,NaN
7124,8,103,1,22,2.4,8.6,11,98.6,-4.4,3.1
7124,9,123,1,28,3.4,21.3,24.7,149.5,26.5,2.6
7124,10,2,1,23,2.1,10.5,12.6,6.2,4.2,1.5
7124,11,325,0,17,1.7,9.1,10.8,36.4,71.4,1.2
7124,12,134,1,26,3.3,20.5,23.8,157.9,23.9,2.3
7124,13,83,0,28,4,13.4,17.4,158.3,75.3,1
7124,14,159,0,9,3.1,1.5,4.6,133.6,-25.4,7.3
7124,15,287,1,23,2.6,4.9,7.5,286.2,-0.8,1.3
7124,16,104,1,24,1.9,4.7,6.6,87.5,-16.5,5.5
7124,17,230,0,13,2.6,5.1,7.7,214.9,-15.1,1.9
7124,18,322,0,26,4.5,5.4,9.9,293.1,-28.9,1.3
7124,19,147,0,27,2,9.1,11.1,102.7,-44.3,2.1
7124,20,7,0,25,1.1,9,10.1,36.1,29.1,2
7124,21,219,1,27,1.9,8.7,10.6,198.9,-20.1,1.7
7124,22,145,1,35,0.5,9.5,10,136.1,-8.9,1.3
7124,23,335,1,20,2.2,12.2,14.4,330.4,-4.6,2.2
7124,24,102,1,27,1.8,13.6,15.4,92.2,-9.8,1.3
7124,25,8,1,20,3,3.9,6.9,24.5,16.5,1.2
7124,26,209,0,8,1.5,14.8,16.3,191,-18,1.3
7124,27,26,1,16,2.7,1.8,4.5,22.3,-3.7,2.6
7124,28,204,0,18,3.7,3.3,7,170.7,-33.3,3.6
7124,29,173,1,20,2.4,5.5,7.9,173.6,0.6,1.5
7124,30,328,0,14,2.2,9.6,11.8,300.9,-27.1,1.9
7143,1,352,0,39,5.2,14.6,19.8,312.4,-39.6,2.5
7143,2,272,0,26,2.8,16,18.8,242.1,-29.9,2.9
7143,3,332,1,31,3,12.6,15.6,315.7,-16.3,2.8
7143,4,121,1,49,1.6,20.9,22.5,124.2,3.2,2.7
7143,5,226,NaN,NaN,NaN,NaN,NaN,NaN,NaN,NaN
7143,6,41,1,28,1.7,17.8,19.5,36.5,-4.5,1.2
7143,7,166,1,23,1.5,8.5,10,154.3,-11.7,1.8
7143,8,74,1,45,1.5,16,17.5,65.2,-8.8,3.1
7143,9,351,1,22,2.4,18.2,20.6,330,-21,2.4
7143,10,55,1,32,1.3,29,30.3,62.9,7.9,3.6
7143,11,120,1,16,2.3,7.7,10,113.8,-6.2,3.2
7143,12,140,1,13,1.6,14.2,15.8,150.7,10.7,2.2
7143,13,318,1,16,1.9,12.5,14.4,312.2,-5.8,3.1
7143,14,4,1,16,2.3,8.9,11.2,350,-14,1.6
7143,15,206,0,13,1.6,13.8,15.4,185.5,-20.5,3.3
7143,16,219,1,19,1.9,17.2,19.1,224.4,5.4,2.2
7143,17,227,1,20,1.4,16.3,17.7,228.3,1.3,3.6
7143,18,210,0,5,3.8,7.4,11.2,200.4,-9.6,2.7
7143,19,193,1,21,2.1,8.3,10.4,188.6,-4.4,2.4
7143,20,100,0,12,2.4,11.2,13.6,82.2,-17.8,2.1
7143,21,87,1,24,2,18.1,20.1,69.1,-17.9,3.6
7143,22,330,0,24,1.8,12.1,13.9,300.9,-29.1,2.6
7143,23,159,0,28,2.1,15.3,17.4,124.8,-34.2,1.3
7143,24,158,1,19,2.8,14,16.8,158.7,0.7,2
7143,25,154,1,40,3.1,15.5,18.6,138.1,-15.9,2.5
7143,26,183,0,30,2.1,15.1,17.2,139,-44,5.3
7143,27,169,1,28,2,12.5,14.5,178.7,9.7,3
7143,28,192,1,26,1.9,16,17.9,197.4,5.4,5.6
7143,29,295,1,23,1.9,12.9,14.8,294.9,-0.1,2.9
7143,30,344,1,22,1.1,12.3,13.4,345.7,1.7,3.6
7409,1,139,0,18,2.3,5,7.3,209.1,70.1,3
7409,2,85,0,15,1,9.2,10.2,122.2,37.2,4.9
7409,3,251,0,30,1.2,22.8,24,218.2,-32.8,1.1
7409,4,18,0,26,2.2,11,13.2,186.2,168.2,1.1
7409,5,150,1,37,1.9,11.8,13.7,132.5,-17.5,4.1
7409,6,16,0,54,1.8,12.2,14,318.3,-57.7,4.5
7409,7,336,0,19,2.1,8.3,10.4,290.6,-45.4,0.9
7409,8,168,1,25,0.8,12,12.8,163.7,-4.3,1.9
7409,9,306,1,17,2.1,7.3,9.4,304,-2,1.3
7409,10,205,1,25,0.8,16.5,17.3,216.5,11.5,1
7409,11,60,1,30,1.6,11.9,13.5,71,11,1.4
7409,12,243,1,33,1.8,5.6,7.4,254.2,11.2,1.9
7409,13,169,0,23,0.7,11.9,12.6,105.7,-63.3,1.9
7409,14,278,1,17,1.6,9.5,11.1,278.3,0.3,1.2
7409,15,279,1,18,1,11.3,12.3,295.8,16.8,2.3
7409,16,191,0,21,2.4,8.1,10.5,261.6,70.6,1.9
7409,17,202,1,12,1.9,5.4,7.3,211.8,9.8,1.2
7409,18,241,1,13,1.5,8.7,10.2,238.3,-2.7,1.5
7409,19,209,1,13,2,5.1,7.1,212.3,3.3,3
7409,20,350,1,25,2.7,8.9,11.6,326.6,-23.4,2.7
7409,21,114,0,19,0.6,8.1,8.7,82.2,-31.8,1
7409,22,120,1,15,0.6,5.2,5.8,119.7,-0.3,2.1
7409,23,91,1,10,1.7,3.3,5,87.5,-3.5,2.3
7409,24,52,1,12,1.1,4.4,5.5,51.9,-0.1,3.1
7409,25,36,0,15,1.2,13,14.2,157.2,121.2,1.1
7409,26,164,1,20,1.6,10.8,12.4,170.5,6.5,1.2
7409,27,283,1,10,0.8,8.6,9.4,276.1,-6.9,2.2
7409,28,161,1,11,0.7,4.8,5.5,153.7,-7.3,4.4
7409,29,312,1,14,1.7,9,10.7,321.7,9.7,2.1
7409,30,265,1,17,1.8,12.3,14.1,269.2,4.2,3.4
7428,1,77,0,28,1.6,19.4,21,36.2,-40.8,3.4
7428,2,21,1,20,2.2,15.9,18.1,22.8,1.8,12.3
7428,3,53,0,13,2,33.2,35.2,239.9,-173.1,1
7428,4,289,0,25,2.7,10.8,13.5,240.2,-48.8,1.8
7428,5,132,1,39,2.4,19.4,21.8,163.1,31.1,5.3
7428,6,173,1,25,2.4,18.2,20.6,163.2,-9.8,3
7428,7,158,1,31,3.1,16.9,20,144,-14,2.3
7428,8,43,0,31,2,12.2,14.2,344.1,-58.9,1.1
7428,9,201,0,34,2.7,18.6,21.3,161.5,-39.5,2.6
7428,10,135,0,26,2.6,11.1,13.7,234.7,99.7,1.3
7428,11,294,1,38,1,11.2,12.2,268.2,-25.8,0.7
7428,12,245,1,55,0.9,7.1,8,215.9,-29.1,1.2
7428,13,216,1,55,1.3,15.7,17,246.5,30.5,1.9
7428,14,22,1,61,2.1,41.7,43.8,52.3,30.3,3.1
7428,15,91,1,29,3.1,17.1,20.2,83.9,-7.1,0.9
7428,16,98,0,29,1.6,13.5,15.1,63.9,-34.1,1.9
7428,17,184,1,50,1.5,14.1,15.6,180.2,-3.8,3.3
7428,18,60,0,21,2.4,5.6,8,213.9,153.9,1.6
7428,19,268,1,26,2,16,18,275.7,7.7,1.5
7428,20,289,1,21,2,8.6,10.6,298.2,9.2,1.4
7428,21,37,1,23,1.4,14.9,16.3,36.9,-0.1,2.3
7428,22,75,1,15,1.5,12.1,13.6,72.4,-2.6,1.1
7428,23,82,0,21,2.1,20.1,22.2,106.5,24.5,2.9
7428,24,350,1,13,1.2,6.4,7.6,341,-9,1.3
7428,25,173,1,19,1.7,8.4,10.1,158.1,-14.9,2.1
7428,26,91,1,8,1.7,15.1,16.8,85.5,-5.5,2.8
7428,27,66,0,13,1.8,13.2,15,47.4,-18.6,1.3
7428,28,0,0,21,1.6,22.6,24.2,174.4,174.4,1.2
7428,29,178,0,30,1.3,22.8,24.1,146.6,-31.4,2
7428,30,178,0,14,0.8,15.8,16.6,138.1,-39.9,2