Subj_idx,Stimulus,Response,Confidence,RT_dec,RT_conf,Task,Catch_trial,ContrastOrTilt
1,1,0,1,5.486,1.533,2,0,0.62
1,1,1,3,1.345,0.815,2,0,0.62
1,0,0,3,0.532,0.567,2,0,0.62
1,0,0,2,0.663,0.704,2,0,0.62
1,1,1,1,1.983,0.404,2,0,0.62
1,0,1,2,2.381,0.91,2,0,0.62
1,1,1,1,0.94,1.015,2,0,0.62
1,1,1,1,0.907,0.528,2,0,0.62
1,0,0,2,0.927,0.934,2,0,0.62
1,1,0,2,0.465,0.879,2,0,0.62
1,0,0,3,0.492,0.311,2,0,0.62
1,1,0,1,0.764,0.476,2,0,0.62
1,0,1,1,0.795,0.391,2,0,0.62
1,1,1,1,0.703,0.324,2,0,0.62
1,0,1,1,1.376,0.463,2,0,0.62
1,0,0,2,0.855,0.583,2,0,0.62
1,0,0,3,0.627,0.991,2,0,0.62
1,1,1,1,1.061,0.471,2,0,0.62
1,1,1,1,1.056,0.43,2,0,0.62
1,0,0,2,0.706,0.632,2,0,0.62
1,0,0,3,0.43,0.342,2,0,0.62
1,0,0,3,0.563,0.319,2,0,0.62
1,0,0,2,0.459,0.335,2,0,0.62
1,0,0,2,0.368,0.331,2,0,0.62
1,1,0,2,0.733,0.527,2,0,0.62
1,1,0,1,0.558,0.343,2,0,0.62
1,1,1,2,0.694,1.159,2,0,0.62
1,1,1,2,0.674,0.631,2,0,0.62
1,0,0,2,0.347,0.328,2,0,0.62
1,0,0,3,0.903,1.015,2,0,0.62
1,1,1,2,0.339,1.765,2,0,0.62
1,1,1,3,0.6,0.784,2,0,0.62
1,1,1,3,0.449,0.472,2,0,0.62
1,1,1,3,0.259,0.351,2,0,0.62
1,1,1,2,0.41,0.773,2,0,0.62
1,1,1,2,0.291,0.335,2,0,0.62
1,1,1,2,0.288,0.366,2,0,0.62
1,1,1,2,0.502,0.364,2,0,0.62
1,0,1,3,0.44,0.353,2,0,0.62
1,0,0,4,0.53,0.509,2,1,5
1,0,0,3,1.143,0.959,2,0,0.62
1,1,0,2,0.399,0.637,2,0,0.62
1,1,0,2,0.62,0.379,2,0,0.62
1,1,1,3,0.704,0.833,2,0,0.62
1,0,0,3,0.381,0.757,2,0,0.62
1,0,1,1,0.579,1.399,2,0,0.62
1,0,0,2,0.542,0.374,2,0,0.62
1,1,0,2,0.463,0.279,2,0,0.62
1,1,1,3,0.913,0.495,2,0,0.62
1,1,1,3,0.488,0.379,2,0,0.62
1,1,1,3,0.299,0.219,2,0,0.62
1,0,1,3,0.492,0.215,2,0,0.62
1,0,0,3,0.421,0.665,2,0,0.62
1,0,0,2,0.308,0.162,2,0,0.62
1,0,0,3,0.37,0.295,2,0,0.62
1,0,0,2,0.257,0.215,2,0,0.62
1,1,0,1,0.229,1.379,2,0,0.62
1,0,0,2,0.474,0.191,2,0,0.62
1,1,0,1,0.436,0.231,2,0,0.62
1,0,0,3,0.506,0.115,2,0,0.62
1,0,0,2,0.618,0.135,2,0,0.62
1,1,0,3,0.441,0.199,2,0,0.62
1,0,0,3,0.188,0.151,2,0,0.62
1,1,1,3,0.989,0.117,2,0,0.62
1,1,1,1,0.298,0.183,2,0,0.62
1,1,1,1,0.125,0.124,2,0,0.62
1,0,0,3,1.67,0.849,2,0,0.62
1,0,0,2,0.402,0.346,2,0,0.62
1,1,0,1,0.375,0.204,2,0,0.62
1,1,1,2,0.299,0.919,2,0,0.62
1,1,1,2,0.346,0.198,2,0,0.62
1,0,0,2,0.353,0.139,2,0,0.62
1,1,0,2,0.975,0.135,2,0,0.62
1,0,0,2,0.282,0.108,2,0,0.62
1,1,1,2,0.381,0.664,2,0,0.62
1,0,1,2,0.346,0.205,2,0,0.62
1,0,1,2,0.258,0.211,2,0,0.62
1,0,0,3,0.302,0.5,2,0,0.62
1,0,0,3,0.199,0.287,2,0,0.62
1,1,1,4,0.887,0.456,2,1,5
1,0,0,1,0.899,0.375,2,0,0.62
1,1,1,2,0.706,0.704,2,0,0.62
1,0,1,2,0.336,0.222,2,0,0.62
1,1,1,3,0.329,0.191,2,0,0.62
1,0,0,2,0.512,0.414,2,0,0.62
1,0,0,2,0.926,0.368,2,0,0.62
1,0,0,3,1.069,0.487,2,0,0.62
1,0,0,3,0.796,0.366,2,0,0.62
1,1,0,2,0.813,0.54,2,0,0.62
1,1,0,1,0.462,0.312,2,0,0.62
1,1,0,1,0.339,0.28,2,0,0.62
1,1,0,1,0.557,1.055,2,0,0.62
1,1,1,2,0.914,0.485,2,0,0.62
1,0,1,1,0.562,0.481,2,0,0.62
1,0,1,1,0.315,0.623,2,0,0.62
1,1,1,3,0.408,0.295,2,0,0.62
1,0,1,1,0.584,0.324,2,0,0.62
1,0,1,2,0.298,0.341,2,0,0.62
1,1,1,1,0.104,0.501,2,0,0.62
1,0,0,4,0.457,0.728,2,1,5
1,1,0,1,1.851,0.796,1,0,5.5
1,1,0,1,0.845,0.271,1,0,5.5
1,1,0,1,0.299,0.334,1,0,5.5
1,1,0,1,0.468,0.391,1,0,5.5
1,1,0,1,0.472,0.383,1,0,5.5
1,1,0,1,0.369,0.351,1,0,5.5
1,0,0,1,0.379,0.358,1,0,5.5
1,1,0,1,0.369,0.351,1,0,5.5
1,1,0,1,0.4,0.321,1,0,5.5
1,0,0,1,0.349,0.547,1,0,5.5
1,0,0,1,0.041,0.416,1,0,5.5
1,0,0,1,0.442,0.373,1,0,5.5
1,0,0,1,0.335,0.405,1,0,5.5
1,0,0,1,0.469,0.416,1,0,5.5
1,1,0,1,0.415,0.366,1,0,5.5
1,0,0,1,0.017,0.433,1,0,5.5
1,1,0,1,0.293,1.613,1,0,5.5
1,1,0,1,0.27,0.433,1,0,5.5
1,1,0,1,0.541,0.509,1,0,5.5
1,1,0,1,0.281,1.449,1,0,5.5
1,0,0,1,0.379,0.272,1,0,5.5
1,1,0,1,0.481,0.292,1,0,5.5
1,0,0,1,0.501,0.352,1,0,5.5
1,1,0,1,0.654,0.447,1,0,5.5
1,0,0,1,0.494,0.336,1,0,5.5
1,0,0,1,0.49,0.351,1,0,5.5
1,1,0,1,0.303,0.31,1,0,5.5
1,1,0,1,0.551,0.336,1,0,5.5
1,0,0,1,0.619,0.312,1,0,5.5
1,0,0,1,0.325,0.328,1,0,5.5
1,1,0,1,0.403,0.527,1,0,5.5
1,1,0,1,0.121,0.391,1,0,5.5
1,1,0,1,0.206,0.431,1,0,5.5
1,0,0,1,0.208,3.731,1,0,5.5
1,0,0,1,19.117,0.319,1,0,5.5
1,1,0,1,0.355,0.311,1,0,5.5
1,0,0,1,0.342,0.351,1,0,5.5
1,1,0,1,0.282,0.351,1,0,5.5
1,0,0,1,0.353,0.351,1,0,5.5
1,0,0,4,2.251,1.271,1,1,15
1,1,0,1,0.645,0.283,1,0,5.5
1,1,0,1,0.384,0.304,1,0,5.5
1,1,0,1,0.309,0.392,1,0,5.5
1,0,0,1,0.409,0.311,1,0,5.5
1,0,0,1,0.359,0.256,1,0,5.5
1,0,0,1,0.363,0.311,1,0,5.5
1,1,0,1,0.402,1.168,1,0,5.5
1,1,0,1,0.38,0.367,1,0,5.5
1,0,0,1,0.056,0.392,1,0,5.5
1,0,0,1,0.356,0.714,1,0,5.5
1,0,0,1,0.378,0.416,1,0,5.5
1,1,0,1,0.397,0.864,1,0,5.5
1,0,0,1,0.442,0.543,1,0,5.5
1,0,0,1,0.311,0.407,1,0,5.5
1,1,0,1,0.328,0.392,1,0,5.5
1,0,0,1,0.399,0.359,1,0,5.5
1,0,0,1,0.083,0.368,1,0,5.5
1,0,0,1,0.521,0.376,1,0,5.5
1,1,0,1,0.327,0.334,1,0,5.5
1,0,0,1,0.314,0.296,1,0,5.5
1,0,0,1,0.29,0.352,1,0,5.5
1,0,0,1,0.355,1.871,1,0,5.5
1,0,0,1,0.398,0.335,1,0,5.5
1,1,0,1,0.488,0.488,1,0,5.5
1,1,0,1,0.382,0.364,1,0,5.5
1,0,0,1,0.344,0.509,1,0,5.5
1,1,0,1,0.033,0.387,1,0,5.5
1,0,0,1,0.197,0.422,1,0,5.5
1,1,0,1,0.411,1.207,1,0,5.5
1,0,0,1,0.373,0.351,1,0,5.5
1,0,0,1,0.036,0.372,1,0,5.5
1,1,1,3,1.297,0.775,1,0,5.5
1,1,0,1,1.151,0.23,1,0,5.5
1,0,0,1,0.33,0.352,1,0,5.5
1,0,0,1,0.343,0.352,1,0,5.5
1,0,0,1,0.302,0.337,1,0,5.5
1,0,0,1,0.546,0.471,1,0,5.5
1,1,0,1,0.393,0.359,1,0,5.5
1,0,0,1,0.551,0.35,1,0,5.5
1,0,0,4,0.793,0.92,1,1,15
1,0,0,2,0.765,0.433,1,0,5.5
1,0,0,3,0.776,0.404,1,0,5.5
1,1,1,3,1.107,0.624,1,0,5.5
1,1,0,1,0.567,0.31,1,0,5.5
1,1,0,2,0.857,0.512,1,0,5.5
1,1,0,2,1.776,0.183,1,0,5.5
1,1,0,1,0.806,0.304,1,0,5.5
1,0,0,2,0.461,1.128,1,0,5.5
1,1,0,1,0.484,0.391,1,0,5.5
1,0,0,1,0.675,0.374,1,0,5.5
1,1,0,1,0.44,0.374,1,0,5.5
1,0,0,1,0.361,0.367,1,0,5.5
1,0,0,2,0.817,0.776,1,0,5.5
1,1,0,1,0.324,0.328,1,0,5.5
1,1,0,1,0.076,0.375,1,0,5.5
1,1,0,1,0.431,0.335,1,0,5.5
1,1,0,1,0.293,0.431,1,0,5.5
1,0,0,1,0.343,0.335,1,0,5.5
1,0,0,2,0.534,0.376,1,0,5.5
1,1,1,4,0.887,0.602,1,1,15
2,0,0,3,1.497,1.495,1,0,5.5
2,0,0,1,1.896,1.39,1,0,5.5
2,0,0,3,1.504,1.89,1,0,5.5
2,0,0,4,1.435,0.908,1,0,5.5
2,0,0,3,0.991,1.774,1,0,5.5
2,0,0,3,1.186,1.238,1,0,5.5
2,0,0,4,1.068,1.027,1,0,5.5
2,1,0,2,1.679,1.381,1,0,5.5
2,1,0,3,0.741,0.752,1,0,5.5
2,1,0,3,0.634,0.695,1,0,5.5
2,0,0,3,0.687,0.64,1,0,5.5
2,1,0,2,0.852,1.664,1,0,5.5
2,1,1,3,2.203,0.755,1,0,5.5
2,0,0,2,2.018,1.058,1,0,5.5
2,1,1,3,2.276,0.667,1,0,5.5
2,0,0,2,1.478,0.807,1,0,5.5
2,1,1,3,2.48,0.598,1,0,5.5
2,1,1,4,1.966,0.704,1,0,5.5
2,1,1,4,1.383,0.963,1,0,5.5
2,1,1,3,1.263,1.067,1,0,5.5
2,0,1,3,1.453,0.693,1,0,5.5
2,0,1,3,1.245,0.594,1,0,5.5
2,1,0,2,1.254,0.699,1,0,5.5
2,1,1,3,1.894,0.39,1,0,5.5
2,0,0,2,1.157,0.463,1,0,5.5
2,0,1,3,1.423,0.431,1,0,5.5
2,0,0,3,1.153,0.87,1,0,5.5
2,1,1,4,1.606,0.611,1,0,5.5
2,1,1,3,2.071,0.933,1,0,5.5
2,0,0,3,0.991,1.089,1,0,5.5
2,1,1,3,1.038,0.536,1,0,5.5
2,0,0,2,0.869,0.406,1,0,5.5
2,1,1,2,1.291,0.391,1,0,5.5
2,1,1,3,1.533,1.136,1,0,5.5
2,0,0,3,0.951,1.016,1,0,5.5
2,0,0,3,0.921,0.773,1,0,5.5
2,0,0,2,1.748,0.899,1,0,5.5
2,0,0,1,0.937,0.786,1,0,5.5
2,1,1,3,0.939,0.545,1,0,5.5
2,0,0,4,0.849,0.664,1,1,15
2,0,0,1,0.987,0.472,1,0,5.5
2,1,0,2,1,0.332,1,0,5.5
2,0,0,2,0.678,1.148,1,0,5.5
2,1,1,3,1.173,0.596,1,0,5.5
2,0,0,2,0.81,0.459,1,0,5.5
2,1,1,1,1.345,0.271,1,0,5.5
2,1,1,2,1.461,0.696,1,0,5.5
2,1,1,2,1.128,0.413,1,0,5.5
2,1,0,1,1.206,0.337,1,0,5.5
2,0,1,2,1.103,0.604,1,0,5.5
2,0,0,2,0.886,0.497,1,0,5.5
2,0,1,3,1.277,0.762,1,0,5.5
2,1,0,1,0.971,0.36,1,0,5.5
2,1,1,2,1.192,0.663,1,0,5.5
2,1,1,2,1.358,0.366,1,0,5.5
2,1,1,3,1.166,0.462,1,0,5.5
2,1,1,3,0.988,0.308,1,0,5.5
2,1,1,2,0.944,0.437,1,0,5.5
2,1,1,2,1.02,0.272,1,0,5.5
2,0,0,2,1.195,0.653,1,0,5.5
2,1,1,3,1.244,0.616,1,0,5.5
2,1,1,3,0.661,0.395,1,0,5.5
2,1,1,3,0.957,0.266,1,0,5.5
2,1,0,2,0.889,0.208,1,0,5.5
2,1,1,2,0.874,0.236,1,0,5.5
2,1,1,2,1.337,0.207,1,0,5.5
2,1,1,2,0.797,0.201,1,0,5.5
2,1,1,3,1.268,0.286,1,0,5.5
2,0,0,2,0.517,0.793,1,0,5.5
2,0,0,1,1.366,0.317,1,0,5.5
2,1,0,2,1.02,0.554,1,0,5.5
2,0,1,1,1.893,0.317,1,0,5.5
2,1,1,2,1.192,0.333,1,0,5.5
2,1,1,2,0.689,0.323,1,0,5.5
2,1,1,1,0.921,0.242,1,0,5.5
2,1,0,1,0.807,0.386,1,0,5.5
2,1,1,1,1.017,0.905,1,0,5.5
2,0,1,1,0.712,0.382,1,0,5.5
2,1,1,1,1.49,0.227,1,0,5.5
2,0,0,4,1.087,0.494,1,1,15
2,0,0,3,0.885,0.677,1,0,5.5
2,1,1,2,1.307,0.381,1,0,5.5
2,0,0,3,0.847,0.739,1,0,5.5
2,0,0,1,1.405,0.472,1,0,5.5
2,0,0,2,0.592,0.316,1,0,5.5
2,0,0,1,0.64,0.281,1,0,5.5
2,1,1,3,1.181,0.609,1,0,5.5
2,1,1,2,1.044,0.862,1,0,5.5
2,0,0,2,0.562,0.622,1,0,5.5
2,0,1,1,0.965,1,1,0,5.5
2,0,0,2,0.842,0.982,1,0,5.5
2,0,0,3,1.038,0.566,1,0,5.5
2,0,0,1,0.661,1.126,1,0,5.5
2,0,0,1,0.64,0.366,1,0,5.5
2,1,1,1,0.909,0.419,1,0,5.5
2,1,1,2,1.077,0.469,1,0,5.5
2,0,0,2,0.637,0.556,1,0,5.5
2,0,0,3,0.816,0.445,1,0,5.5
2,1,1,2,1.208,0.62,1,0,5.5
2,0,0,4,0.802,0.493,1,1,15
2,0,0,2,1.433,0.705,2,0,0.62
2,0,0,3,1.1,0.854,2,0,0.62
2,0,1,3,1.33,0.782,2,0,0.62
2,0,0,1,0.928,0.343,2,0,0.62
2,1,1,2,1.131,0.552,2,0,0.62
2,0,0,3,0.727,0.803,2,0,0.62
2,0,0,4,0.785,0.538,2,0,0.62
2,0,0,3,1.067,0.831,2,0,0.62
2,1,1,4,2.049,0.624,2,0,0.62
2,1,1,3,1.032,0.953,2,0,0.62
2,0,0,3,1.113,2.263,2,0,0.62
2,1,1,4,1.064,0.78,2,0,0.62
2,0,0,4,0.674,1.686,2,0,0.62
2,0,0,3,1.075,0.54,2,0,0.62
2,1,1,4,1.066,0.413,2,0,0.62
2,0,0,3,0.885,0.75,2,0,0.62
2,1,1,2,1.732,0.456,2,0,0.62
2,0,0,1,0.785,0.736,2,0,0.62
2,0,0,1,0.863,0.388,2,0,0.62
2,1,1,4,1.012,0.553,2,0,0.62
2,0,0,1,0.585,0.462,2,0,0.62
2,0,0,2,0.659,0.252,2,0,0.62
2,0,1,1,1.672,0.309,2,0,0.62
2,1,1,4,0.596,0.753,2,0,0.62
2,0,0,2,1.009,0.631,2,0,0.62
2,1,1,4,0.752,0.634,2,0,0.62
2,1,1,4,0.834,0.611,2,0,0.62
2,0,0,3,0.79,0.551,2,0,0.62
2,1,1,4,1.002,0.345,2,0,0.62
2,0,0,3,0.653,0.674,2,0,0.62
2,1,1,4,0.845,0.427,2,0,0.62
2,0,0,3,0.764,0.782,2,0,0.62
2,0,0,2,0.714,0.334,2,0,0.62
2,1,1,3,0.64,0.402,2,0,0.62
2,1,1,3,0.538,0.261,2,0,0.62
2,0,0,1,0.973,0.343,2,0,0.62
2,1,1,3,1.022,0.918,2,0,0.62
2,0,0,2,0.778,1.092,2,0,0.62
2,0,0,1,0.604,0.291,2,0,0.62
2,0,0,4,0.959,1.166,2,1,5
2,1,1,3,1.165,0.749,2,0,0.62
2,1,1,4,1.392,0.522,2,0,0.62
2,1,1,3,0.712,0.471,2,0,0.62
2,0,0,3,0.602,0.492,2,0,0.62
2,1,0,1,0.734,0.305,2,0,0.62
2,1,1,1,1.065,0.529,2,0,0.62
2,0,0,2,0.688,0.259,2,0,0.62
2,1,1,3,0.797,0.844,2,0,0.62
2,0,1,1,1.078,0.526,2,0,0.62
2,0,0,2,0.62,0.378,2,0,0.62
2,1,1,4,0.93,0.922,2,0,0.62
2,1,1,3,0.981,0.336,2,0,0.62
2,0,0,3,0.581,0.514,2,0,0.62
2,0,0,2,1.292,0.495,2,0,0.62
2,1,1,2,0.628,1.565,2,0,0.62
2,0,0,2,0.749,0.867,2,0,0.62
2,1,0,1,1.853,0.346,2,0,0.62
2,0,0,1,1.119,0.415,2,0,0.62
2,1,1,2,1.036,1.091,2,0,0.62
2,0,0,2,0.587,0.924,2,0,0.62
2,1,1,3,0.467,0.837,2,0,0.62
2,1,1,4,0.783,0.737,2,0,0.62
2,0,0,1,0.783,0.527,2,0,0.62
2,0,0,1,0.589,0.268,2,0,0.62
2,1,1,2,0.729,0.388,2,0,0.62
2,0,0,2,0.677,0.29,2,0,0.62
2,1,1,3,0.727,0.269,2,0,0.62
2,1,1,3,1.088,0.236,2,0,0.62
2,1,1,1,1.95,0.459,2,0,0.62
2,0,0,2,1.04,1.326,2,0,0.62
2,0,0,1,0.712,0.294,2,0,0.62
2,0,0,1,0.745,0.31,2,0,0.62
2,0,0,2,0.51,0.289,2,0,0.62
2,0,0,2,0.663,0.222,2,0,0.62
2,0,1,1,0.944,0.311,2,0,0.62
2,1,1,1,1.043,0.284,2,0,0.62
2,0,0,2,0.587,0.96,2,0,0.62
2,0,0,3,0.666,0.33,2,0,0.62
2,1,1,4,1.03,0.397,2,0,0.62
2,1,1,4,1.281,0.873,2,1,5
2,0,0,2,0.727,0.439,2,0,0.62
2,0,0,3,0.78,0.351,2,0,0.62
2,1,1,3,0.705,0.297,2,0,0.62
2,0,0,3,0.582,0.307,2,0,0.62
2,1,1,3,0.893,0.295,2,0,0.62
2,0,0,2,0.857,0.381,2,0,0.62
2,0,0,1,0.644,0.359,2,0,0.62
2,0,0,1,0.462,0.31,2,0,0.62
2,0,0,1,0.468,0.228,2,0,0.62
2,1,1,1,0.595,0.39,2,0,0.62
2,1,1,2,0.581,0.41,2,0,0.62
2,1,1,1,0.557,0.661,2,0,0.62
2,1,1,1,0.469,0.855,2,0,0.62
2,1,1,3,0.508,0.304,2,0,0.62
2,0,0,1,0.658,0.636,2,0,0.62
2,1,1,2,1.764,0.704,2,0,0.62
2,0,0,3,0.498,0.503,2,0,0.62
2,1,1,3,0.806,0.251,2,0,0.62
2,1,1,2,1.157,0.326,2,0,0.62
2,1,1,4,1.269,0.852,2,1,5
3,1,1,4,0.221,2.855,1,0,5.5
3,1,0,4,0.207,2.43,1,0,5.5
3,0,0,4,1.227,3.532,1,0,5.5
3,0,0,4,0.615,1.052,1,0,5.5
3,0,0,4,0.347,0.461,1,0,5.5
3,0,0,4,0.309,0.355,1,0,5.5
3,1,1,1,0.744,0.752,1,0,5.5
3,0,0,4,0.328,0.482,1,0,5.5
3,0,0,3,0.636,0.812,1,0,5.5
3,1,0,3,0.836,1.116,1,0,5.5
3,1,1,2,1.54,0.968,1,0,5.5
3,1,0,2,1.015,0.549,1,0,5.5
3,1,1,1,1.173,0.674,1,0,5.5
3,0,0,2,0.829,1.001,1,0,5.5
3,1,0,1,0.851,0.591,1,0,5.5
3,0,0,3,0.868,1.12,1,0,5.5
3,0,0,2,0.674,0.471,1,0,5.5
3,0,0,2,0.877,0.504,1,0,5.5
3,1,1,3,1.601,0.683,1,0,5.5
3,1,1,1,0.828,0.678,1,0,5.5
3,0,0,4,0.076,1.203,1,0,5.5
3,0,0,3,0.516,0.688,1,0,5.5
3,1,1,1,0.741,0.543,1,0,5.5
3,0,0,3,0.56,0.608,1,0,5.5
3,0,0,3,0.945,0.467,1,0,5.5
3,1,1,2,1.01,0.638,1,0,5.5
3,1,0,1,0.57,0.574,1,0,5.5
3,1,1,2,0.709,0.455,1,0,5.5
3,0,0,1,0.355,0.865,1,0,5.5
3,1,1,2,0.757,0.562,1,0,5.5
3,1,0,1,0.761,0.975,1,0,5.5
3,1,0,2,0.758,0.451,1,0,5.5
3,0,0,3,0.791,0.567,1,0,5.5
3,0,1,1,0.832,0.502,1,0,5.5
3,1,1,3,0.657,0.56,1,0,5.5
3,0,0,2,0.373,0.91,1,0,5.5
3,1,1,4,0.92,0.49,1,0,5.5
3,0,0,3,0.555,0.56,1,0,5.5
3,0,1,2,0.973,0.588,1,0,5.5
3,0,0,4,0.947,0.668,1,1,15
3,1,1,4,0.183,0.704,1,0,5.5
3,0,0,4,0.238,0.432,1,0,5.5
3,1,1,4,0.503,0.552,1,0,5.5
3,1,1,3,0.651,0.428,1,0,5.5
3,0,0,3,0.299,0.438,1,0,5.5
3,1,1,4,0.449,0.463,1,0,5.5
3,1,1,4,0.387,0.569,1,0,5.5
3,0,0,4,0.352,0.405,1,0,5.5
3,0,1,3,0.517,0.323,1,0,5.5
3,0,0,2,0.941,0.484,1,0,5.5
3,1,1,4,0.518,0.369,1,0,5.5
3,1,1,2,0.689,0.499,1,0,5.5
3,0,0,3,0.666,1.076,1,0,5.5
3,1,1,4,0.596,0.257,1,0,5.5
3,0,1,1,0.885,0.619,1,0,5.5
3,1,1,4,0.745,0.407,1,0,5.5
3,1,1,2,0.673,0.561,1,0,5.5
3,1,1,3,0.334,0.462,1,0,5.5
3,0,1,2,0.574,0.384,1,0,5.5
3,0,1,1,0.619,0.283,1,0,5.5
3,0,1,2,0.468,0.501,1,0,5.5
3,0,1,2,0.604,0.325,1,0,5.5
3,0,1,1,0.553,0.243,1,0,5.5
3,0,0,3,0.547,0.708,1,0,5.5
3,1,0,3,1.121,0.596,1,0,5.5
3,1,0,1,0.57,0.989,1,0,5.5
3,0,1,1,0.702,0.395,1,0,5.5
3,0,0,4,0.924,0.911,1,0,5.5
3,1,1,1,0.964,0.464,1,0,5.5
3,0,0,3,0.69,0.755,1,0,5.5
3,1,1,3,0.451,0.548,1,0,5.5
3,1,1,3,0.837,0.373,1,0,5.5
3,1,1,4,0.343,0.326,1,0,5.5
3,1,1,4,0.284,0.206,1,0,5.5
3,1,1,3,0.476,0.599,1,0,5.5
3,1,1,4,0.374,0.451,1,0,5.5
3,1,1,2,0.333,0.37,1,0,5.5
3,1,1,3,0.265,0.178,1,0,5.5
3,1,1,2,0.36,0.312,1,0,5.5
3,0,0,4,0.69,0.746,1,1,15
3,1,1,4,0.322,0.629,1,0,5.5
3,0,1,3,0.673,0.425,1,0,5.5
3,1,1,4,0.481,0.405,1,0,5.5
3,1,1,3,0.344,0.46,1,0,5.5
3,0,1,4,0.335,0.663,1,0,5.5
3,0,0,4,0.472,0.386,1,0,5.5
3,1,1,1,1.245,0.36,1,0,5.5
3,0,0,4,0.561,0.391,1,0,5.5
3,0,1,3,1.173,0.503,1,0,5.5
3,1,1,3,0.341,0.341,1,0,5.5
3,0,0,3,0.596,0.568,1,0,5.5
3,1,1,3,0.393,0.594,1,0,5.5
3,0,1,1,0.725,0.245,1,0,5.5
3,0,0,4,0.354,0.371,1,0,5.5
3,0,1,2,0.417,0.503,1,0,5.5
3,0,1,1,0.815,0.43,1,0,5.5
3,0,0,4,0.347,0.355,1,0,5.5
3,0,0,4,0.314,0.272,1,0,5.5
3,0,0,4,0.318,0.202,1,0,5.5
3,1,1,4,0.302,0.308,1,1,15
3,0,0,4,0.573,1.161,2,0,0.62
3,0,0,3,0.435,0.421,2,0,0.62
3,1,1,3,0.375,0.54,2,0,0.62
3,1,1,4,0.505,0.342,2,0,0.62
3,1,1,4,0.304,0.267,2,0,0.62
3,0,1,2,1.209,0.689,2,0,0.62
3,1,1,4,0.341,0.333,2,0,0.62
3,0,1,1,0.442,1.39,2,0,0.62
3,1,1,3,0.279,0.581,2,0,0.62
3,1,1,3,0.273,0.451,2,0,0.62
3,1,1,2,0.572,0.527,2,0,0.62
3,0,0,3,0.539,1.276,2,0,0.62
3,0,0,3,0.414,0.402,2,0,0.62
3,0,0,2,0.344,0.259,2,0,0.62
3,0,0,2,0.321,0.307,2,0,0.62
3,0,0,2,0.358,0.318,2,0,0.62
3,1,1,2,1.003,0.629,2,0,0.62
3,0,0,2,0.646,0.508,2,0,0.62
3,1,0,1,0.837,0.41,2,0,0.62
3,1,1,3,0.565,0.696,2,0,0.62
3,1,1,3,0.191,1.303,2,0,0.62
3,0,0,4,0.318,0.293,2,0,0.62
3,0,0,3,0.66,0.269,2,0,0.62
3,1,0,2,0.905,0.853,2,0,0.62
3,0,0,3,0.498,0.816,2,0,0.62
3,0,0,3,0.499,0.359,2,0,0.62
3,0,0,2,0.675,0.291,2,0,0.62
3,1,1,1,0.736,0.631,2,0,0.62
3,0,0,3,0.384,0.55,2,0,0.62
3,1,0,1,0.637,0.526,2,0,0.62
3,1,1,1,0.604,0.858,2,0,0.62
3,0,0,2,0.477,0.43,2,0,0.62
3,1,0,1,0.72,0.452,2,0,0.62
3,0,1,1,1.32,0.353,2,0,0.62
3,1,0,1,0.79,0.331,2,0,0.62
3,1,1,4,0.758,0.984,2,0,0.62
3,0,0,4,0.388,0.282,2,0,0.62
3,1,1,1,1.174,1.096,2,0,0.62
3,1,0,1,0.917,0.812,2,0,0.62
3,0,0,4,0.353,0.42,2,1,5
3,0,0,4,0.383,0.33,2,0,0.62
3,0,0,4,0.435,0.406,2,0,0.62
3,0,0,1,0.721,0.586,2,0,0.62
3,1,1,1,0.57,0.462,2,0,0.62
3,0,0,4,0.411,0.449,2,0,0.62
3,1,0,2,0.568,0.736,2,0,0.62
3,1,1,3,0.645,0.74,2,0,0.62
3,1,1,2,0.701,0.834,2,0,0.62
3,0,0,3,0.479,0.529,2,0,0.62
3,0,0,4,0.31,0.364,2,0,0.62
3,1,0,2,0.433,0.741,2,0,0.62
3,1,1,1,0.542,0.54,2,0,0.62
3,1,1,2,0.315,0.491,2,0,0.62
3,1,1,2,0.364,0.262,2,0,0.62
3,0,1,1,0.916,0.377,2,0,0.62
3,1,1,2,0.359,0.588,2,0,0.62
3,1,1,2,0.306,0.277,2,0,0.62
3,1,1,3,0.325,1.542,2,0,0.62
3,1,1,2,0.459,0.383,2,0,0.62
3,1,1,3,0.412,0.466,2,0,0.62
3,1,1,3,0.397,0.662,2,0,0.62
3,0,0,3,1.214,0.921,2,0,0.62
3,0,0,3,0.248,0.368,2,0,0.62
3,0,0,2,0.676,0.732,2,0,0.62
3,1,0,1,0.709,0.351,2,0,0.62
3,1,1,1,0.921,0.651,2,0,0.62
3,1,1,3,0.739,0.552,2,0,0.62
3,0,0,3,0.634,0.836,2,0,0.62
3,0,0,4,0.634,1.017,2,0,0.62
3,1,1,2,0.568,0.789,2,0,0.62
3,0,0,2,0.446,0.418,2,0,0.62
3,0,0,1,0.508,0.512,2,0,0.62
3,0,0,3,0.428,0.454,2,0,0.62
3,0,0,3,0.309,0.409,2,0,0.62
3,0,0,3,0.26,0.265,2,0,0.62
3,1,1,1,1.737,0.267,2,0,0.62
3,1,1,1,0.8,0.792,2,0,0.62
3,1,1,1,0.458,0.324,2,0,0.62
3,1,1,1,0.357,0.327,2,0,0.62
3,1,1,4,0.506,0.877,2,1,5
3,0,1,2,0.795,0.84,2,0,0.62
3,1,1,3,0.626,0.323,2,0,0.62
3,1,1,4,0.338,0.446,2,0,0.62
3,0,1,2,0.566,0.37,2,0,0.62
3,1,1,3,0.26,0.21,2,0,0.62
3,1,1,3,0.311,0.228,2,0,0.62
3,0,1,1,1.582,0.377,2,0,0.62
3,0,0,1,0.598,1.451,2,0,0.62
3,1,1,3,0.342,0.764,2,0,0.62
3,1,1,3,0.496,0.496,2,0,0.62
3,1,1,1,0.543,0.438,2,0,0.62
3,1,1,2,0.233,0.26,2,0,0.62
3,1,1,2,0.312,0.283,2,0,0.62
3,0,0,3,0.485,0.871,2,0,0.62
3,1,1,1,0.361,0.463,2,0,0.62
3,0,1,1,0.275,0.692,2,0,0.62
3,1,1,1,0.274,0.402,2,0,0.62
3,1,1,2,0.301,0.365,2,0,0.62
3,1,1,2,0.273,0.298,2,0,0.62
3,0,0,4,0.258,0.319,2,1,5
4,1,1,2,6.693,1.408,2,0,0.62
4,0,1,1,1.737,1.423,2,0,0.62
4,0,0,2,0.926,1.287,2,0,0.62
4,0,1,1,0.944,0.776,2,0,0.62
4,0,1,1,1.226,0.767,2,0,0.62
4,0,0,1,1.508,0.68,2,0,0.62
4,0,1,1,0.804,0.639,2,0,0.62
4,1,1,1,1.269,1.151,2,0,0.62
4,1,0,1,1.62,0.648,2,0,0.62
4,1,1,3,0.828,0.928,2,0,0.62
4,0,0,1,1.749,1.001,2,0,0.62
4,1,0,1,1.013,0.76,2,0,0.62
4,0,0,2,1.503,0.864,2,0,0.62
4,1,1,1,1.606,0.712,2,0,0.62
4,0,1,3,0.888,0.839,2,0,0.62
4,0,0,3,0.886,1.527,2,0,0.62
4,0,1,1,1.381,0.991,2,0,0.62
4,1,0,1,1.195,1.248,2,0,0.62
4,0,0,4,0.767,1.295,2,0,0.62
4,1,0,1,0.799,0.919,2,0,0.62
4,0,0,4,0.653,0.951,2,0,0.62
4,0,1,1,1.705,0.496,2,0,0.62
4,0,0,1,1.132,0.448,2,0,0.62
4,1,0,1,1.869,0.544,2,0,0.62
4,1,1,2,0.527,0.688,2,0,0.62
4,0,1,1,0.667,0.8,2,0,0.62
4,1,1,1,0.929,0.52,2,0,0.62
4,1,0,1,0.636,0.512,2,0,0.62
4,0,0,1,1.243,0.415,2,0,0.62
4,0,0,1,0.824,0.408,2,0,0.62
4,1,1,1,0.552,0.928,2,0,0.62
4,1,1,1,0.834,0.391,2,0,0.62
4,1,1,1,0.859,1.232,2,0,0.62
4,1,0,1,0.621,0.608,2,0,0.62
4,0,1,3,0.741,1.296,2,0,0.62
4,1,1,4,1.745,1.28,2,0,0.62
4,1,0,1,0.892,0.407,2,0,0.62
4,0,1,3,0.704,1.055,2,0,0.62
4,0,0,1,1.47,0.407,2,0,0.62
4,0,1,1,0.744,0.464,2,1,5
4,0,1,2,1.008,0.671,2,0,0.62
4,1,0,1,0.748,0.44,2,0,0.62
4,0,0,3,0.63,0.792,2,0,0.62
4,1,0,2,0.553,0.864,2,0,0.62
4,1,1,4,0.8,1.416,2,0,0.62
4,0,1,1,1.206,0.384,2,0,0.62
4,0,0,1,0.932,0.88,2,0,0.62
4,1,0,1,0.532,0.319,2,0,0.62
4,1,0,1,0.842,0.44,2,0,0.62
4,1,1,2,0.648,0.767,2,0,0.62
4,1,1,3,0.645,1.024,2,0,0.62
4,0,1,1,0.755,1.192,2,0,0.62
4,1,0,1,0.58,0.432,2,0,0.62
4,1,1,1,1.165,0.463,2,0,0.62
4,1,1,2,0.689,0.872,2,0,0.62
4,1,1,1,0.474,0.584,2,0,0.62
4,1,1,1,0.605,1.064,2,0,0.62
4,0,1,1,0.543,0.471,2,0,0.62
4,0,1,1,1.046,0.783,2,0,0.62
4,1,0,1,0.822,0.744,2,0,0.62
4,0,0,3,0.754,0.808,2,0,0.62
4,1,1,1,1.098,0.799,2,0,0.62
4,0,1,1,0.662,0.368,2,0,0.62
4,1,0,1,0.883,0.583,2,0,0.62
4,0,0,3,0.532,0.647,2,0,0.62
4,0,1,2,0.585,1.135,2,0,0.62
4,1,1,1,0.685,0.456,2,0,0.62
4,1,1,3,0.785,0.631,2,0,0.62
4,1,0,1,0.967,0.759,2,0,0.62
4,0,1,3,0.708,0.72,2,0,0.62
4,1,0,2,0.446,1.031,2,0,0.62
4,0,1,3,0.492,0.815,2,0,0.62
4,1,1,1,0.798,0.328,2,0,0.62
4,0,1,1,0.578,0.296,2,0,0.62
4,0,1,1,0.539,0.591,2,0,0.62
4,0,1,1,0.596,0.527,2,0,0.62
4,1,1,3,0.532,0.648,2,0,0.62
4,0,0,1,0.625,0.448,2,0,0.62
4,0,1,1,0.743,0.424,2,0,0.62
4,1,1,1,1.793,0.537,2,1,5
4,0,1,1,0.653,0.472,2,0,0.62
4,0,0,1,0.66,0.376,2,0,0.62
4,1,0,1,0.943,0.528,2,0,0.62
4,1,1,1,0.382,0.264,2,0,0.62
4,1,1,1,0.901,0.328,2,0,0.62
4,1,1,1,0.869,0.191,2,0,0.62
4,1,0,1,0.546,0.368,2,0,0.62
4,0,1,1,0.609,0.649,2,0,0.62
4,1,1,1,0.782,0.264,2,0,0.62
4,1,0,1,0.807,0.287,2,0,0.62
4,1,0,3,0.72,0.688,2,0,0.62
4,1,1,1,1.501,0.368,2,0,0.62
4,0,0,1,0.967,0.375,2,0,0.62
4,0,1,1,0.916,0.208,2,0,0.62
4,1,1,1,0.963,0.272,2,0,0.62
4,1,1,1,0.743,0.112,2,0,0.62
4,1,1,1,1.191,0.175,2,0,0.62
4,0,1,1,0.798,0.183,2,0,0.62
4,0,0,3,0.538,0.872,2,0,0.62
4,0,1,1,1.013,0.304,2,1,5
4,0,0,2,0.79,0.944,1,0,5.5
4,1,1,3,0.945,0.616,1,0,5.5
4,0,0,4,0.482,0.567,1,0,5.5
4,1,1,3,0.765,0.671,1,0,5.5
4,1,1,3,0.696,0.623,1,0,5.5
4,1,1,4,0.676,1.056,1,0,5.5
4,0,0,3,0.411,1.312,1,0,5.5
4,1,1,4,0.798,1.806,1,0,5.5
4,0,0,4,0.449,1.128,1,0,5.5
4,1,1,4,0.579,1.184,1,0,5.5
4,1,1,4,0.651,1.048,1,0,5.5
4,0,0,1,1.558,1.055,1,0,5.5
4,1,1,4,0.617,1.112,1,0,5.5
4,1,1,1,0.713,0.375,1,0,5.5
4,0,0,2,0.633,0.696,1,0,5.5
4,1,1,3,0.608,1.328,1,0,5.5
4,0,0,2,0.522,0.696,1,0,5.5
4,1,1,1,0.596,0.632,1,0,5.5
4,0,0,1,0.489,0.784,1,0,5.5
4,1,1,1,0.77,0.944,1,0,5.5
4,1,1,1,0.498,0.568,1,0,5.5
4,0,0,1,0.444,0.263,1,0,5.5
4,0,1,1,1.1,0.552,1,0,5.5
4,0,0,3,0.512,0.655,1,0,5.5
4,1,1,3,0.507,0.487,1,0,5.5
4,1,1,3,0.551,0.352,1,0,5.5
4,0,0,4,0.457,0.831,1,0,5.5
4,0,0,1,0.537,0.776,1,0,5.5
4,0,0,1,0.568,0.263,1,0,5.5
4,0,0,1,0.506,0.272,1,0,5.5
4,0,1,1,1.504,0.624,1,0,5.5
4,0,1,1,0.991,0.303,1,0,5.5
4,0,0,1,0.395,0.304,1,0,5.5
4,1,1,1,0.454,0.479,1,0,5.5
4,0,0,3,0.455,0.592,1,0,5.5
4,1,1,1,0.785,0.279,1,0,5.5
4,1,1,3,0.505,0.36,1,0,5.5
4,0,0,3,0.374,0.911,1,0,5.5
4,0,0,1,0.681,0.287,1,0,5.5
4,1,1,4,0.797,1.792,1,1,15
4,1,1,3,0.375,0.912,1,0,5.5
4,1,1,2,0.713,0.791,1,0,5.5
4,1,1,1,0.643,0.224,1,0,5.5
4,1,1,1,0.579,0.304,1,0,5.5
4,1,1,1,1.059,0.295,1,0,5.5
4,0,0,3,0.803,0.832,1,0,5.5
4,0,0,1,1.384,0.415,1,0,5.5
4,0,0,1,0.446,0.199,1,0,5.5
4,0,0,2,0.407,0.456,1,0,5.5
4,0,0,1,0.676,0.168,1,0,5.5
4,1,1,3,0.454,0.64,1,0,5.5
4,1,1,3,0.481,0.408,1,0,5.5
4,1,0,1,0.998,0.23,1,0,5.5
4,0,0,1,0.365,0.191,1,0,5.5
4,1,1,1,0.386,0.592,1,0,5.5
4,1,1,3,0.866,0.704,1,0,5.5
4,1,1,3,0.354,0.607,1,0,5.5
4,1,0,1,1.177,0.207,1,0,5.5
4,0,0,1,0.469,0.2,1,0,5.5
4,0,0,2,0.464,0.256,1,0,5.5
4,1,1,1,0.784,0.352,1,0,5.5
4,1,1,3,0.345,0.735,1,0,5.5
4,1,1,1,0.776,0.224,1,0,5.5
4,1,1,1,0.648,0.183,1,0,5.5
4,0,0,3,0.438,0.44,1,0,5.5
4,1,1,3,0.521,1.144,1,0,5.5
4,1,0,1,0.647,0.183,1,0,5.5
4,0,0,1,0.412,0.183,1,0,5.5
4,1,1,1,0.762,0.736,1,0,5.5
4,0,1,1,1.532,0.288,1,0,5.5
4,0,0,3,0.452,0.416,1,0,5.5
4,0,1,1,0.623,0.183,1,0,5.5
4,0,1,1,0.696,0.176,1,0,5.5
4,1,1,3,0.54,0.28,1,0,5.5
4,0,1,1,1.092,1.064,1,0,5.5
4,1,1,4,0.521,0.744,1,0,5.5
4,1,1,4,0.435,0.487,1,0,5.5
4,0,0,1,0.577,0.208,1,0,5.5
4,0,0,1,0.385,0.152,1,0,5.5
4,1,1,4,0.421,0.477,1,1,15
4,1,1,3,1.183,0.623,1,0,5.5
4,1,1,1,0.8,0.192,1,0,5.5
4,0,0,2,0.547,0.559,1,0,5.5
4,1,1,3,0.463,0.416,1,0,5.5
4,1,1,3,0.381,0.183,1,0,5.5
4,1,1,2,0.439,0.296,1,0,5.5
4,1,1,2,0.497,0.223,1,0,5.5
4,0,0,3,0.616,0.744,1,0,5.5
4,1,1,2,0.473,0.607,1,0,5.5
4,1,1,1,0.456,0.216,1,0,5.5
4,0,0,3,0.577,0.367,1,0,5.5
4,0,0,4,0.475,1.185,1,0,5.5
4,1,1,1,0.628,0.368,1,0,5.5
4,1,0,1,0.764,0.16,1,0,5.5
4,1,1,1,0.421,0.696,1,0,5.5
4,1,1,1,0.946,0.464,1,0,5.5
4,1,1,1,0.686,0.135,1,0,5.5
4,0,0,3,0.829,0.808,1,0,5.5
4,1,1,3,0.544,0.336,1,0,5.5
4,1,1,4,0.319,1.928,1,1,15
5,1,0,3,4.681,5.094,2,0,0.62
5,1,1,3,0.973,0.777,2,0,0.62
5,1,0,2,0.498,0.395,2,0,0.62
5,1,1,2,0.576,0.749,2,0,0.62
5,0,1,3,0.537,0.303,2,0,0.62
5,0,1,3,0.68,0.266,2,0,0.62
5,1,1,1,0.644,0.305,2,0,0.62
5,1,0,2,0.807,0.35,2,0,0.62
5,0,1,3,0.501,0.323,2,0,0.62
5,0,1,2,0.494,0.505,2,0,0.62
5,1,0,1,2.622,0.723,2,0,0.62
5,1,0,2,0.719,0.31,2,0,0.62
5,1,0,3,0.761,0.301,2,0,0.62
5,1,1,3,0.491,0.314,2,0,0.62
5,1,1,3,0.441,0.447,2,0,0.62
5,1,1,2,0.343,0.355,2,0,0.62
5,0,0,2,0.377,0.311,2,0,0.62
5,1,0,2,0.475,0.291,2,0,0.62
5,0,1,2,0.568,0.383,2,0,0.62
5,0,1,1,0.511,0.39,2,0,0.62
5,0,0,1,0.691,0.395,2,0,0.62
5,1,1,1,0.487,0.328,2,0,0.62
5,1,1,2,0.416,1.02,2,0,0.62
5,1,0,2,0.696,0.519,2,0,0.62
5,0,1,2,0.624,0.434,2,0,0.62
5,1,0,1,0.406,0.456,2,0,0.62
5,1,1,2,0.605,0.344,2,0,0.62
5,1,0,1,0.62,0.363,2,0,0.62
5,1,1,2,0.427,0.382,2,0,0.62
5,1,1,3,0.411,0.322,2,0,0.62
5,1,1,3,0.712,0.457,2,0,0.62
5,0,0,1,1.028,0.435,2,0,0.62
5,1,1,2,0.553,0.338,2,0,0.62
5,1,1,3,0.654,0.301,2,0,0.62
5,1,1,1,0.596,0.343,2,0,0.62
5,0,1,3,0.65,0.282,2,0,0.62
5,0,1,3,0.419,0.277,2,0,0.62
5,1,1,1,0.325,0.338,2,0,0.62
5,0,1,3,0.151,0.429,2,0,0.62
5,0,1,1,0.351,0.32,2,1,5
5,0,0,2,0.389,0.349,2,0,0.62
5,0,1,3,0.339,0.318,2,0,0.62
5,0,0,3,0.392,0.278,2,0,0.62
5,0,0,2,0.284,0.484,2,0,0.62
5,1,1,3,1.071,0.277,2,0,0.62
5,0,1,3,0.437,0.287,2,0,0.62
5,1,1,3,0.351,0.32,2,0,0.62
5,0,1,2,0.312,0.306,2,0,0.62
5,0,0,2,0.428,0.536,2,0,0.62
5,0,0,2,0.446,0.332,2,0,0.62
5,1,0,1,0.682,0.281,2,0,0.62
5,1,1,1,0.307,0.301,2,0,0.62
5,1,0,1,0.372,0.34,2,0,0.62
5,0,1,1,0.355,0.28,2,0,0.62
5,1,0,2,0.434,0.31,2,0,0.62
5,0,1,2,0.593,0.289,2,0,0.62
5,1,0,1,0.339,0.335,2,0,0.62
5,1,1,1,0.42,0.277,2,0,0.62
5,0,0,2,0.057,0.483,2,0,0.62
5,1,1,1,0.151,0.42,2,0,0.62
5,0,0,1,0.344,1.116,2,0,0.62
5,0,0,2,0.093,0.482,2,0,0.62
5,0,1,1,0.366,0.344,2,0,0.62
5,1,0,2,0.352,0.281,2,0,0.62
5,1,1,2,0.375,0.352,2,0,0.62
5,0,0,2,0.555,0.568,2,0,0.62
5,1,1,2,0.576,0.286,2,0,0.62
5,0,0,1,0.376,0.3,2,0,0.62
5,1,1,1,0.319,0.295,2,0,0.62
5,0,0,2,1.139,0.311,2,0,0.62
5,0,1,2,0.423,0.333,2,0,0.62
5,0,1,2,0.465,0.289,2,0,0.62
5,1,1,3,0.368,0.231,2,0,0.62
5,0,1,1,0.264,0.32,2,0,0.62
5,1,0,1,0.471,0.321,2,0,0.62
5,1,1,3,0.469,0.367,2,0,0.62
5,1,1,2,0.425,0.34,2,0,0.62
5,1,0,1,0.387,0.304,2,0,0.62
5,1,1,1,0.426,0.279,2,0,0.62
5,0,1,3,0.265,0.278,2,1,5
5,0,1,3,1.09,0.48,2,0,0.62
5,0,1,1,0.718,0.461,2,0,0.62
5,0,0,1,0.614,0.319,2,0,0.62
5,1,1,3,0.379,0.272,2,0,0.62
5,0,1,1,0.561,0.323,2,0,0.62
5,0,1,3,0.517,0.336,2,0,0.62
5,0,1,1,0.431,0.296,2,0,0.62
5,0,0,2,0.436,0.326,2,0,0.62
5,0,1,3,0.532,0.316,2,0,0.62
5,1,1,2,0.575,0.32,2,0,0.62
5,0,1,1,0.428,0.357,2,0,0.62
5,1,1,3,0.417,0.425,2,0,0.62
5,1,1,1,0.373,0.289,2,0,0.62
5,0,1,2,0.309,0.483,2,0,0.62
5,0,1,3,0.662,0.403,2,0,0.62
5,1,0,2,0.51,0.413,2,0,0.62
5,0,1,2,0.877,0.329,2,0,0.62
5,1,0,2,0.487,0.299,2,0,0.62
5,0,1,2,0.404,0.313,2,0,0.62
5,0,1,1,0.284,0.301,2,1,5
5,0,1,1,3.319,0.8,1,0,5.5
5,1,1,2,2.048,0.404,1,0,5.5
5,1,0,1,0.962,0.304,1,0,5.5
5,1,0,1,0.649,0.435,1,0,5.5
5,1,0,1,0.456,0.341,1,0,5.5
5,1,1,1,0.999,0.351,1,0,5.5
5,1,0,2,0.431,0.318,1,0,5.5
5,1,1,1,0.414,0.312,1,0,5.5
5,1,0,2,0.399,0.29,1,0,5.5
5,0,1,1,0.418,0.384,1,0,5.5
5,0,1,3,0.652,0.291,1,0,5.5
5,0,1,1,0.478,0.318,1,0,5.5
5,0,0,2,0.62,0.412,1,0,5.5
5,1,1,2,0.389,0.307,1,0,5.5
5,0,0,2,0.351,0.297,1,0,5.5
5,0,1,2,0.377,0.342,1,0,5.5
5,1,1,2,0.291,0.362,1,0,5.5
5,1,0,1,0.003,0.596,1,0,5.5
5,1,1,1,0.411,0.271,1,0,5.5
5,0,0,1,0.542,0.341,1,0,5.5
5,1,1,2,0.275,0.374,1,0,5.5
5,0,1,1,0.292,0.388,1,0,5.5
5,0,1,1,0.687,0.443,1,0,5.5
5,1,1,2,1.345,0.282,1,0,5.5
5,1,1,2,0.487,0.386,1,0,5.5
5,1,1,1,0.858,0.211,1,0,5.5
5,0,1,3,0.17,0.396,1,0,5.5
5,0,0,2,1.853,0.34,1,0,5.5
5,0,0,2,0.576,0.312,1,0,5.5
5,0,1,1,0.627,0.263,1,0,5.5
5,1,0,2,1.437,0.528,1,0,5.5
5,0,0,2,0.375,0.308,1,0,5.5
5,1,1,2,0.484,0.876,1,0,5.5
5,1,1,1,0.77,0.322,1,0,5.5
5,0,0,2,0.253,0.304,1,0,5.5
5,0,1,1,0.627,0.317,1,0,5.5
5,0,0,2,0.508,0.259,1,0,5.5
5,1,1,1,0.622,0.333,1,0,5.5
5,0,0,2,0.512,0.372,1,0,5.5
5,0,0,4,1.553,1.264,1,1,15
5,0,1,2,0.676,0.469,1,0,5.5
5,1,0,2,0.936,0.378,1,0,5.5
5,1,1,1,0.367,0.262,1,0,5.5
5,0,0,3,1.127,0.529,1,0,5.5
5,0,0,3,0.519,0.262,1,0,5.5
5,0,0,1,0.602,0.309,1,0,5.5
5,1,0,2,0.364,0.375,1,0,5.5
5,0,0,3,0.756,0.601,1,0,5.5
5,1,0,3,0.542,0.338,1,0,5.5
5,1,0,3,0.913,0.338,1,0,5.5
5,1,0,3,0.423,0.277,1,0,5.5
5,0,0,2,0.504,0.301,1,0,5.5
5,1,1,2,0.372,0.444,1,0,5.5
5,0,0,2,1.04,0.715,1,0,5.5
5,1,0,2,0.472,0.518,1,0,5.5
5,0,0,2,0.458,0.415,1,0,5.5
5,1,0,2,0.373,0.516,1,0,5.5
5,0,0,3,0.482,0.385,1,0,5.5
5,1,0,3,1.552,0.377,1,0,5.5
5,0,0,2,0.531,0.364,1,0,5.5
5,1,0,2,0.26,0.38,1,0,5.5
5,0,0,3,0.515,0.446,1,0,5.5
5,0,0,3,0.496,0.299,1,0,5.5
5,0,0,3,0.482,0.658,1,0,5.5
5,0,0,3,0.702,0.353,1,0,5.5
5,0,0,3,0.4,0.28,1,0,5.5
5,0,0,3,0.485,0.219,1,0,5.5
5,0,0,3,0.492,0.209,1,0,5.5
5,1,0,3,0.4,0.361,1,0,5.5
5,0,0,2,0.588,0.375,1,0,5.5
5,1,0,3,0.476,0.18,1,0,5.5
5,0,0,3,0.48,0.324,1,0,5.5
5,1,0,3,0.58,0.327,1,0,5.5
5,1,0,3,0.38,0.293,1,0,5.5
5,1,0,3,0.388,0.2,1,0,5.5
5,1,0,2,0.371,0.217,1,0,5.5
5,0,0,2,0.31,0.299,1,0,5.5
5,1,0,2,0.286,0.311,1,0,5.5
5,0,0,3,0.551,0.44,1,0,5.5
5,0,0,3,0.949,0.376,1,1,15
5,1,0,3,0.705,0.268,1,0,5.5
5,1,0,3,0.485,0.363,1,0,5.5
5,0,0,3,0.546,0.327,1,0,5.5
5,1,0,3,0.419,0.311,1,0,5.5
5,0,0,3,0.337,0.211,1,0,5.5
5,0,0,3,0.333,0.256,1,0,5.5
5,1,0,3,0.457,0.259,1,0,5.5
5,0,0,4,0.906,0.262,1,0,5.5
5,0,0,3,0.409,0.278,1,0,5.5
5,1,0,3,0.44,0.267,1,0,5.5
5,1,0,3,0.463,0.247,1,0,5.5
5,0,0,3,0.362,0.259,1,0,5.5
5,0,0,4,0.797,0.59,1,0,5.5
5,0,0,4,0.401,0.356,1,0,5.5
5,0,0,3,0.279,0.213,1,0,5.5
5,1,1,3,1.111,0.359,1,0,5.5
5,1,0,3,0.393,0.264,1,0,5.5
5,1,0,3,0.432,0.217,1,0,5.5
5,0,0,2,0.247,0.269,1,0,5.5
5,1,1,4,1.952,0.295,1,1,15
6,1,1,3,5.259,0.799,1,0,5.5
6,0,1,4,2.085,0.288,1,0,5.5
6,0,0,3,1.469,0.246,1,0,5.5
6,1,1,4,1.288,0.526,1,0,5.5
6,1,1,4,0.88,0.205,1,0,5.5
6,1,1,4,0.356,0.178,1,0,5.5
6,0,0,4,0.911,0.287,1,0,5.5
6,0,0,4,0.661,0.269,1,0,5.5
6,0,1,3,1.204,0.252,1,0,5.5
6,0,1,2,0.962,0.182,1,0,5.5
6,0,0,1,0.461,0.174,1,0,5.5
6,1,1,3,0.341,0.254,1,0,5.5
6,1,1,3,0.314,0.218,1,0,5.5
6,1,1,3,0.369,0.181,1,0,5.5
6,0,1,3,0.282,0.163,1,0,5.5
6,0,1,3,0.448,0.153,1,0,5.5
6,0,0,2,0.605,0.312,1,0,5.5
6,0,1,3,0.932,0.453,1,0,5.5
6,1,1,1,0.695,0.245,1,0,5.5
6,0,0,2,0.335,0.266,1,0,5.5
6,0,0,3,2.281,0.189,1,0,5.5
6,0,0,3,0.609,0.244,1,0,5.5
6,0,0,4,0.452,0.155,1,0,5.5
6,0,0,3,0.282,0.218,1,0,5.5
6,1,1,3,0.604,0.27,1,0,5.5
6,0,0,2,0.187,0.246,1,0,5.5
6,1,0,2,0.341,0.195,1,0,5.5
6,0,1,1,0.314,0.638,1,0,5.5
6,1,1,3,0.712,0.25,1,0,5.5
6,1,1,4,0.739,0.238,1,0,5.5
6,0,0,2,0.318,0.193,1,0,5.5
6,0,0,2,0.282,0.205,1,0,5.5
6,1,1,3,0.464,0.182,1,0,5.5
6,1,0,2,0.179,0.208,1,0,5.5
6,0,0,4,0.467,0.306,1,0,5.5
6,0,0,2,0.448,0.206,1,0,5.5
6,0,0,2,0.329,0.22,1,0,5.5
6,1,0,3,0.437,0.665,1,0,5.5
6,1,1,3,0.238,0.247,1,0,5.5
6,0,0,3,0.228,0.238,1,1,15
6,1,1,3,0.273,0.321,1,0,5.5
6,1,1,4,0.517,0.174,1,0,5.5
6,1,1,4,0.403,0.206,1,0,5.5
6,1,0,4,0.348,0.222,1,0,5.5
6,0,0,2,1.195,0.178,1,0,5.5
6,0,0,3,0.58,0.226,1,0,5.5
6,1,1,4,0.353,0.478,1,0,5.5
6,0,0,2,0.666,0.177,1,0,5.5
6,0,0,3,0.23,0.214,1,0,5.5
6,1,1,3,0.386,0.269,1,0,5.5
6,1,1,3,0.714,0.231,1,0,5.5
6,1,1,4,0.323,0.203,1,0,5.5
6,0,0,2,0.505,0.15,1,0,5.5
6,0,1,1,0.89,0.661,1,0,5.5
6,1,0,3,0.582,0.315,1,0,5.5
6,0,0,2,0.48,0.239,1,0,5.5
6,1,1,4,0.468,0.213,1,0,5.5
6,0,1,4,0.82,0.397,1,0,5.5
6,0,0,2,0.41,0.244,1,0,5.5
6,0,0,2,0.631,0.222,1,0,5.5
6,1,1,3,0.246,0.175,1,0,5.5
6,1,1,4,0.354,0.205,1,0,5.5
6,0,0,2,0.311,0.19,1,0,5.5
6,0,0,2,0.761,0.214,1,0,5.5
6,1,0,3,0.786,0.261,1,0,5.5
6,0,1,3,0.807,0.235,1,0,5.5
6,1,1,4,0.316,0.205,1,0,5.5
6,0,0,2,0.197,0.186,1,0,5.5
6,1,0,2,0.281,0.179,1,0,5.5
6,1,0,2,0.343,0.198,1,0,5.5
6,1,1,3,0.165,0.23,1,0,5.5
6,1,1,4,0.396,0.196,1,0,5.5
6,0,0,2,0.198,0.214,1,0,5.5
6,0,0,3,0.27,0.25,1,0,5.5
6,1,0,2,0.396,0.183,1,0,5.5
6,0,0,2,0.249,0.196,1,0,5.5
6,1,1,2,0.711,0.454,1,0,5.5
6,1,0,2,0.565,0.163,1,0,5.5
6,1,1,3,0.693,0.168,1,0,5.5
6,0,0,2,0.397,0.18,1,1,15
6,1,1,3,0.454,0.163,1,0,5.5
6,0,1,4,0.984,0.214,1,0,5.5
6,0,0,2,0.436,0.173,1,0,5.5
6,1,1,3,0.601,0.402,1,0,5.5
6,0,0,2,1.078,0.669,1,0,5.5
6,1,1,3,0.588,0.307,1,0,5.5
6,1,1,4,0.399,0.17,1,0,5.5
6,0,0,2,0.208,0.163,1,0,5.5
6,0,0,3,0.133,0.248,1,0,5.5
6,0,0,2,0.368,0.197,1,0,5.5
6,0,0,2,0.363,0.238,1,0,5.5
6,0,1,3,0.417,0.214,1,0,5.5
6,1,1,3,0.628,0.66,1,0,5.5
6,0,0,2,0.599,0.203,1,0,5.5
6,1,1,4,0.327,0.246,1,0,5.5
6,1,1,4,0.998,0.323,1,0,5.5
6,1,1,4,0.839,0.213,1,0,5.5
6,0,0,2,0.919,0.213,1,0,5.5
6,1,1,4,0.619,0.198,1,0,5.5
6,1,1,3,0.508,0.406,1,1,15
6,1,0,3,1.227,0.249,2,0,0.62
6,1,0,1,1.166,0.224,2,0,0.62
6,1,1,1,0.211,0.191,2,0,0.62
6,1,1,1,0.475,0.234,2,0,0.62
6,0,1,1,0.137,0.195,2,0,0.62
6,1,1,1,0.187,0.166,2,0,0.62
6,0,1,2,0.192,1.283,2,0,0.62
6,1,0,2,0.542,0.184,2,0,0.62
6,1,0,1,0.081,0.187,2,0,0.62
6,1,1,1,0.211,0.19,2,0,0.62
6,0,0,2,0.383,0.19,2,0,0.62
6,0,1,2,0.346,0.18,2,0,0.62
6,1,0,2,0.431,0.179,2,0,0.62
6,1,0,2,0.275,0.192,2,0,0.62
6,1,0,2,0.018,1.705,2,0,0.62
6,0,0,1,0.026,0.181,2,0,0.62
6,1,1,2,0.079,0.19,2,0,0.62
6,0,0,1,0.222,0.911,2,0,0.62
6,0,0,2,0.764,0.19,2,0,0.62
6,0,1,2,0.013,0.246,2,0,0.62
6,1,0,1,0.45,0.47,2,0,0.62
6,0,1,1,0.012,0.149,2,0,0.62
6,1,1,1,0.487,0.166,2,0,0.62
6,1,1,1,0.642,0.152,2,0,0.62
6,1,1,1,0.162,0.166,2,0,0.62
6,1,1,1,0.118,0.154,2,0,0.62
6,0,1,1,0.04,1.274,2,0,0.62
6,1,0,2,0.45,0.182,2,0,0.62
6,0,1,1,0.162,0.164,2,0,0.62
6,0,0,1,0.171,0.754,2,0,0.62
6,1,0,1,0.136,0.222,2,0,0.62
6,1,1,1,0.018,0.156,2,0,0.62
6,1,0,1,0.254,0.534,2,0,0.62
6,0,0,1,0.082,0.594,2,0,0.62
6,1,0,1,0.674,0.648,2,0,0.62
6,0,0,1,0.264,0.245,2,0,0.62
6,1,1,1,0.009,0.142,2,0,0.62
6,0,0,1,0.222,0.173,2,0,0.62
6,1,0,1,0.04,0.198,2,0,0.62
6,0,0,3,1.666,1.418,2,1,5
6,1,1,1,0.685,0.198,2,0,0.62
6,1,1,1,0.401,0.174,2,0,0.62
6,0,1,1,0.129,0.158,2,0,0.62
6,0,0,2,0.013,0.198,2,0,0.62
6,0,0,1,0.107,0.735,2,0,0.62
6,0,0,1,0.099,0.215,2,0,0.62
6,1,1,1,0.482,0.182,2,0,0.62
6,1,0,1,0.115,0.198,2,0,0.62
6,0,1,1,0.002,0.167,2,0,0.62
6,1,1,1,0.041,0.174,2,0,0.62
6,1,0,1,0.049,0.613,2,0,0.62
6,1,0,1,0.268,0.183,2,0,0.62
6,1,0,1,0.026,0.213,2,0,0.62
6,1,0,1,0.043,0.662,2,0,0.62
6,0,0,1,0.135,0.678,2,0,0.62
6,1,0,1,0.042,0.189,2,0,0.62
6,1,0,1,0.128,0.555,2,0,0.62
6,0,1,1,0.12,0.153,2,0,0.62
6,0,0,1,0.501,0.171,2,0,0.62
6,1,1,1,0.44,0.181,2,0,0.62
6,1,0,1,0.203,0.174,2,0,0.62
6,1,1,1,0.002,0.19,2,0,0.62
6,0,1,2,0.69,0.482,2,0,0.62
6,0,0,2,0.21,0.276,2,0,0.62
6,1,0,1,0.163,0.715,2,0,0.62
6,1,1,1,0.394,0.758,2,0,0.62
6,0,0,2,0.1,0.238,2,0,0.62
6,1,0,1,0.165,1.222,2,0,0.62
6,1,1,2,0.253,0.163,2,0,0.62
6,1,1,1,0.025,0.182,2,0,0.62
6,0,1,2,0.151,0.686,2,0,0.62
6,1,0,1,0.068,0.264,2,0,0.62
6,0,0,2,0.162,0.414,2,0,0.62
6,1,0,1,0.096,0.246,2,0,0.62
6,0,0,1,0.063,0.415,2,0,0.62
6,1,0,1,0.147,0.404,2,0,0.62
6,0,0,1,0.161,0.279,2,0,0.62
6,0,1,2,0.044,0.358,2,0,0.62
6,0,0,1,0.19,1.215,2,0,0.62
6,0,1,3,4.247,0.49,2,1,5
6,1,0,2,0.467,0.35,2,0,0.62
6,1,0,1,0.146,0.161,2,0,0.62
6,0,0,2,0.417,0.214,2,0,0.62
6,0,0,1,0.053,0.502,2,0,0.62
6,0,1,1,0.059,0.198,2,0,0.62
6,1,0,1,0.194,1.742,2,0,0.62
6,1,1,2,0.069,0.471,2,0,0.62
6,0,0,1,0.301,0.726,2,0,0.62
6,0,0,2,0.169,0.002,2,0,0.62
6,1,1,2,0.354,0.282,2,0,0.62
6,0,0,1,0.464,0.182,2,0,0.62
6,1,1,1,0.249,0.214,2,0,0.62
6,0,1,1,0.187,0.199,2,0,0.62
6,0,0,1,0.141,0.198,2,0,0.62
6,0,1,1,0.134,0.222,2,0,0.62
6,0,1,1,0.11,0.246,2,0,0.62
6,0,0,1,1.261,0.596,2,0,0.62
6,1,1,1,0.661,0.215,2,0,0.62
6,0,0,2,0.59,0.182,2,0,0.62
6,0,0,2,3.965,0.906,2,1,5
7,1,1,1,0.581,1.719,2,0,0.62
7,0,0,4,1.081,1.721,2,0,0.62
7,1,0,3,2.595,1.623,2,0,0.62
7,1,1,1,2.205,1.245,2,0,0.62
7,0,0,4,1.053,1.654,2,0,0.62
7,1,0,2,1.359,1.935,2,0,0.62
7,0,0,4,2.818,2.814,2,0,0.62
7,0,0,4,0.617,1.01,2,0,0.62
7,1,0,1,1.817,1.899,2,0,0.62
7,1,0,1,1.68,0.947,2,0,0.62
7,0,0,3,0.979,1.133,2,0,0.62
7,0,0,4,0.941,0.737,2,0,0.62
7,0,0,4,0.724,0.639,2,0,0.62
7,1,0,2,1.059,1.208,2,0,0.62
7,1,0,3,1.987,1.96,2,0,0.62
7,0,0,3,0.514,0.813,2,0,0.62
7,1,0,3,1.172,0.726,2,0,0.62
7,0,0,3,0.718,1.15,2,0,0.62
7,0,0,3,0.449,1.303,2,0,0.62
7,1,0,1,3.085,0.59,2,0,0.62
7,0,0,4,0.451,1.226,2,0,0.62
7,0,0,4,0.376,0.608,2,0,0.62
7,0,0,4,1.638,0.919,2,0,0.62
7,1,0,2,0.863,1.144,2,0,0.62
7,1,0,3,1.084,1.312,2,0,0.62
7,1,0,2,1.763,1.061,2,0,0.62
7,1,0,1,1.32,1.371,2,0,0.62
7,1,0,2,1.43,1.519,2,0,0.62
7,1,0,2,0.888,1.801,2,0,0.62
7,1,0,1,1.836,0.868,2,0,0.62
7,1,0,1,1.506,0.61,2,0,0.62
7,0,0,3,0.887,0.931,2,0,0.62
7,1,0,3,1.474,1.077,2,0,0.62
7,1,0,3,0.87,0.462,2,0,0.62
7,0,0,3,0.57,0.29,2,0,0.62
7,1,0,3,0.8,0.269,2,0,0.62
7,0,0,3,0.795,0.31,2,0,0.62
7,1,0,3,0.94,0.269,2,0,0.62
7,0,0,3,0.352,0.254,2,0,0.62
7,1,1,4,2.959,0.438,2,1,5
7,0,0,4,0.397,0.734,2,0,0.62
7,1,1,1,2.633,1.177,2,0,0.62
7,0,0,4,0.684,0.649,2,0,0.62
7,1,0,3,1.182,0.966,2,0,0.62
7,0,0,4,0.452,0.629,2,0,0.62
7,0,0,4,0.599,0.446,2,0,0.62
7,0,0,4,0.252,0.337,2,0,0.62
7,1,0,2,1.626,1.777,2,0,0.62
7,1,0,3,0.847,1.082,2,0,0.62
7,0,0,3,1.375,0.659,2,0,0.62
7,0,0,3,0.459,0.718,2,0,0.62
7,1,0,1,1.355,0.4,2,0,0.62
7,0,0,4,0.605,0.578,2,0,0.62
7,1,0,2,2.034,1.316,2,0,0.62
7,1,0,1,1.613,1.211,2,0,0.62
7,1,0,1,1.506,0.952,2,0,0.62
7,0,0,3,0.801,0.875,2,0,0.62
7,0,0,4,0.574,0.692,2,0,0.62
7,1,1,1,1.664,0.615,2,0,0.62
7,1,1,1,1.492,1.03,2,0,0.62
7,0,0,4,0.382,0.696,2,0,0.62
7,0,0,4,0.326,0.44,2,0,0.62
7,1,0,4,1.219,0.366,2,0,0.62
7,1,1,1,2.355,0.634,2,0,0.62
7,0,0,4,0.506,0.305,2,0,0.62
7,0,0,4,1.13,0.446,2,0,0.62
7,1,1,1,1.357,0.57,2,0,0.62
7,0,0,3,0.947,0.756,2,0,0.62
7,1,0,3,1.855,1.118,2,0,0.62
7,0,0,3,0.67,0.426,2,0,0.62
7,0,0,4,0.321,0.49,2,0,0.62
7,1,0,4,0.451,0.306,2,0,0.62
7,1,0,4,0.894,0.428,2,0,0.62
7,0,0,4,0.301,0.258,2,0,0.62
7,0,0,4,0.427,0.237,2,0,0.62
7,1,1,1,1.491,0.374,2,0,0.62
7,1,1,1,1.931,0.94,2,0,0.62
7,1,1,1,2.076,0.221,2,0,0.62
7,1,1,1,1.303,0.253,2,0,0.62
7,1,1,4,1.135,0.265,2,1,5
7,0,0,4,0.692,0.252,2,0,0.62
7,0,0,4,0.262,0.164,2,0,0.62
7,0,0,4,1.634,0.32,2,0,0.62
7,1,1,1,1.318,0.57,2,0,0.62
7,1,1,1,2.747,0.506,2,0,0.62
7,1,1,3,0.933,0.655,2,0,0.62
7,0,0,4,1.073,0.216,2,0,0.62
7,1,1,2,0.974,1.057,2,0,0.62
7,1,1,3,1.005,0.399,2,0,0.62
7,1,1,4,1.334,0.718,2,0,0.62
7,1,1,4,0.24,0.294,2,0,0.62
7,1,1,4,0.874,0.22,2,0,0.62
7,1,1,4,0.272,0.193,2,0,0.62
7,0,0,2,1.399,0.461,2,0,0.62
7,0,0,4,0.692,0.214,2,0,0.62
7,1,1,4,0.888,0.187,2,0,0.62
7,0,0,4,0.615,0.213,2,0,0.62
7,0,0,4,0.407,0.25,2,0,0.62
7,0,0,4,1.247,0.331,2,0,0.62
7,0,0,4,0.677,0.233,2,1,5
7,0,0,1,0.782,0.632,1,0,5.5
7,1,1,1,1.313,0.688,1,0,5.5
7,0,0,1,0.765,1.51,1,0,5.5
7,0,0,1,0.678,0.57,1,0,5.5
7,0,0,1,0.392,0.449,1,0,5.5
7,0,0,1,0.465,0.501,1,0,5.5
7,0,1,1,1.069,0.676,1,0,5.5
7,1,1,2,0.576,0.556,1,0,5.5
7,0,0,1,0.765,0.624,1,0,5.5
7,0,0,1,0.594,0.467,1,0,5.5
7,0,0,1,0.984,0.342,1,0,5.5
7,0,0,1,0.685,0.394,1,0,5.5
7,0,0,1,0.818,0.687,1,0,5.5
7,1,1,1,1.364,0.43,1,0,5.5
7,0,0,1,0.557,0.409,1,0,5.5
7,0,0,1,0.785,0.458,1,0,5.5
7,1,0,1,1.773,1.051,1,0,5.5
7,0,0,1,0.321,0.396,1,0,5.5
7,0,0,1,0.346,0.329,1,0,5.5
7,0,0,1,1.015,0.284,1,0,5.5
7,1,0,1,0.677,0.383,1,0,5.5
7,0,0,1,0.454,0.369,1,0,5.5
7,0,0,1,0.476,0.356,1,0,5.5
7,0,0,1,0.538,0.37,1,0,5.5
7,0,1,1,1.179,0.336,1,0,5.5
7,0,0,3,0.84,0.509,1,0,5.5
7,0,0,2,0.587,0.816,1,0,5.5
7,0,0,2,0.441,0.717,1,0,5.5
7,1,0,2,0.922,0.606,1,0,5.5
7,0,0,3,0.41,0.4,1,0,5.5
7,1,1,1,1.443,0.359,1,0,5.5
7,1,1,1,0.657,0.58,1,0,5.5
7,0,0,2,0.396,0.875,1,0,5.5
7,1,0,1,0.858,0.533,1,0,5.5
7,1,1,1,0.964,0.255,1,0,5.5
7,0,0,1,0.397,1.177,1,0,5.5
7,0,0,1,0.297,0.673,1,0,5.5
7,1,0,1,0.404,0.344,1,0,5.5
7,1,1,1,0.928,0.445,1,0,5.5
7,0,0,4,1.717,0.3,1,1,15
7,1,0,1,0.511,0.329,1,0,5.5
7,0,0,1,0.482,0.307,1,0,5.5
7,0,0,1,1.003,0.321,1,0,5.5
7,0,0,1,0.637,0.403,1,0,5.5
7,0,1,1,1.297,0.276,1,0,5.5
7,1,1,3,0.93,0.317,1,0,5.5
7,1,1,1,1.308,0.509,1,0,5.5
7,1,1,1,1.299,0.356,1,0,5.5
7,0,0,3,0.899,0.368,1,0,5.5
7,1,0,3,1.232,0.433,1,0,5.5
7,0,0,3,0.713,0.283,1,0,5.5
7,1,0,1,1.164,0.772,1,0,5.5
7,0,0,2,0.511,0.703,1,0,5.5
7,0,0,1,1.389,0.568,1,0,5.5
7,0,0,2,0.959,0.383,1,0,5.5
7,0,0,1,0.452,0.959,1,0,5.5
7,1,1,1,1.03,0.187,1,0,5.5
7,1,1,1,0.773,0.177,1,0,5.5
7,1,1,1,0.676,0.2,1,0,5.5
7,0,0,1,0.8,0.406,1,0,5.5
7,1,1,2,1.561,0.745,1,0,5.5
7,1,1,2,0.628,0.393,1,0,5.5
7,1,1,3,1.088,0.284,1,0,5.5
7,0,1,1,2.181,0.186,1,0,5.5
7,1,1,3,0.714,0.188,1,0,5.5
7,0,0,3,1.477,0.214,1,0,5.5
7,1,1,3,0.906,0.215,1,0,5.5
7,1,0,2,1.123,0.663,1,0,5.5
7,0,0,2,0.382,0.518,1,0,5.5
7,0,0,3,0.271,0.475,1,0,5.5
7,0,1,1,1.458,0.178,1,0,5.5
7,0,0,1,0.897,0.313,1,0,5.5
7,0,0,1,0.387,0.307,1,0,5.5
7,0,0,1,0.516,0.262,1,0,5.5
7,0,0,2,0.911,0.365,1,0,5.5
7,0,0,3,0.627,0.926,1,0,5.5
7,1,1,3,1.193,0.515,1,0,5.5
7,1,1,3,0.424,0.228,1,0,5.5
7,1,1,3,0.453,0.182,1,0,5.5
7,0,0,4,1.207,0.199,1,1,15
7,1,0,3,1.422,0.258,1,0,5.5
7,0,0,3,0.124,0.236,1,0,5.5
7,1,1,4,0.832,0.217,1,0,5.5
7,1,0,1,1.419,0.304,1,0,5.5
7,1,1,3,0.764,0.263,1,0,5.5
7,0,1,3,0.397,0.187,1,0,5.5
7,1,1,3,0.397,0.186,1,0,5.5
7,1,1,3,0.613,0.197,1,0,5.5
7,1,1,3,0.299,0.207,1,0,5.5
7,1,1,2,1.357,0.596,1,0,5.5
7,1,1,3,0.299,0.207,1,0,5.5
7,1,1,3,0.538,0.254,1,0,5.5
7,0,1,3,0.406,0.223,1,0,5.5
7,0,0,1,2.116,0.343,1,0,5.5
7,0,0,4,1.069,0.777,1,0,5.5
7,1,1,1,1.314,0.476,1,0,5.5
7,0,0,1,0.871,0.836,1,0,5.5
7,0,0,1,1.013,0.373,1,0,5.5
7,1,0,1,0.354,0.287,1,0,5.5
7,1,1,4,1.277,0.266,1,1,15
8,0,0,2,0.379,1.91,2,0,0.62
8,0,0,2,0.657,0.56,2,0,0.62
8,1,1,3,1.656,0.815,2,0,0.62
8,1,0,1,0.834,0.477,2,0,0.62
8,0,1,2,1.816,0.807,2,0,0.62
8,1,1,2,0.739,0.858,2,0,0.62
8,1,1,3,0.284,0.669,2,0,0.62
8,1,1,3,0.278,0.614,2,0,0.62
8,0,0,1,0.776,0.75,2,0,0.62
8,0,0,1,0.479,0.624,2,0,0.62
8,1,1,3,0.749,0.431,2,0,0.62
8,1,1,2,0.626,0.406,2,0,0.62
8,0,0,3,0.282,0.513,2,0,0.62
8,1,1,4,0.79,0.615,2,0,0.62
8,0,0,4,0.504,0.56,2,0,0.62
8,0,0,4,0.38,0.957,2,0,0.62
8,1,1,4,0.481,0.662,2,0,0.62
8,0,0,2,0.429,0.365,2,0,0.62
8,1,1,3,0.988,0.481,2,0,0.62
8,0,0,2,0.337,0.512,2,0,0.62
8,0,0,2,0.213,0.383,2,0,0.62
8,0,0,2,0.599,0.495,2,0,0.62
8,1,1,3,0.226,0.564,2,0,0.62
8,0,0,2,0.242,0.512,2,0,0.62
8,0,0,1,0.297,0.451,2,0,0.62
8,1,1,2,0.211,0.554,2,0,0.62
8,1,1,2,0.112,0.391,2,0,0.62
8,0,0,1,0.17,0.576,2,0,0.62
8,0,1,1,0.334,0.453,2,0,0.62
8,1,1,1,0.236,0.339,2,0,0.62
8,0,1,1,1.006,0.251,2,0,0.62
8,0,1,1,0.541,0.38,2,0,0.62
8,0,1,1,0.757,0.369,2,0,0.62
8,0,0,1,0.239,0.488,2,0,0.62
8,1,1,1,0.175,0.539,2,0,0.62
8,1,1,2,0.13,0.358,2,0,0.62
8,1,1,2,0.017,0.453,2,0,0.62
8,1,1,2,0.167,0.479,2,0,0.62
8,0,0,1,0.373,0.642,2,0,0.62
8,0,0,4,0.312,1.031,2,1,5
8,1,1,2,1.22,0.449,2,0,0.62
8,0,0,2,0.442,0.713,2,0,0.62
8,0,0,1,0.304,0.361,2,0,0.62
8,1,1,2,0.169,0.402,2,0,0.62
8,0,0,1,0.271,0.82,2,0,0.62
8,1,1,2,0.24,0.347,2,0,0.62
8,1,1,2,0.046,0.46,2,0,0.62
8,1,1,3,0.152,0.396,2,0,0.62
8,0,1,2,0.614,0.334,2,0,0.62
8,1,1,3,1.462,0.38,2,0,0.62
8,1,1,3,0.224,0.597,2,0,0.62
8,1,1,3,0.028,0.358,2,0,0.62
8,1,1,3,0.024,0.363,2,0,0.62
8,1,1,1,0.761,0.196,2,0,0.62
8,0,0,1,0.156,0.432,2,0,0.62
8,0,0,1,0.153,0.406,2,0,0.62
8,0,1,1,0.685,0.298,2,0,0.62
8,0,1,1,0.084,0.381,2,0,0.62
8,1,1,1,0.111,0.355,2,0,0.62
8,0,0,1,0.889,0.34,2,0,0.62
8,1,1,3,0.188,0.747,2,0,0.62
8,1,1,2,0.211,0.336,2,0,0.62
8,1,1,2,0.099,0.327,2,0,0.62
8,1,1,2,0.026,0.394,2,0,0.62
8,0,0,1,0.587,0.401,2,0,0.62
8,0,0,2,0.185,0.448,2,0,0.62
8,1,1,1,0.035,0.543,2,0,0.62
8,0,1,1,0.589,0.243,2,0,0.62
8,0,1,1,0.246,0.276,2,0,0.62
8,0,0,1,0.996,0.378,2,0,0.62
8,0,1,2,1.122,0.203,2,0,0.62
8,0,0,1,0.498,0.272,2,0,0.62
8,1,1,1,0.188,0.289,2,0,0.62
8,0,0,1,0.775,0.216,2,0,0.62
8,0,0,2,0.567,0.252,2,0,0.62
8,1,1,1,0.2,0.352,2,0,0.62
8,1,1,2,0.188,0.558,2,0,0.62
8,1,1,2,0.047,0.361,2,0,0.62
8,0,0,1,0.558,0.336,2,0,0.62
8,1,1,3,0.081,0.376,2,1,5
8,0,0,1,0.538,0.317,2,0,0.62
8,1,1,2,0.106,0.376,2,0,0.62
8,0,0,1,0.391,0.339,2,0,0.62
8,0,1,1,0.088,0.365,2,0,0.62
8,0,1,1,0.477,0.314,2,0,0.62
8,1,1,1,0.28,0.289,2,0,0.62
8,1,1,2,0.123,0.315,2,0,0.62
8,1,1,3,0.033,0.301,2,0,0.62
8,0,0,1,0.705,0.39,2,0,0.62
8,1,1,1,0.135,0.44,2,0,0.62
8,0,1,1,0.095,0.332,2,0,0.62
8,0,1,1,0.383,0.282,2,0,0.62
8,1,1,2,0.355,0.407,2,0,0.62
8,1,1,3,0.078,0.315,2,0,0.62
8,1,1,2,0.207,0.51,2,0,0.62
8,1,1,3,0.25,0.287,2,0,0.62
8,0,0,1,0.661,0.285,2,0,0.62
8,1,1,2,0.234,0.534,2,0,0.62
8,1,1,2,0.249,0.336,2,0,0.62
8,0,0,3,0.193,0.843,2,1,5
8,0,0,3,0.756,1.081,1,0,5.5
8,0,0,3,0.322,0.428,1,0,5.5
8,1,1,4,1.053,0.96,1,0,5.5
8,1,1,3,0.683,0.382,1,0,5.5
8,0,0,4,0.175,0.418,1,0,5.5
8,1,1,3,0.918,0.967,1,0,5.5
8,0,0,3,0.812,0.947,1,0,5.5
8,0,0,4,0.249,0.473,1,0,5.5
8,0,0,4,0.077,0.427,1,0,5.5
8,1,0,2,1.208,0.362,1,0,5.5
8,1,1,2,0.496,0.619,1,0,5.5
8,0,0,4,0.143,0.531,1,0,5.5
8,0,0,2,0.298,0.475,1,0,5.5
8,0,0,2,0.332,0.559,1,0,5.5
8,0,0,3,0.152,0.456,1,0,5.5
8,1,1,2,0.464,0.505,1,0,5.5
8,1,1,3,0.119,0.43,1,0,5.5
8,1,1,3,0.179,0.868,1,0,5.5
8,1,1,2,0.223,0.495,1,0,5.5
8,0,0,2,0.336,0.826,1,0,5.5
8,0,0,1,0.11,0.543,1,0,5.5
8,0,0,2,0.078,0.349,1,0,5.5
8,0,0,2,0.072,0.398,1,0,5.5
8,1,0,1,0.342,0.419,1,0,5.5
8,1,1,2,0.141,0.522,1,0,5.5
8,0,0,2,0.103,0.419,1,0,5.5
8,1,0,2,0.255,0.398,1,0,5.5
8,1,1,2,0.184,0.632,1,0,5.5
8,0,0,2,0.153,0.424,1,0,5.5
8,0,0,2,0.195,0.38,1,0,5.5
8,1,1,2,0.259,0.383,1,0,5.5
8,0,0,1,0.136,0.459,1,0,5.5
8,1,1,2,0.127,0.354,1,0,5.5
8,0,0,2,0.229,0.483,1,0,5.5
8,1,1,3,0.654,0.455,1,0,5.5
8,0,1,1,0.506,1.13,1,0,5.5
8,0,0,2,0.176,0.521,1,0,5.5
8,1,1,2,0.082,0.664,1,0,5.5
8,1,0,2,0.185,0.517,1,0,5.5
8,0,0,4,0.247,0.749,1,1,15
8,1,1,3,0.545,0.599,1,0,5.5
8,1,1,2,0.065,0.32,1,0,5.5
8,0,0,2,0.063,0.565,1,0,5.5
8,1,1,1,0.173,0.484,1,0,5.5
8,0,1,1,0.857,0.348,1,0,5.5
8,1,1,2,0.09,0.427,1,0,5.5
8,1,1,2,0.322,1.979,1,0,5.5
8,1,1,1,0.318,0.358,1,0,5.5
8,0,0,1,0.34,0.34,1,0,5.5
8,1,1,2,0.266,0.39,1,0,5.5
8,0,0,2,0.165,0.396,1,0,5.5
8,1,1,2,0.167,0.324,1,0,5.5
8,1,1,2,0.292,0.288,1,0,5.5
8,0,0,2,0.094,0.342,1,0,5.5
8,0,0,2,0.176,0.359,1,0,5.5
8,1,1,1,0.167,0.461,1,0,5.5
8,0,0,2,0.102,0.852,1,0,5.5
8,1,1,2,0.369,0.368,1,0,5.5
8,1,1,1,0.067,0.415,1,0,5.5
8,0,0,1,0.025,0.609,1,0,5.5
8,0,1,1,0.288,0.443,1,0,5.5
8,1,1,2,0.128,0.38,1,0,5.5
8,1,1,2,0.009,0.32,1,0,5.5
8,1,1,2,0.16,0.383,1,0,5.5
8,1,1,1,0.205,0.793,1,0,5.5
8,0,0,2,0.079,0.405,1,0,5.5
8,1,1,1,0.062,0.448,1,0,5.5
8,0,0,1,0.018,0.345,1,0,5.5
8,0,1,1,0.239,0.395,1,0,5.5
8,0,0,1,0.446,0.431,1,0,5.5
8,0,0,1,0.006,0.478,1,0,5.5
8,0,0,1,0.393,2.242,1,0,5.5
8,0,0,2,0.214,1.054,1,0,5.5
8,0,0,1,0.345,0.293,1,0,5.5
8,1,1,1,1.244,0.388,1,0,5.5
8,0,0,2,0.432,0.398,1,0,5.5
8,0,0,2,0.365,0.334,1,0,5.5
8,0,0,2,0.08,0.383,1,0,5.5
8,0,0,1,0.25,0.383,1,0,5.5
8,1,1,4,0.234,0.831,1,1,15
8,1,1,2,0.736,0.376,1,0,5.5
8,1,0,1,0.822,0.297,1,0,5.5
8,1,1,1,0.496,0.299,1,0,5.5
8,1,1,1,0.147,0.274,1,0,5.5
8,0,0,1,0.273,0.258,1,0,5.5
8,1,1,1,0.115,0.362,1,0,5.5
8,0,0,1,0.203,0.352,1,0,5.5
8,0,0,2,0.483,0.395,1,0,5.5
8,1,1,1,0.221,0.322,1,0,5.5
8,1,1,2,0.277,0.408,1,0,5.5
8,1,1,2,0.097,0.338,1,0,5.5
8,0,0,2,0.277,0.498,1,0,5.5
8,0,0,1,0.323,0.299,1,0,5.5
8,1,1,1,0.172,0.463,1,0,5.5
8,0,0,1,0.205,0.329,1,0,5.5
8,0,0,2,0.7,0.299,1,0,5.5
8,0,0,3,0.22,0.466,1,0,5.5
8,1,1,1,0.856,0.25,1,0,5.5
8,0,0,1,0.492,0.398,1,0,5.5
8,1,1,4,0.684,0.791,1,1,15
9,1,0,1,8.07,1.233,2,0,0.62
9,1,0,1,1.052,0.674,2,0,0.62
9,1,1,1,1.405,0.785,2,0,0.62
9,1,0,1,0.814,0.567,2,0,0.62
9,1,1,1,0.741,0.554,2,0,0.62
9,1,0,1,0.7,0.601,2,0,0.62
9,1,0,1,0.747,0.523,2,0,0.62
9,0,0,1,0.634,0.511,2,0,0.62
9,1,0,1,0.587,0.431,2,0,0.62
9,1,1,1,1.217,0.959,2,0,0.62
9,0,0,1,0.967,0.462,2,0,0.62
9,1,0,1,0.542,0.37,2,0,0.62
9,0,1,2,0.534,0.412,2,0,0.62
9,0,0,1,0.37,0.448,2,0,0.62
9,0,1,1,0.694,0.847,2,0,0.62
9,0,0,1,0.446,0.981,2,0,0.62
9,0,1,1,0.501,0.501,2,0,0.62
9,0,0,1,0.37,0.467,2,0,0.62
9,0,0,1,0.513,0.405,2,0,0.62
9,0,0,1,0.708,0.401,2,0,0.62
9,0,0,1,1.027,0.356,2,0,0.62
9,1,0,1,0.376,0.399,2,0,0.62
9,1,0,1,0.446,0.309,2,0,0.62
9,1,0,1,0.423,0.333,2,0,0.62
9,0,0,1,0.329,0.368,2,0,0.62
9,0,0,1,0.468,0.351,2,0,0.62
9,0,0,1,0.392,0.369,2,0,0.62
9,1,0,1,0.472,0.355,2,0,0.62
9,0,0,1,0.401,0.344,2,0,0.62
9,0,0,1,0.359,0.376,2,0,0.62
9,0,0,1,0.242,0.337,2,0,0.62
9,1,0,1,0.351,0.292,2,0,0.62
9,0,0,1,0.275,0.295,2,0,0.62
9,0,0,1,0.352,0.354,2,0,0.62
9,1,0,1,0.036,0.342,2,0,0.62
9,1,0,1,0.081,0.356,2,0,0.62
9,1,0,1,0.242,0.354,2,0,0.62
9,0,0,1,0.06,0.379,2,0,0.62
9,0,0,1,0.44,0.293,2,0,0.62
9,1,1,1,0.594,0.644,2,1,5
9,1,1,1,1.33,0.78,2,0,0.62
9,1,0,1,0.743,0.313,2,0,0.62
9,1,1,1,1.004,0.359,2,0,0.62
9,0,0,1,0.509,0.306,2,0,0.62
9,0,0,1,0.454,0.314,2,0,0.62
9,0,0,1,0.604,0.261,2,0,0.62
9,0,0,1,0.359,0.232,2,0,0.62
9,0,0,1,0.237,0.236,2,0,0.62
9,1,0,1,0.252,0.217,2,0,0.62
9,1,0,1,0.327,0.2,2,0,0.62
9,1,0,1,0.243,0.19,2,0,0.62
9,0,0,1,0.212,0.18,2,0,0.62
9,1,1,1,0.812,0.452,2,0,0.62
9,1,1,1,0.57,0.277,2,0,0.62
9,1,0,1,0.473,0.359,2,0,0.62
9,1,0,1,0.297,0.298,2,0,0.62
9,1,0,1,0.107,0.281,2,0,0.62
9,1,0,1,0.468,0.281,2,0,0.62
9,1,0,1,0.36,0.218,2,0,0.62
9,1,0,1,0.641,0.269,2,0,0.62
9,0,1,1,0.845,0.346,2,0,0.62
9,0,0,1,0.348,0.276,2,0,0.62
9,1,1,1,0.948,0.292,2,0,0.62
9,0,0,1,0.386,0.317,2,0,0.62
9,0,0,1,0.276,0.335,2,0,0.62
9,0,0,1,0.245,0.295,2,0,0.62
9,0,0,1,0.074,0.277,2,0,0.62
9,0,0,1,0.022,0.183,2,0,0.62
9,0,0,1,0.088,1.526,2,0,0.62
9,1,0,1,0.261,0.224,2,0,0.62
9,1,0,1,0.028,0.204,2,0,0.62
9,0,0,1,0.024,0.184,2,0,0.62
9,0,0,1,0.177,1.173,2,0,0.62
9,0,0,1,0.286,1.751,2,0,0.62
9,0,0,1,0.223,0.316,2,0,0.62
9,0,0,1,0.04,0.249,2,0,0.62
9,1,0,1,0.115,0.239,2,0,0.62
9,1,0,1,0.179,1.158,2,0,0.62
9,1,1,1,0.859,0.344,2,0,0.62
9,1,1,4,1.537,2.02,2,1,5
9,1,1,2,4.051,0.453,2,0,0.62
9,1,1,2,0.748,0.286,2,0,0.62
9,1,1,2,0.462,0.22,2,0,0.62
9,1,1,2,0.258,0.198,2,0,0.62
9,1,1,2,0.234,0.206,2,0,0.62
9,0,1,2,0.02,0.215,2,0,0.62
9,0,1,2,0.035,0.236,2,0,0.62
9,1,1,2,0.239,0.192,2,0,0.62
9,0,0,1,1.586,0.366,2,0,0.62
9,0,0,1,0.22,0.211,2,0,0.62
9,0,0,1,0.025,0.139,2,0,0.62
9,0,0,1,0.072,0.172,2,0,0.62
9,0,0,1,0.346,0.191,2,0,0.62
9,0,0,1,0.171,2.212,2,0,0.62
9,0,0,1,0.355,0.197,2,0,0.62
9,1,1,1,1.04,0.335,2,0,0.62
9,1,0,1,0.546,0.319,2,0,0.62
9,1,0,1,0.094,0.284,2,0,0.62
9,1,1,1,0.403,0.346,2,0,0.62
9,1,1,4,1.408,0.777,2,1,5
9,0,0,1,1.509,0.37,1,0,5.5
9,0,0,1,0.4,0.338,1,0,5.5
9,1,0,1,0.526,0.28,1,0,5.5
9,0,0,1,0.895,0.267,1,0,5.5
9,1,0,1,2.685,0.404,1,0,5.5
9,0,0,1,4.444,1.479,1,0,5.5
9,0,0,1,4.603,0.623,1,0,5.5
9,1,0,1,0.566,0.322,1,0,5.5
9,0,0,1,0.673,0.248,1,0,5.5
9,0,0,1,0.354,0.253,1,0,5.5
9,1,0,1,0.27,0.237,1,0,5.5
9,0,0,1,0.792,0.206,1,0,5.5
9,0,0,1,0.094,0.22,1,0,5.5
9,0,0,1,0.086,0.198,1,0,5.5
9,1,0,1,0.142,2.827,1,0,5.5
9,0,0,1,0.08,0.371,1,0,5.5
9,0,0,1,0.245,0.25,1,0,5.5
9,0,0,1,0.229,1.975,1,0,5.5
9,0,0,1,0.056,0.269,1,0,5.5
9,0,0,1,0.175,0.24,1,0,5.5
9,0,0,1,0.209,0.395,1,0,5.5
9,0,0,1,0.087,0.246,1,0,5.5
9,0,0,1,0.044,0.2,1,0,5.5
9,0,0,1,0.105,0.99,1,0,5.5
9,1,0,1,3.056,0.663,1,0,5.5
9,1,0,1,2.956,1.914,1,0,5.5
9,0,0,1,2.868,0.842,1,0,5.5
9,0,0,1,7.833,0.471,1,0,5.5
9,1,0,1,0.519,0.193,1,0,5.5
9,0,0,1,0.175,1.893,1,0,5.5
9,1,0,1,0.551,2.227,1,0,5.5
9,1,0,1,0.475,0.381,1,0,5.5
9,0,0,1,0.169,0.296,1,0,5.5
9,0,0,1,0.355,0.69,1,0,5.5
9,1,0,1,0.312,0.841,1,0,5.5
9,0,0,1,0.008,0.326,1,0,5.5
9,0,0,1,0.278,0.492,1,0,5.5
9,1,0,1,0.276,0.422,1,0,5.5
9,0,0,1,0.204,0.374,1,0,5.5
9,1,1,2,3.695,1.024,1,1,15
9,1,0,1,0.71,0.82,1,0,5.5
9,1,0,1,0.126,0.562,1,0,5.5
9,0,0,1,0.1,0.388,1,0,5.5
9,0,0,1,0.049,0.422,1,0,5.5
9,0,0,1,0.25,1.212,1,0,5.5
9,1,0,1,0.395,0.794,1,0,5.5
9,1,0,1,0.333,0.776,1,0,5.5
9,1,0,1,0.269,0.418,1,0,5.5
9,1,0,1,0.204,0.886,1,0,5.5
9,1,0,1,0.101,0.318,1,0,5.5
9,0,0,1,0.06,0.247,1,0,5.5
9,0,1,1,0.431,1.142,1,0,5.5
9,1,1,1,0.386,0.506,1,0,5.5
9,1,1,1,0.071,0.396,1,0,5.5
9,0,0,1,0.053,0.678,1,0,5.5
9,0,0,1,0.004,0.386,1,0,5.5
9,0,0,1,0.305,0.921,1,0,5.5
9,0,0,1,0.312,0.738,1,0,5.5
9,1,0,1,0.045,0.371,1,0,5.5
9,0,0,1,0.315,1.021,1,0,5.5
9,0,0,1,0.133,0.622,1,0,5.5
9,1,0,1,0.562,0.404,1,0,5.5
9,0,0,1,0.03,0.394,1,0,5.5
9,1,0,1,0.08,0.376,1,0,5.5
9,0,0,1,0.308,0.415,1,0,5.5
9,0,0,1,0.782,0.382,1,0,5.5
9,1,0,1,0.105,0.592,1,0,5.5
9,0,0,1,0.452,0.433,1,0,5.5
9,0,0,1,0.068,0.713,1,0,5.5
9,0,0,1,0.518,0.666,1,0,5.5
9,0,0,1,0.064,0.629,1,0,5.5
9,0,0,1,0.557,1.389,1,0,5.5
9,0,0,1,0.373,0.347,1,0,5.5
9,1,0,1,0.413,0.362,1,0,5.5
9,1,0,1,0.043,0.321,1,0,5.5
9,0,0,1,0.069,0.348,1,0,5.5
9,0,0,1,0.639,0.666,1,0,5.5
9,1,0,1,0.031,0.491,1,0,5.5
9,0,0,1,0.111,0.465,1,0,5.5
9,0,0,4,2.322,1.643,1,1,15
9,1,0,1,0.221,0.891,1,0,5.5
9,1,0,1,0.09,0.465,1,0,5.5
9,0,0,1,0.049,0.404,1,0,5.5
9,1,0,1,0.387,1.385,1,0,5.5
9,1,0,1,0.177,0.473,1,0,5.5
9,1,0,1,0.061,0.411,1,0,5.5
9,1,0,1,0.089,0.406,1,0,5.5
9,0,0,1,0.393,0.963,1,0,5.5
9,1,0,1,0.097,0.396,1,0,5.5
9,0,0,1,0.342,0.537,1,0,5.5
9,0,0,1,0.327,0.404,1,0,5.5
9,0,0,1,0.018,0.363,1,0,5.5
9,0,0,1,0.057,0.386,1,0,5.5
9,0,0,1,0.069,0.374,1,0,5.5
9,1,0,1,0.435,0.399,1,0,5.5
9,1,0,1,0.062,0.379,1,0,5.5
9,0,0,1,0.47,0.362,1,0,5.5
9,1,0,1,0.399,0.319,1,0,5.5
9,0,0,1,0.014,0.372,1,0,5.5
9,1,1,4,1.667,0.745,1,1,15
10,1,1,2,2.106,1.096,2,0,0.62
10,0,0,2,1.71,0.777,2,0,0.62
10,0,1,3,0.785,0.703,2,0,0.62
10,0,1,3,0.918,0.478,2,0,0.62
10,1,1,3,0.465,0.407,2,0,0.62
10,1,1,3,0.516,0.386,2,0,0.62
10,0,1,3,0.459,0.337,2,0,0.62
10,1,0,2,0.514,0.446,2,0,0.62
10,0,1,3,0.69,0.274,2,0,0.62
10,0,1,3,0.316,0.244,2,0,0.62
10,0,1,3,0.309,0.238,2,0,0.62
10,1,1,3,0.239,0.231,2,0,0.62
10,1,1,3,0.261,0.286,2,0,0.62
10,0,1,3,0.246,0.198,2,0,0.62
10,1,1,3,0.335,0.21,2,0,0.62
10,0,1,3,0.328,0.227,2,0,0.62
10,1,1,3,0.296,0.176,2,0,0.62
10,0,1,3,2.024,0.558,2,0,0.62
10,1,1,3,0.578,0.197,2,0,0.62
10,1,1,3,0.144,0.152,2,0,0.62
10,1,0,2,0.496,0.38,2,0,0.62
10,0,1,3,0.302,0.275,2,0,0.62
10,0,1,3,0.253,0.205,2,0,0.62
10,0,1,3,0.309,0.183,2,0,0.62
10,0,1,3,0.285,0.191,2,0,0.62
10,1,1,3,0.239,0.15,2,0,0.62
10,1,1,3,0.266,0.19,2,0,0.62
10,1,1,3,0.329,0.303,2,0,0.62
10,1,1,3,0.069,0.416,2,0,0.62
10,0,1,3,0.16,0.215,2,0,0.62
10,1,1,3,0.169,0.232,2,0,0.62
10,1,0,1,1.158,0.479,2,0,0.62
10,0,0,2,0.182,0.218,2,0,0.62
10,1,0,3,0.306,0.273,2,0,0.62
10,1,1,3,0.581,0.174,2,0,0.62
10,1,1,3,0.408,0.27,2,0,0.62
10,0,0,2,0.111,0.342,2,0,0.62
10,0,1,3,0.753,0.283,2,0,0.62
10,1,0,2,0.447,0.271,2,0,0.62
10,1,0,1,0.389,0.389,2,1,5
10,1,1,3,0.565,0.225,2,0,0.62
10,1,1,3,0.24,0.17,2,0,0.62
10,0,1,3,0.027,0.294,2,0,0.62
10,1,1,3,0.133,0.181,2,0,0.62
10,1,1,3,0.175,0.171,2,0,0.62
10,1,1,3,0.25,0.196,2,0,0.62
10,0,0,2,0.165,0.183,2,0,0.62
10,0,0,3,0.013,0.31,2,0,0.62
10,0,0,3,0.297,0.196,2,0,0.62
10,1,1,3,0.148,0.182,2,0,0.62
10,0,1,2,0.177,1.027,2,0,0.62
10,1,1,4,0.039,0.555,2,0,0.62
10,0,0,3,0.181,0.274,2,0,0.62
10,1,1,4,0.086,0.394,2,0,0.62
10,0,1,3,1.149,0.243,2,0,0.62
10,0,0,2,0.137,0.291,2,0,0.62
10,1,0,1,0.044,0.417,2,0,0.62
10,0,1,3,0.031,0.461,2,0,0.62
10,1,1,3,0.089,0.194,2,0,0.62
10,0,1,3,0.321,0.186,2,0,0.62
10,0,0,2,0.514,0.308,2,0,0.62
10,1,0,2,0.023,0.506,2,0,0.62
10,1,1,3,0.496,0.172,2,0,0.62
10,0,0,2,0.355,0.33,2,0,0.62
10,0,0,2,0.354,0.403,2,0,0.62
10,0,0,3,0.459,0.307,2,0,0.62
10,1,0,3,0.278,0.199,2,0,0.62
10,1,0,3,0.379,0.247,2,0,0.62
10,0,0,3,0.455,0.184,2,0,0.62
10,1,1,3,0.194,0.187,2,0,0.62
10,0,1,3,0.455,0.178,2,0,0.62
10,1,1,3,0.288,0.171,2,0,0.62
10,0,0,3,0.474,0.304,2,0,0.62
10,0,0,3,0.289,0.177,2,0,0.62
10,0,1,3,0.315,0.195,2,0,0.62
10,0,0,3,0.281,0.189,2,0,0.62
10,1,1,3,0.322,0.153,2,0,0.62
10,1,1,3,0.305,0.175,2,0,0.62
10,0,1,3,0.232,0.141,2,0,0.62
10,0,0,3,0.3,0.286,2,1,5
10,0,0,3,0.347,0.151,2,0,0.62
10,1,1,3,0.34,0.187,2,0,0.62
10,0,0,3,0.307,0.171,2,0,0.62
10,1,0,3,0.26,0.118,2,0,0.62
10,0,0,3,0.26,0.139,2,0,0.62
10,0,0,3,0.27,0.127,2,0,0.62
10,1,1,3,0.295,0.15,2,0,0.62
10,0,1,3,0.297,0.132,2,0,0.62
10,0,0,3,0.286,0.141,2,0,0.62
10,0,0,3,0.597,0.113,2,0,0.62
10,0,0,3,0.16,0.14,2,0,0.62
10,0,0,3,0.049,0.145,2,0,0.62
10,1,0,3,0.363,0.284,2,0,0.62
10,1,1,3,0.13,0.146,2,0,0.62
10,1,1,3,0.041,0.137,2,0,0.62
10,0,1,3,0.098,0.151,2,0,0.62
10,0,0,3,0.22,0.139,2,0,0.62
10,1,1,3,0.276,0.143,2,0,0.62
10,1,1,3,0.056,0.117,2,0,0.62
10,0,0,3,0.172,0.143,2,1,5
10,1,0,1,0.819,0.694,1,0,5.5
10,1,0,1,0.329,0.208,1,0,5.5
10,0,0,1,0.165,0.183,1,0,5.5
10,1,0,1,0.104,0.188,1,0,5.5
10,1,0,2,0.003,0.353,1,0,5.5
10,1,0,2,0.027,0.119,1,0,5.5
10,1,1,3,0.617,0.197,1,0,5.5
10,1,0,3,0.273,0.157,1,0,5.5
10,0,0,3,0.313,0.205,1,0,5.5
10,1,1,3,0.233,0.134,1,0,5.5
10,1,0,3,0.102,0.145,1,0,5.5
10,1,1,3,0.132,0.14,1,0,5.5
10,1,1,3,0.047,0.112,1,0,5.5
10,0,0,3,0.106,0.151,1,0,5.5
10,1,1,3,0.233,0.147,1,0,5.5
10,0,1,3,0.497,0.15,1,0,5.5
10,0,0,3,0.052,0.11,1,0,5.5
10,1,0,3,0.129,0.153,1,0,5.5
10,0,0,3,0.266,0.11,1,0,5.5
10,0,0,3,0.144,0.187,1,0,5.5
10,0,0,3,0.168,0.125,1,0,5.5
10,0,0,3,0.137,0.158,1,0,5.5
10,1,1,3,0.13,0.183,1,0,5.5
10,0,0,3,0.229,0.142,1,0,5.5
10,0,0,3,0.158,0.105,1,0,5.5
10,1,1,3,0.093,0.151,1,0,5.5
10,0,1,3,0.025,0.121,1,0,5.5
10,0,0,3,0.092,0.133,1,0,5.5
10,1,1,3,0.13,0.124,1,0,5.5
10,1,1,3,0.024,0.15,1,0,5.5
10,1,1,3,0.051,0.205,1,0,5.5
10,1,0,3,0.062,0.118,1,0,5.5
10,1,0,3,0.038,0.151,1,0,5.5
10,0,0,3,0.007,0.136,1,0,5.5
10,0,0,3,0.026,0.179,1,0,5.5
10,0,0,3,1.005,0.168,1,0,5.5
10,1,0,3,0.256,0.154,1,0,5.5
10,0,0,3,0.128,0.159,1,0,5.5
10,1,1,3,0.156,0.184,1,0,5.5
10,0,0,3,0.156,0.142,1,1,15
10,0,0,3,0.213,0.061,1,0,5.5
10,1,0,3,0.01,0.089,1,0,5.5
10,0,0,3,0.079,0.102,1,0,5.5
10,1,1,3,0.04,0.125,1,0,5.5
10,0,1,3,0.005,0.306,1,0,5.5
10,0,0,3,0.582,0.463,1,0,5.5
10,1,0,3,0.176,0.098,1,0,5.5
10,1,0,3,0.175,0.122,1,0,5.5
10,0,0,3,0.192,0.166,1,0,5.5
10,0,0,3,0.261,0.102,1,0,5.5
10,1,1,3,0.098,0.152,1,0,5.5
10,0,1,3,0.024,0.133,1,0,5.5
10,0,0,2,0.016,0.791,1,0,5.5
10,0,0,3,0.268,0.416,1,0,5.5
10,0,1,3,0.302,0.142,1,0,5.5
10,1,1,3,0.014,0.104,1,0,5.5
10,0,0,1,0.57,0.692,1,0,5.5
10,0,0,2,0.367,0.265,1,0,5.5
10,0,0,2,0.061,0.251,1,0,5.5
10,0,0,2,0.778,0.504,1,0,5.5
10,0,1,3,0.787,0.145,1,0,5.5
10,0,1,3,0.159,0.133,1,0,5.5
10,0,1,3,0.227,0.189,1,0,5.5
10,0,0,3,0.061,0.17,1,0,5.5
10,0,1,3,0.166,0.163,1,0,5.5
10,1,0,3,0.392,0.139,1,0,5.5
10,0,0,3,0.297,0.066,1,0,5.5
10,1,1,3,0.138,0.132,1,0,5.5
10,0,1,3,0.502,0.307,1,0,5.5
10,0,1,3,0.537,0.331,1,0,5.5
10,0,1,3,0.101,0.223,1,0,5.5
10,1,1,3,0.069,0.211,1,0,5.5
10,1,0,3,0.185,0.19,1,0,5.5
10,1,1,3,0.97,0.343,1,0,5.5
10,1,1,3,0.694,0.215,1,0,5.5
10,1,1,3,0.66,0.527,1,0,5.5
10,1,1,3,0.129,0.317,1,0,5.5
10,0,0,2,1.112,0.446,1,0,5.5
10,0,0,3,0.179,0.262,1,0,5.5
10,1,1,3,0.122,0.344,1,1,15
10,1,0,2,0.381,0.176,1,0,5.5
10,0,0,3,0.061,0.264,1,0,5.5
10,0,0,3,0.071,0.253,1,0,5.5
10,0,0,3,0.92,0.237,1,0,5.5
10,1,0,3,0.113,0.256,1,0,5.5
10,0,0,3,0.3,0.185,1,0,5.5
10,0,1,3,0.252,0.178,1,0,5.5
10,0,0,3,0.383,0.122,1,0,5.5
10,1,0,3,0.353,0.172,1,0,5.5
10,1,0,3,0.319,0.157,1,0,5.5
10,1,1,3,0.238,0.17,1,0,5.5
10,1,1,3,0.082,0.182,1,0,5.5
10,1,1,3,0.149,0.178,1,0,5.5
10,1,0,3,0.204,0.322,1,0,5.5
10,0,0,3,0.35,0.147,1,0,5.5
10,1,1,3,0.19,0.241,1,0,5.5
10,1,1,3,0.126,0.207,1,0,5.5
10,1,1,3,0.073,0.132,1,0,5.5
10,0,0,3,0.218,0.152,1,0,5.5
10,1,1,3,0.097,0.191,1,1,15
11,0,1,1,0.552,2.008,2,0,0.62
11,0,0,3,1.643,1.452,2,0,0.62
11,1,1,4,1.84,1.584,2,0,0.62
11,0,0,1,1.997,0.778,2,0,0.62
11,1,1,4,2.154,2.424,2,0,0.62
11,0,0,4,1.467,1.19,2,0,0.62
11,1,1,4,1.39,1.432,2,0,0.62
11,1,1,3,1.59,3.274,2,0,0.62
11,0,0,3,1.213,1.956,2,0,0.62
11,1,1,4,1.64,1.182,2,0,0.62
11,1,1,4,1.352,1.125,2,0,0.62
11,1,1,4,1.301,1.989,2,0,0.62
11,0,0,1,1.554,0.875,2,0,0.62
11,0,0,3,1.34,1.596,2,0,0.62
11,1,1,3,1.861,1.366,2,0,0.62
11,0,0,3,1.7,1.605,2,0,0.62
11,0,0,1,1.402,0.445,2,0,0.62
11,1,1,1,1.978,0.913,2,0,0.62
11,0,0,4,1.535,1.022,2,0,0.62
11,1,1,3,1.98,2.393,2,0,0.62
11,0,0,3,1.42,1.233,2,0,0.62
11,1,1,4,1.71,1.144,2,0,0.62
11,0,0,4,1.22,0.884,2,0,0.62
11,0,0,1,1.871,0.382,2,0,0.62
11,0,0,3,1.74,1.47,2,0,0.62
11,1,1,4,1.982,1.231,2,0,0.62
11,1,1,3,1.744,1.296,2,0,0.62
11,0,1,1,2.024,0.657,2,0,0.62
11,1,1,3,1.601,1.41,2,0,0.62
11,1,1,4,1.299,1.727,2,0,0.62
11,0,0,3,1.264,2.064,2,0,0.62
11,1,0,1,1.875,0.55,2,0,0.62
11,0,0,4,1.19,1.203,2,0,0.62
11,0,0,4,1.68,1.143,2,0,0.62
11,1,1,1,2.578,1.235,2,0,0.62
11,1,1,4,1.25,1.156,2,0,0.62
11,1,1,4,1.178,1.195,2,0,0.62
11,0,1,2,2.093,1.791,2,0,0.62
11,1,1,3,1.54,1.119,2,0,0.62
11,1,1,4,1.033,1.725,2,1,5
11,0,0,4,1.12,0.993,2,0,0.62
11,1,0,3,1.15,1.327,2,0,0.62
11,0,0,1,2,0.566,2,0,0.62
11,0,1,1,2.451,0.729,2,0,0.62
11,1,1,3,1.22,1.547,2,0,0.62
11,0,0,3,1.202,1.235,2,0,0.62
11,0,0,2,1.32,0.726,2,0,0.62
11,0,0,1,1.426,0.507,2,0,0.62
11,1,1,2,2.479,0.624,2,0,0.62
11,0,0,1,1.9,3.712,2,0,0.62
11,0,0,1,3.37,0.453,2,0,0.62
11,1,1,4,1.31,1.016,2,0,0.62
11,1,1,3,1.54,1.403,2,0,0.62
11,0,1,1,1.54,0.49,2,0,0.62
11,0,1,2,1.61,0.59,2,0,0.62
11,0,0,1,2.66,1.375,2,0,0.62
11,0,0,3,1.162,1.215,2,0,0.62
11,1,1,4,1.263,1.085,2,0,0.62
11,1,1,4,1.31,1.14,2,0,0.62
11,0,0,2,1.4,1.73,2,0,0.62
11,0,0,4,1.06,0.973,2,0,0.62
11,0,1,3,1.466,1.422,2,0,0.62
11,1,1,4,1.07,0.853,2,0,0.62
11,1,1,1,1.7,0.52,2,0,0.62
11,0,0,1,1.64,0.51,2,0,0.62
11,1,1,2,1.05,1.71,2,0,0.62
11,0,0,3,1.63,1.285,2,0,0.62
11,0,0,1,1.3,0.54,2,0,0.62
11,0,0,1,1.52,1.514,2,0,0.62
11,0,0,2,2.175,1.255,2,0,0.62
11,1,1,3,1.223,0.931,2,0,0.62
11,1,1,4,1.14,0.8,2,0,0.62
11,0,1,3,1.412,0.415,2,0,0.62
11,1,1,1,2.71,0.649,2,0,0.62
11,0,0,2,1.67,0.965,2,0,0.62
11,0,0,4,0.803,1.597,2,0,0.62
11,0,0,3,1.146,1.2,2,0,0.62
11,0,0,1,1.63,0.833,2,0,0.62
11,1,1,4,1.125,1.038,2,0,0.62
11,1,1,4,1.16,1.007,2,1,5
11,1,0,2,1.428,0.343,2,0,0.62
11,0,0,2,1.39,0.402,2,0,0.62
11,1,0,1,1,0.311,2,0,0.62
11,1,1,3,1.141,0.873,2,0,0.62
11,1,0,2,1.36,1.182,2,0,0.62
11,0,0,3,0.86,1.13,2,0,0.62
11,1,1,2,1.709,0.534,2,0,0.62
11,1,1,3,1.463,0.439,2,0,0.62
11,0,0,4,1.201,0.944,2,0,0.62
11,0,0,3,1.356,0.983,2,0,0.62
11,1,1,4,1.21,1.606,2,0,0.62
11,0,0,4,1.29,1.01,2,0,0.62
11,1,1,3,1.756,0.971,2,0,0.62
11,0,0,4,1.623,2.07,2,0,0.62
11,1,0,4,1.47,0.926,2,0,0.62
11,1,1,4,1.111,1.169,2,0,0.62
11,0,0,4,1.607,1.066,2,0,0.62
11,0,0,4,1.033,1.12,2,0,0.62
11,0,0,3,1.86,1.07,2,0,0.62
11,0,0,4,0.93,1.093,2,1,5
11,1,1,4,1.95,1.14,1,0,5.5
11,1,1,3,1.99,0.65,1,0,5.5
11,1,1,3,1.532,1.39,1,0,5.5
11,0,0,1,2.64,0.653,1,0,5.5
11,0,0,2,1.321,0.556,1,0,5.5
11,1,1,3,1.71,1.576,1,0,5.5
11,0,0,2,1.572,0.622,1,0,5.5
11,0,0,1,1.445,0.363,1,0,5.5
11,0,0,1,1.131,0.333,1,0,5.5
11,0,0,3,1.23,0.681,1,0,5.5
11,1,1,3,1.412,1.277,1,0,5.5
11,0,0,2,1.571,2.323,1,0,5.5
11,0,1,3,1.49,0.432,1,0,5.5
11,1,1,4,1.137,0.873,1,0,5.5
11,1,1,4,1.14,0.883,1,0,5.5
11,0,0,3,1.221,1.012,1,0,5.5
11,0,0,1,1.6,0.38,1,0,5.5
11,1,1,4,1.14,0.954,1,0,5.5
11,0,0,1,1.24,0.513,1,0,5.5
11,0,1,1,1.49,0.98,1,0,5.5
11,1,1,4,1.364,0.967,1,0,5.5
11,0,0,1,1.561,0.334,1,0,5.5
11,1,1,1,1.501,0.38,1,0,5.5
11,0,1,1,1.111,0.503,1,0,5.5
11,1,1,3,1.055,1.031,1,0,5.5
11,1,1,4,1.019,0.884,1,0,5.5
11,0,0,1,1.8,0.32,1,0,5.5
11,1,1,2,1.36,0.496,1,0,5.5
11,1,0,2,1.411,0.466,1,0,5.5
11,1,1,4,1.241,0.995,1,0,5.5
11,1,1,4,1.261,0.898,1,0,5.5
11,0,0,3,1.395,1.582,1,0,5.5
11,1,1,3,1.43,1.143,1,0,5.5
11,1,1,2,1.51,0.386,1,0,5.5
11,0,0,3,1.011,0.988,1,0,5.5
11,0,1,1,3.331,0.472,1,0,5.5
11,0,0,4,1.42,0.977,1,0,5.5
11,1,1,3,1.71,1.157,1,0,5.5
11,0,0,3,1.38,1.01,1,0,5.5
11,1,1,4,1.046,0.993,1,1,15
11,1,1,3,2.075,0.556,1,0,5.5
11,0,0,3,1.171,0.982,1,0,5.5
11,1,1,3,1.39,0.463,1,0,5.5
11,1,1,4,1.22,1.057,1,0,5.5
11,0,0,4,1.022,0.921,1,0,5.5
11,1,1,4,0.786,1.073,1,0,5.5
11,1,1,4,0.795,1.105,1,0,5.5
11,0,0,3,1.841,1.118,1,0,5.5
11,1,1,3,1.9,0.412,1,0,5.5
11,1,1,2,1.43,0.311,1,0,5.5
11,0,0,3,1.15,0.811,1,0,5.5
11,0,0,3,1.229,1.475,1,0,5.5
11,0,0,4,1.201,1.165,1,0,5.5
11,1,1,1,1.752,0.455,1,0,5.5
11,0,0,3,2.025,0.977,1,0,5.5
11,1,1,1,1.891,0.37,1,0,5.5
11,0,0,3,1.221,1.023,1,0,5.5
11,0,0,3,1.11,0.906,1,0,5.5
11,0,0,3,1.45,0.92,1,0,5.5
11,1,1,1,1.63,0.493,1,0,5.5
11,1,1,1,1.8,0.42,1,0,5.5
11,1,1,2,0.619,0.613,1,0,5.5
11,1,1,1,1.43,1.712,1,0,5.5
11,1,0,1,1.58,0.369,1,0,5.5
11,0,0,2,1.5,0.62,1,0,5.5
11,0,0,3,1.501,0.545,1,0,5.5
11,1,1,3,1.755,0.409,1,0,5.5
11,0,0,3,1.397,1.983,1,0,5.5
11,1,1,3,1.135,1.258,1,0,5.5
11,0,0,4,1.054,0.87,1,0,5.5
11,1,1,4,1.267,0.991,1,0,5.5
11,1,1,2,2.776,0.759,1,0,5.5
11,0,0,1,1.812,0.391,1,0,5.5
11,1,1,1,1.61,0.566,1,0,5.5
11,1,1,2,1.65,1.232,1,0,5.5
11,1,1,3,1.37,0.317,1,0,5.5
11,1,0,3,1.301,0.866,1,0,5.5
11,1,0,1,2.525,0.318,1,0,5.5
11,0,0,3,1.381,0.522,1,0,5.5
11,1,1,4,1.054,0.622,1,1,15
11,1,1,3,1.001,0.839,1,0,5.5
11,0,0,3,1.3,1.097,1,0,5.5
11,0,0,3,1.479,1.031,1,0,5.5
11,0,0,3,1.49,0.891,1,0,5.5
11,0,0,2,1.721,0.821,1,0,5.5
11,1,1,3,1.616,0.524,1,0,5.5
11,1,1,2,1.39,0.394,1,0,5.5
11,1,1,3,0.77,0.977,1,0,5.5
11,1,0,1,1.322,0.431,1,0,5.5
11,0,0,2,1.54,0.423,1,0,5.5
11,0,0,2,2.15,0.41,1,0,5.5
11,1,0,1,1.67,0.345,1,0,5.5
11,1,1,2,1.464,0.426,1,0,5.5
11,0,0,2,0.886,1.175,1,0,5.5
11,0,0,2,0.857,0.55,1,0,5.5
11,1,1,3,1.472,0.395,1,0,5.5
11,0,0,2,1.58,0.385,1,0,5.5
11,1,0,1,1.034,0.736,1,0,5.5
11,1,1,3,1.4,0.47,1,0,5.5
11,1,1,4,0.76,0.98,1,1,15
12,1,0,3,1.169,1.625,1,0,5.5
12,1,1,1,1.501,1.217,1,0,5.5
12,1,1,4,1.864,0.919,1,0,5.5
12,1,1,4,1.009,0.671,1,0,5.5
12,0,0,2,0.999,0.694,1,0,5.5
12,1,1,3,1.19,0.429,1,0,5.5
12,1,0,2,1.494,0.774,1,0,5.5
12,0,1,3,0.793,0.588,1,0,5.5
12,1,1,4,0.954,0.595,1,0,5.5
12,0,0,2,3.294,0.785,1,0,5.5
12,0,1,3,1.535,0.548,1,0,5.5
12,0,1,4,0.912,0.721,1,0,5.5
12,0,1,4,0.672,0.6,1,0,5.5
12,0,0,4,1.113,0.738,1,0,5.5
12,0,1,4,0.734,0.633,1,0,5.5
12,1,1,4,0.565,0.473,1,0,5.5
12,1,1,2,1.272,1.261,1,0,5.5
12,1,1,2,0.626,0.44,1,0,5.5
12,0,1,3,0.535,0.74,1,0,5.5
12,0,1,3,0.639,0.802,1,0,5.5
12,0,0,3,0.319,0.842,1,0,5.5
12,1,0,2,0.548,0.533,1,0,5.5
12,1,0,3,0.551,1.798,1,0,5.5
12,0,0,3,0.153,0.968,1,0,5.5
12,1,1,3,0.287,0.505,1,0,5.5
12,1,1,1,0.742,0.772,1,0,5.5
12,1,1,3,0.81,0.522,1,0,5.5
12,1,1,3,0.823,0.56,1,0,5.5
12,0,1,3,0.884,1.001,1,0,5.5
12,0,0,1,0.598,0.626,1,0,5.5
12,0,0,3,2.217,1.118,1,0,5.5
12,1,0,3,0.85,1.209,1,0,5.5
12,1,0,2,1.315,1.004,1,0,5.5
12,1,0,2,1.044,1.113,1,0,5.5
12,1,1,3,2.146,0.017,1,0,5.5
12,0,1,3,1.138,0.597,1,0,5.5
12,0,0,1,1.271,5.447,1,0,5.5
12,0,0,1,4.709,0.641,1,0,5.5
12,0,1,2,1.001,0.542,1,0,5.5
12,0,0,4,0.711,1.087,1,1,15
12,0,0,4,0.289,0.695,1,0,5.5
12,1,1,4,0.775,0.487,1,0,5.5
12,1,1,4,0.08,0.529,1,0,5.5
12,0,1,4,0.607,0.5,1,0,5.5
12,0,1,4,0.165,0.58,1,0,5.5
12,1,1,4,0.597,0.464,1,0,5.5
12,1,1,4,0.493,0.424,1,0,5.5
12,0,1,4,0.502,0.484,1,0,5.5
12,0,1,4,0.511,0.365,1,0,5.5
12,0,0,4,0.794,0.379,1,0,5.5
12,0,1,4,0.308,0.689,1,0,5.5
12,1,1,4,0.252,0.659,1,0,5.5
12,0,1,4,0.131,0.681,1,0,5.5
12,0,1,4,0.187,0.48,1,0,5.5
12,0,1,4,1.92,0.467,1,0,5.5
12,0,0,2,0.381,0.484,1,0,5.5
12,0,1,4,0.726,0.894,1,0,5.5
12,1,1,4,0.526,0.419,1,0,5.5
12,0,0,4,0.59,0.619,1,0,5.5
12,0,0,4,0.409,0.315,1,0,5.5
12,1,1,4,0.41,0.388,1,0,5.5
12,1,1,3,0.288,0.483,1,0,5.5
12,1,1,4,0.516,0.55,1,0,5.5
12,0,1,4,0.434,0.313,1,0,5.5
12,0,0,4,0.282,0.381,1,0,5.5
12,1,1,4,0.271,0.426,1,0,5.5
12,1,1,4,1.207,0.455,1,0,5.5
12,0,1,4,0.579,0.312,1,0,5.5
12,0,0,4,0.574,0.407,1,0,5.5
12,0,0,2,0.416,0.628,1,0,5.5
12,0,0,4,0.48,0.442,1,0,5.5
12,1,1,4,0.362,0.44,1,0,5.5
12,1,1,4,1.272,0.346,1,0,5.5
12,0,1,4,1.743,0.972,1,0,5.5
12,0,1,4,1.249,0.584,1,0,5.5
12,1,1,4,0.422,0.553,1,0,5.5
12,0,0,4,1.558,2.617,1,0,5.5
12,0,1,4,1.29,0.603,1,0,5.5
12,1,1,4,2.362,0.558,1,0,5.5
12,0,0,4,0.399,0.398,1,1,15
12,0,0,4,0.55,0.313,1,0,5.5
12,1,1,4,0.504,0.165,1,0,5.5
12,1,1,4,0.359,0.27,1,0,5.5
12,1,1,4,0.34,0.274,1,0,5.5
12,1,1,4,1.573,0.599,1,0,5.5
12,0,0,4,0.443,0.383,1,0,5.5
12,0,0,4,0.694,0.412,1,0,5.5
12,0,0,4,0.291,0.316,1,0,5.5
12,1,1,4,0.307,0.268,1,0,5.5
12,1,1,4,0.296,0.257,1,0,5.5
12,0,0,4,0.215,0.302,1,0,5.5
12,1,1,4,0.315,0.261,1,0,5.5
12,1,1,4,0.538,0.461,1,0,5.5
12,1,1,4,0.386,0.26,1,0,5.5
12,0,0,4,0.3,0.292,1,0,5.5
12,1,1,4,0.681,0.232,1,0,5.5
12,1,1,4,0.299,0.236,1,0,5.5
12,1,1,4,0.222,0.323,1,0,5.5
12,1,1,4,0.343,0.261,1,0,5.5
12,0,0,4,0.289,0.467,1,1,15
12,1,1,4,0.766,1.36,2,0,0.62
12,1,1,4,0.438,0.308,2,0,0.62
12,0,0,4,0.524,0.307,2,0,0.62
12,0,0,4,0.237,0.27,2,0,0.62
12,1,0,4,0.216,0.222,2,0,0.62
12,0,0,4,0.351,0.271,2,0,0.62
12,0,0,4,0.223,0.274,2,0,0.62
12,1,0,4,0.259,0.298,2,0,0.62
12,0,0,4,0.475,0.598,2,0,0.62
12,0,0,4,0.435,0.237,2,0,0.62
12,1,0,4,0.332,0.299,2,0,0.62
12,0,0,4,0.761,0.403,2,0,0.62
12,0,0,1,0.38,0.888,2,0,0.62
12,0,0,4,2.362,0.272,2,0,0.62
12,1,0,4,0.381,0.326,2,0,0.62
12,0,0,4,0.409,0.229,2,0,0.62
12,0,0,4,0.341,0.264,2,0,0.62
12,0,0,4,0.266,0.328,2,0,0.62
12,0,0,4,0.382,0.426,2,0,0.62
12,0,0,4,0.368,0.329,2,0,0.62
12,0,0,4,0.294,0.259,2,0,0.62
12,1,0,4,1.961,0.276,2,0,0.62
12,1,0,4,0.367,0.355,2,0,0.62
12,0,0,4,0.324,0.292,2,0,0.62
12,1,0,4,0.354,0.315,2,0,0.62
12,0,0,4,0.274,0.309,2,0,0.62
12,0,0,4,0.258,0.288,2,0,0.62
12,0,0,4,0.27,0.266,2,0,0.62
12,0,0,1,0.618,0.046,2,0,0.62
12,0,0,4,0.795,0.045,2,0,0.62
12,1,1,4,0.562,0.29,2,0,0.62
12,0,0,4,0.436,0.24,2,0,0.62
12,0,0,4,0.296,0.252,2,0,0.62
12,1,0,4,0.324,0.319,2,0,0.62
12,1,0,4,0.302,0.217,2,0,0.62
12,0,0,4,0.332,0.215,2,0,0.62
12,0,0,4,0.255,0.242,2,0,0.62
12,1,0,4,0.358,0.323,2,0,0.62
12,1,0,4,0.303,0.252,2,0,0.62
12,0,0,4,0.823,0.567,2,1,5
12,0,1,4,0.223,0.397,2,0,0.62
12,0,0,4,0.213,0.307,2,0,0.62
12,1,1,4,0.46,0.282,2,0,0.62
12,0,1,1,0.979,0.779,2,0,0.62
12,0,0,4,0.415,0.922,2,0,0.62
12,0,0,4,0.868,0.866,2,0,0.62
12,1,0,4,0.691,0.398,2,0,0.62
12,0,0,4,0.436,0.413,2,0,0.62
12,0,0,4,0.417,0.304,2,0,0.62
12,0,1,4,0.47,0.264,2,0,0.62
12,0,1,4,1.904,0.377,2,0,0.62
12,1,0,4,1.209,0.447,2,0,0.62
12,1,0,4,1.109,0.23,2,0,0.62
12,0,0,4,0.374,0.268,2,0,0.62
12,0,0,4,0.581,0.305,2,0,0.62
12,1,1,4,0.836,0.381,2,0,0.62
12,1,1,4,0.488,0.271,2,0,0.62
12,0,0,4,0.383,0.277,2,0,0.62
12,1,1,4,2.302,0.231,2,0,0.62
12,1,1,4,0.392,0.299,2,0,0.62
12,0,0,4,0.985,0.374,2,0,0.62
12,1,1,4,0.451,0.225,2,0,0.62
12,1,1,4,0.374,0.267,2,0,0.62
12,0,0,4,0.311,1.08,2,0,0.62
12,1,1,4,0.817,0.291,2,0,0.62
12,0,1,4,0.492,0.271,2,0,0.62
12,1,1,4,0.738,0.044,2,0,0.62
12,1,1,4,0.32,0.269,2,0,0.62
12,1,1,4,0.406,0.323,2,0,0.62
12,0,1,4,0.369,0.334,2,0,0.62
12,1,1,4,0.489,0.239,2,0,0.62
12,0,1,4,0.187,0.301,2,0,0.62
12,0,1,4,1.184,0.004,2,0,0.62
12,1,1,4,6.557,0.496,2,0,0.62
12,1,1,4,0.364,0.422,2,0,0.62
12,1,1,4,0.428,0.298,2,0,0.62
12,0,1,4,0.666,0.279,2,0,0.62
12,0,1,4,0.412,0.332,2,0,0.62
12,0,1,4,0.408,0.893,2,0,0.62
12,1,0,4,0.889,0.323,2,1,5
12,1,1,4,0.288,0.217,2,0,0.62
12,0,1,4,0.452,0.477,2,0,0.62
12,1,1,4,0.372,0.272,2,0,0.62
12,1,1,4,0.647,0.351,2,0,0.62
12,1,1,4,0.363,0.393,2,0,0.62
12,0,1,4,0.393,0.357,2,0,0.62
12,0,1,4,0.593,0.219,2,0,0.62
12,0,1,4,0.479,0.212,2,0,0.62
12,1,1,4,0.35,0.265,2,0,0.62
12,1,1,4,0.318,0.263,2,0,0.62
12,0,0,4,0.583,0.278,2,0,0.62
12,1,0,4,0.329,0.25,2,0,0.62
12,1,0,4,0.291,0.334,2,0,0.62
12,1,0,4,0.333,0.457,2,0,0.62
12,1,0,4,0.801,0.172,2,0,0.62
12,0,0,4,0.444,0.268,2,0,0.62
12,0,0,4,0.166,0.287,2,0,0.62
12,0,0,4,0.675,0.239,2,0,0.62
12,0,0,4,0.297,0.342,2,0,0.62
12,0,0,4,0.114,0.355,2,1,5
13,0,0,3,3.173,1.61,2,0,0.62
13,0,0,3,0.664,0.891,2,0,0.62
13,1,1,3,1.541,0.641,2,0,0.62
13,0,0,3,0.593,0.585,2,0,0.62
13,0,0,3,0.479,0.698,2,0,0.62
13,0,0,3,0.312,0.395,2,0,0.62
13,0,1,3,1.344,1.178,2,0,0.62
13,0,0,1,8.869,1.112,2,0,0.62
13,0,0,4,1.407,1.433,2,0,0.62
13,1,1,3,1.297,0.698,2,0,0.62
13,1,1,3,0.948,0.545,2,0,0.62
13,1,1,3,0.455,0.464,2,0,0.62
13,1,1,4,0.469,0.624,2,0,0.62
13,0,0,3,0.941,0.53,2,0,0.62
13,0,0,3,1.3,0.513,2,0,0.62
13,1,1,3,0.961,0.865,2,0,0.62
13,1,0,3,1.417,0.896,2,0,0.62
13,1,1,3,1.428,0.654,2,0,0.62
13,1,1,3,1.535,0.476,2,0,0.62
13,0,1,3,0.491,0.485,2,0,0.62
13,1,0,3,0.597,0.499,2,0,0.62
13,1,0,1,1.555,0.767,2,0,0.62
13,1,1,3,0.976,0.663,2,0,0.62
13,1,1,3,0.606,0.785,2,0,0.62
13,0,0,3,0.898,0.684,2,0,0.62
13,0,0,2,0.42,0.749,2,0,0.62
13,1,0,3,0.865,0.71,2,0,0.62
13,0,0,3,0.388,0.571,2,0,0.62
13,1,1,3,0.481,0.533,2,0,0.62
13,1,1,3,0.397,0.498,2,0,0.62
13,0,0,3,0.399,0.762,2,0,0.62
13,1,1,3,0.653,0.456,2,0,0.62
13,0,0,3,0.428,0.464,2,0,0.62
13,1,1,3,0.577,0.461,2,0,0.62
13,0,1,3,0.562,0.536,2,0,0.62
13,1,1,3,0.481,0.32,2,0,0.62
13,1,1,3,0.487,0.334,2,0,0.62
13,1,1,3,0.53,0.388,2,0,0.62
13,1,1,3,0.449,0.292,2,0,0.62
13,0,0,4,0.267,0.972,2,1,5
13,0,0,3,0.287,0.644,2,0,0.62
13,0,0,3,0.308,0.33,2,0,0.62
13,1,1,3,0.555,0.358,2,0,0.62
13,1,1,3,0.811,0.412,2,0,0.62
13,0,0,3,0.44,0.518,2,0,0.62
13,1,1,3,0.469,0.422,2,0,0.62
13,0,1,3,0.679,0.38,2,0,0.62
13,0,0,3,0.589,0.415,2,0,0.62
13,1,1,3,0.529,0.341,2,0,0.62
13,1,1,3,0.338,0.325,2,0,0.62
13,1,1,3,0.459,0.606,2,0,0.62
13,0,0,3,0.374,0.385,2,0,0.62
13,1,1,3,0.861,0.319,2,0,0.62
13,0,0,3,0.515,0.391,2,0,0.62
13,1,1,3,0.557,0.345,2,0,0.62
13,1,1,3,0.332,0.308,2,0,0.62
13,0,0,3,0.502,0.335,2,0,0.62
13,1,1,3,0.631,0.329,2,0,0.62
13,0,1,3,0.494,0.345,2,0,0.62
13,1,1,3,0.33,0.318,2,0,0.62
13,0,0,3,0.422,0.436,2,0,0.62
13,1,1,3,0.384,0.342,2,0,0.62
13,1,1,3,0.355,0.299,2,0,0.62
13,0,0,3,0.432,0.396,2,0,0.62
13,0,0,3,0.275,0.402,2,0,0.62
13,0,0,3,0.267,0.318,2,0,0.62
13,1,1,3,0.284,0.282,2,0,0.62
13,1,1,3,0.851,0.483,2,0,0.62
13,1,1,3,0.431,0.338,2,0,0.62
13,0,0,3,0.165,0.858,2,0,0.62
13,0,0,3,0.288,0.448,2,0,0.62
13,1,1,3,0.318,0.3,2,0,0.62
13,0,0,3,0.161,0.558,2,0,0.62
13,0,0,3,0.22,0.43,2,0,0.62
13,1,1,3,0.286,0.311,2,0,0.62
13,0,0,3,0.33,0.339,2,0,0.62
13,0,0,3,0.312,0.483,2,0,0.62
13,1,1,3,0.355,0.361,2,0,0.62
13,1,1,3,0.144,0.331,2,0,0.62
13,1,1,3,0.469,0.276,2,1,5
13,1,1,3,0.773,0.259,2,0,0.62
13,1,1,3,0.36,0.247,2,0,0.62
13,1,1,3,0.308,0.259,2,0,0.62
13,1,1,3,1.515,0.293,2,0,0.62
13,1,1,3,0.529,0.693,2,0,0.62
13,0,0,3,0.845,0.391,2,0,0.62
13,1,1,3,0.638,0.277,2,0,0.62
13,1,1,3,0.439,0.565,2,0,0.62
13,0,0,3,0.349,0.485,2,0,0.62
13,1,1,3,0.675,0.279,2,0,0.62
13,1,1,3,0.334,0.265,2,0,0.62
13,1,1,3,1.271,0.253,2,0,0.62
13,0,0,3,0.321,0.428,2,0,0.62
13,0,1,3,1.419,0.319,2,0,0.62
13,1,1,3,0.375,0.266,2,0,0.62
13,1,1,3,0.743,0.368,2,0,0.62
13,1,1,3,0.48,0.228,2,0,0.62
13,1,1,3,0.248,0.233,2,0,0.62
13,1,1,3,0.509,0.257,2,0,0.62
13,1,1,3,0.749,0.22,2,1,5
13,1,0,3,1.11,0.605,1,0,5.5
13,0,1,3,0.919,0.305,1,0,5.5
13,0,0,3,0.354,0.533,1,0,5.5
13,1,1,3,0.411,0.243,1,0,5.5
13,1,0,3,0.491,0.289,1,0,5.5
13,0,0,2,1.038,0.383,1,0,5.5
13,0,1,1,1.193,0.361,1,0,5.5
13,0,0,2,2.073,0.459,1,0,5.5
13,0,0,2,0.641,0.389,1,0,5.5
13,0,0,2,0.585,0.299,1,0,5.5
13,1,0,2,0.56,0.207,1,0,5.5
13,0,0,2,0.374,0.221,1,0,5.5
13,0,1,1,0.373,0.425,1,0,5.5
13,1,0,2,0.447,0.219,1,0,5.5
13,0,0,2,0.389,0.212,1,0,5.5
13,1,0,2,0.321,0.22,1,0,5.5
13,1,0,2,0.212,0.337,1,0,5.5
13,0,1,1,0.284,0.828,1,0,5.5
13,0,0,2,0.78,0.264,1,0,5.5
13,1,1,1,0.199,0.468,1,0,5.5
13,0,0,2,1.514,1.556,1,0,5.5
13,0,0,2,0.659,0.31,1,0,5.5
13,1,1,3,1.101,0.55,1,0,5.5
13,1,1,3,1.074,0.352,1,0,5.5
13,1,0,2,0.927,0.38,1,0,5.5
13,1,0,2,0.642,0.298,1,0,5.5
13,1,0,2,0.526,0.233,1,0,5.5
13,1,0,2,0.783,0.316,1,0,5.5
13,0,0,2,0.466,0.255,1,0,5.5
13,0,0,3,0.823,0.714,1,0,5.5
13,1,1,3,0.9,0.566,1,0,5.5
13,0,0,2,0.622,0.503,1,0,5.5
13,0,0,2,0.352,0.297,1,0,5.5
13,0,0,2,0.406,0.265,1,0,5.5
13,0,0,3,0.48,0.479,1,0,5.5
13,0,0,3,0.339,0.351,1,0,5.5
13,1,0,3,0.322,0.24,1,0,5.5
13,1,1,1,0.906,0.701,1,0,5.5
13,0,0,3,0.91,0.619,1,0,5.5
13,1,1,3,0.606,0.595,1,1,15
13,1,0,3,0.484,0.437,1,0,5.5
13,1,1,3,0.507,0.31,1,0,5.5
13,0,0,3,0.406,0.507,1,0,5.5
13,1,0,3,0.8,0.383,1,0,5.5
13,0,0,1,0.824,0.385,1,0,5.5
13,1,0,1,0.398,0.265,1,0,5.5
13,0,0,2,0.622,0.402,1,0,5.5
13,1,1,1,1.102,0.579,1,0,5.5
13,1,1,1,0.793,0.237,1,0,5.5
13,1,0,2,0.639,0.246,1,0,5.5
13,0,0,1,0.635,0.317,1,0,5.5
13,0,0,2,0.748,0.696,1,0,5.5
13,0,0,2,0.478,0.467,1,0,5.5
13,1,0,2,0.33,0.221,1,0,5.5
13,1,0,1,0.613,0.218,1,0,5.5
13,1,1,1,0.841,0.366,1,0,5.5
13,1,1,1,0.938,0.198,1,0,5.5
13,1,1,1,0.956,0.219,1,0,5.5
13,1,1,1,0.68,0.194,1,0,5.5
13,1,0,2,0.408,0.298,1,0,5.5
13,1,0,1,0.214,0.536,1,0,5.5
13,0,0,2,0.631,0.453,1,0,5.5
13,1,1,2,0.66,0.561,1,0,5.5
13,0,0,2,0.382,0.686,1,0,5.5
13,0,0,2,0.201,0.398,1,0,5.5
13,1,0,1,0.262,0.351,1,0,5.5
13,1,0,1,0.743,0.274,1,0,5.5
13,0,0,2,0.76,0.505,1,0,5.5
13,1,1,1,0.715,0.605,1,0,5.5
13,1,0,1,0.393,0.386,1,0,5.5
13,1,0,1,0.518,0.311,1,0,5.5
13,0,0,1,0.563,0.278,1,0,5.5
13,0,0,1,0.501,0.436,1,0,5.5
13,0,0,1,0.482,0.249,1,0,5.5
13,0,0,1,0.92,0.247,1,0,5.5
13,1,1,1,0.627,0.501,1,0,5.5
13,1,1,1,0.887,0.263,1,0,5.5
13,0,1,1,0.924,0.243,1,0,5.5
13,1,1,2,0.585,0.295,1,0,5.5
13,1,1,4,0.326,0.777,1,1,15
13,1,1,1,0.789,0.272,1,0,5.5
13,0,0,2,0.56,0.365,1,0,5.5
13,1,1,2,0.619,0.217,1,0,5.5
13,1,1,2,0.52,0.191,1,0,5.5
13,1,0,1,0.626,0.245,1,0,5.5
13,1,1,1,0.997,0.291,1,0,5.5
13,0,0,1,0.767,0.263,1,0,5.5
13,0,0,1,0.41,0.704,1,0,5.5
13,1,0,1,0.416,0.352,1,0,5.5
13,0,0,2,0.615,0.632,1,0,5.5
13,1,1,1,0.922,0.284,1,0,5.5
13,0,1,1,0.91,0.231,1,0,5.5
13,1,1,1,0.947,0.196,1,0,5.5
13,1,1,1,0.607,0.208,1,0,5.5
13,0,0,1,0.618,0.238,1,0,5.5
13,0,0,1,0.511,0.198,1,0,5.5
13,1,0,1,0.506,0.204,1,0,5.5
13,0,0,1,0.312,0.211,1,0,5.5
13,1,0,1,0.535,0.208,1,0,5.5
13,1,1,4,0.554,0.712,1,1,15
14,0,0,4,0.98,1.715,1,0,5.5
14,0,0,4,1.656,0.887,1,0,5.5
14,1,1,3,2.039,0.81,1,0,5.5
14,0,1,2,1.866,0.619,1,0,5.5
14,0,0,4,1.529,1.64,1,0,5.5
14,0,0,4,3.245,0.643,1,0,5.5
14,0,0,4,0.786,0.351,1,0,5.5
14,1,1,4,0.996,0.535,1,0,5.5
14,1,1,4,0.941,0.554,1,0,5.5
14,0,0,4,0.828,0.481,1,0,5.5
14,1,1,4,0.729,0.426,1,0,5.5
14,1,1,4,0.707,0.417,1,0,5.5
14,1,1,4,0.69,0.376,1,0,5.5
14,0,0,4,0.607,0.973,1,0,5.5
14,0,0,4,0.366,0.466,1,0,5.5
14,1,1,4,0.909,0.569,1,0,5.5
14,0,0,4,0.699,0.907,1,0,5.5
14,1,1,4,0.745,0.629,1,0,5.5
14,0,0,4,0.559,0.508,1,0,5.5
14,1,1,4,0.989,0.396,1,0,5.5
14,1,1,4,1.075,0.694,1,0,5.5
14,0,1,4,0.629,0.336,1,0,5.5
14,0,0,4,1.023,0.553,1,0,5.5
14,0,0,4,0.417,0.377,1,0,5.5
14,1,1,4,0.661,0.431,1,0,5.5
14,0,1,3,1.413,0.995,1,0,5.5
14,1,1,4,0.93,0.561,1,0,5.5
14,0,0,4,1.209,0.429,1,0,5.5
14,0,0,4,0.415,0.337,1,0,5.5
14,1,1,3,1.458,1.33,1,0,5.5
14,0,1,3,2.405,0.355,1,0,5.5
14,0,0,3,0.858,0.99,1,0,5.5
14,0,0,4,0.507,0.786,1,0,5.5
14,0,0,4,0.376,0.334,1,0,5.5
14,0,0,4,0.472,0.51,1,0,5.5
14,1,1,4,0.761,0.473,1,0,5.5
14,0,0,4,0.544,0.429,1,0,5.5
14,0,0,4,0.7,0.319,1,0,5.5
14,0,0,4,0.623,0.692,1,0,5.5
14,0,0,4,0.499,0.422,1,1,15
14,1,1,4,0.439,0.308,1,0,5.5
14,1,1,4,0.215,0.385,1,0,5.5
14,0,0,4,0.641,0.295,1,0,5.5
14,1,1,4,0.336,0.288,1,0,5.5
14,0,0,4,0.344,0.311,1,0,5.5
14,0,0,4,0.315,0.295,1,0,5.5
14,1,1,3,1.286,0.934,1,0,5.5
14,1,1,4,0.792,0.324,1,0,5.5
14,0,0,4,0.49,0.366,1,0,5.5
14,0,0,4,0.545,0.313,1,0,5.5
14,0,0,4,0.697,0.672,1,0,5.5
14,1,1,4,0.527,0.291,1,0,5.5
14,0,0,4,0.657,0.322,1,0,5.5
14,0,0,4,0.829,0.663,1,0,5.5
14,0,0,4,0.857,0.419,1,0,5.5
14,0,0,4,0.423,0.666,1,0,5.5
14,0,0,4,0.503,0.318,1,0,5.5
14,1,1,4,0.306,0.301,1,0,5.5
14,0,0,4,0.359,0.431,1,0,5.5
14,1,1,4,0.586,0.372,1,0,5.5
14,0,0,3,0.388,1.51,1,0,5.5
14,0,0,4,0.382,0.429,1,0,5.5
14,0,0,4,0.135,0.3,1,0,5.5
14,0,0,4,0.112,0.227,1,0,5.5
14,0,0,4,0.128,0.37,1,0,5.5
14,1,1,4,0.115,0.422,1,0,5.5
14,0,0,4,0.489,0.183,1,0,5.5
14,1,1,4,0.451,0.216,1,0,5.5
14,1,1,4,0.466,0.218,1,0,5.5
14,1,1,4,0.325,0.245,1,0,5.5
14,1,1,4,0.499,0.194,1,0,5.5
14,1,1,4,0.516,0.254,1,0,5.5
14,0,1,3,1.786,0.455,1,0,5.5
14,1,1,4,1.053,0.478,1,0,5.5
14,0,0,4,0.589,0.301,1,0,5.5
14,1,1,3,2.644,0.302,1,0,5.5
14,0,1,3,1.122,0.296,1,0,5.5
14,0,0,4,0.881,0.441,1,0,5.5
14,0,0,4,0.45,0.286,1,0,5.5
14,1,1,4,1.543,0.408,1,1,15
14,0,0,4,2.46,1.957,1,0,5.5
14,0,0,4,1.106,1.259,1,0,5.5
14,1,1,3,1.174,0.509,1,0,5.5
14,1,1,4,1.087,0.547,1,0,5.5
14,1,1,4,0.404,0.327,1,0,5.5
14,1,1,3,1.497,0.642,1,0,5.5
14,0,0,3,0.603,0.954,1,0,5.5
14,0,0,3,0.352,0.416,1,0,5.5
14,1,1,3,1.689,1.089,1,0,5.5
14,0,1,3,0.725,0.365,1,0,5.5
14,0,0,4,0.338,0.375,1,0,5.5
14,0,0,4,0.061,0.348,1,0,5.5
14,0,0,4,0.2,0.68,1,0,5.5
14,1,1,3,0.546,0.371,1,0,5.5
14,1,1,4,0.865,0.439,1,0,5.5
14,1,1,2,0.645,1.078,1,0,5.5
14,0,1,2,0.75,0.398,1,0,5.5
14,1,1,3,1.074,0.41,1,0,5.5
14,1,1,3,0.365,0.27,1,0,5.5
14,1,1,4,1.657,0.918,1,1,15
14,0,0,3,3.781,0.534,2,0,0.62
14,1,1,3,0.997,0.56,2,0,0.62
14,1,1,4,1.277,0.364,2,0,0.62
14,1,0,4,0.884,0.315,2,0,0.62
14,1,1,4,0.907,0.26,2,0,0.62
14,0,0,4,0.422,0.5,2,0,0.62
14,0,0,4,0.503,0.317,2,0,0.62
14,0,1,4,1.351,0.306,2,0,0.62
14,1,1,4,0.294,0.216,2,0,0.62
14,0,1,1,0.487,0.432,2,0,0.62
14,0,0,4,2.085,0.806,2,0,0.62
14,1,0,2,1.569,0.697,2,0,0.62
14,1,1,4,1.193,0.432,2,0,0.62
14,1,1,4,0.374,0.489,2,0,0.62
14,0,0,4,0.694,0.335,2,0,0.62
14,0,0,4,0.428,0.349,2,0,0.62
14,0,0,4,1.482,0.531,2,0,0.62
14,1,1,4,0.494,0.267,2,0,0.62
14,0,0,2,0.782,0.309,2,0,0.62
14,0,0,4,1.05,0.822,2,0,0.62
14,0,1,3,1.355,1.327,2,0,0.62
14,1,1,4,0.464,0.452,2,0,0.62
14,0,0,4,0.411,0.443,2,0,0.62
14,1,1,4,0.752,0.248,2,0,0.62
14,0,0,4,0.879,0.376,2,0,0.62
14,1,1,4,0.422,0.244,2,0,0.62
14,1,1,4,0.278,0.318,2,0,0.62
14,1,1,4,1.153,0.14,2,0,0.62
14,1,1,4,1.641,0.324,2,0,0.62
14,0,1,3,0.531,1.577,2,0,0.62
14,0,1,1,0.257,0.278,2,0,0.62
14,1,0,2,0.211,1.612,2,0,0.62
14,0,1,2,1.095,0.828,2,0,0.62
14,0,1,2,0.352,0.47,2,0,0.62
14,1,1,4,0.904,0.984,2,0,0.62
14,0,1,2,0.751,0.329,2,0,0.62
14,0,1,1,0.355,0.341,2,0,0.62
14,1,0,1,0.897,0.715,2,0,0.62
14,1,1,4,0.577,0.55,2,0,0.62
14,1,1,4,1.128,1.193,2,1,5
14,0,1,4,1.1,0.697,2,0,0.62
14,1,1,4,0.05,0.517,2,0,0.62
14,1,1,4,0.141,0.314,2,0,0.62
14,0,0,4,0.531,0.42,2,0,0.62
14,0,0,4,0.195,0.492,2,0,0.62
14,1,1,4,0.807,1.239,2,0,0.62
14,0,0,4,0.372,0.409,2,0,0.62
14,0,0,4,0.497,0.287,2,0,0.62
14,0,0,4,0.409,0.248,2,0,0.62
14,1,1,4,0.642,0.183,2,0,0.62
14,1,1,4,0.332,0.136,2,0,0.62
14,1,1,4,0.07,0.204,2,0,0.62
14,1,1,4,0.236,0.158,2,0,0.62
14,1,1,4,0.181,0.136,2,0,0.62
14,1,1,4,1.78,0.347,2,0,0.62
14,0,0,4,0.379,0.369,2,0,0.62
14,0,0,4,1.412,0.575,2,0,0.62
14,0,0,4,0.27,0.282,2,0,0.62
14,0,0,4,0.349,0.395,2,0,0.62
14,0,0,4,0.34,0.27,2,0,0.62
14,0,1,4,0.872,0.314,2,0,0.62
14,1,0,4,0.27,0.243,2,0,0.62
14,0,0,4,0.268,0.236,2,0,0.62
14,0,0,4,0.512,0.216,2,0,0.62
14,0,0,4,0.791,0.191,2,0,0.62
14,1,0,4,0.271,0.164,2,0,0.62
14,1,0,4,0.268,0.481,2,0,0.62
14,1,1,4,1.008,0.237,2,0,0.62
14,1,1,4,1.274,0.285,2,0,0.62
14,1,1,4,0.275,0.288,2,0,0.62
14,1,1,4,0.626,0.394,2,0,0.62
14,0,1,4,0.412,0.312,2,0,0.62
14,0,0,4,0.367,0.335,2,0,0.62
14,1,1,4,0.508,0.262,2,0,0.62
14,0,1,4,0.258,0.294,2,0,0.62
14,0,0,4,0.512,0.281,2,0,0.62
14,1,0,4,0.193,0.303,2,0,0.62
14,0,0,4,0.201,0.187,2,0,0.62
14,1,0,4,1.207,0.165,2,0,0.62
14,0,0,4,0.369,0.269,2,1,5
14,1,0,4,1.614,0.339,2,0,0.62
14,0,1,4,0.347,0.362,2,0,0.62
14,1,1,4,0.307,0.251,2,0,0.62
14,0,1,4,0.997,0.124,2,0,0.62
14,0,1,3,0.337,0.637,2,0,0.62
14,1,1,3,0.025,0.139,2,0,0.62
14,0,1,3,0.483,0.135,2,0,0.62
14,1,1,3,0.283,0.124,2,0,0.62
14,1,1,4,0.934,0.82,2,0,0.62
14,0,1,4,0.125,0.141,2,0,0.62
14,0,1,2,0.04,0.697,2,0,0.62
14,0,1,4,0.281,0.093,2,0,0.62
14,0,1,4,0.073,0.112,2,0,0.62
14,0,1,4,0.574,0.536,2,0,0.62
14,0,1,3,0.302,0.206,2,0,0.62
14,1,1,4,1.152,0.275,2,0,0.62
14,0,1,1,0.321,1.172,2,0,0.62
14,0,1,2,0.882,0.601,2,0,0.62
14,1,1,4,0.504,0.511,2,0,0.62
14,0,0,4,1.382,1.303,2,1,5
15,1,1,3,0.717,1.014,2,0,0.62
15,0,0,2,0.732,0.391,2,0,0.62
15,0,0,3,0.779,0.653,2,0,0.62
15,0,0,1,1.319,0.109,2,0,0.62
15,0,1,1,0.779,0.576,2,0,0.62
15,0,1,1,0.567,0.303,2,0,0.62
15,1,1,1,0.486,0.423,2,0,0.62
15,1,0,2,0.479,0.478,2,0,0.62
15,0,0,3,0.456,0.312,2,0,0.62
15,0,1,2,0.354,0.501,2,0,0.62
15,0,1,2,0.384,0.479,2,0,0.62
15,0,0,2,0.81,1.582,2,0,0.62
15,1,1,3,0.741,0.449,2,0,0.62
15,0,0,4,0.503,0.583,2,0,0.62
15,0,0,4,0.85,0.285,2,0,0.62
15,0,1,3,0.785,0.464,2,0,0.62
15,0,1,1,0.688,0.352,2,0,0.62
15,0,1,2,0.438,0.499,2,0,0.62
15,1,1,4,0.708,0.361,2,0,0.62
15,0,0,4,0.383,0.336,2,0,0.62
15,1,1,3,0.53,0.352,2,0,0.62
15,1,1,2,0.353,0.415,2,0,0.62
15,1,1,2,0.487,0.455,2,0,0.62
15,0,0,3,0.312,0.439,2,0,0.62
15,0,0,3,0.293,0.279,2,0,0.62
15,1,1,2,0.306,0.36,2,0,0.62
15,1,1,3,0.265,0.246,2,0,0.62
15,0,0,2,0.383,0.336,2,0,0.62
15,0,1,3,0.439,0.382,2,0,0.62
15,0,1,3,0.3,0.246,2,0,0.62
15,1,1,2,0.315,0.248,2,0,0.62
15,0,0,3,0.371,0.312,2,0,0.62
15,1,1,2,0.463,0.71,2,0,0.62
15,0,0,3,0.282,0.286,2,0,0.62
15,1,1,4,0.345,0.223,2,0,0.62
15,0,0,4,0.758,0.271,2,0,0.62
15,0,0,2,0.459,0.318,2,0,0.62
15,1,1,3,0.726,0.311,2,0,0.62
15,1,1,4,0.259,0.221,2,0,0.62
15,0,0,4,0.27,0.358,2,1,5
15,1,1,4,0.398,0.215,2,0,0.62
15,1,1,3,0.334,0.305,2,0,0.62
15,1,1,2,0.314,0.287,2,0,0.62
15,0,0,3,0.307,0.384,2,0,0.62
15,0,0,3,0.267,0.255,2,0,0.62
15,0,1,2,0.297,0.391,2,0,0.62
15,0,0,3,0.592,0.392,2,0,0.62
15,1,1,3,0.837,0.414,2,0,0.62
15,1,1,2,0.413,0.255,2,0,0.62
15,1,1,2,0.27,0.23,2,0,0.62
15,1,1,1,0.254,0.278,2,0,0.62
15,0,0,2,0.258,0.327,2,0,0.62
15,0,0,2,0.188,0.2,2,0,0.62
15,0,0,3,0.21,0.31,2,0,0.62
15,0,0,2,0.127,0.249,2,0,0.62
15,1,1,2,0.435,0.278,2,0,0.62
15,0,0,3,0.244,0.263,2,0,0.62
15,0,0,4,0.257,0.36,2,0,0.62
15,0,1,2,0.203,0.233,2,0,0.62
15,1,1,4,0.242,0.198,2,0,0.62
15,1,1,4,0.124,0.642,2,0,0.62
15,0,0,2,0.6,0.305,2,0,0.62
15,0,0,2,0.19,0.225,2,0,0.62
15,0,0,3,0.54,0.336,2,0,0.62
15,0,1,2,0.256,0.24,2,0,0.62
15,0,1,2,0.313,0.238,2,0,0.62
15,0,1,3,0.102,0.295,2,0,0.62
15,0,0,2,0.367,0.217,2,0,0.62
15,1,1,4,0.318,0.328,2,0,0.62
15,1,1,3,0.679,0.31,2,0,0.62
15,1,1,3,0.236,0.214,2,0,0.62
15,1,1,3,0.266,0.231,2,0,0.62
15,0,0,2,0.329,0.254,2,0,0.62
15,0,0,3,0.203,0.271,2,0,0.62
15,1,1,2,0.247,0.223,2,0,0.62
15,0,0,2,0.641,0.302,2,0,0.62
15,1,1,3,0.335,0.224,2,0,0.62
15,1,1,2,0.266,0.191,2,0,0.62
15,0,1,2,0.344,0.841,2,0,0.62
15,0,0,4,0.283,0.281,2,1,5
15,1,1,1,0.748,0.264,2,0,0.62
15,1,1,1,0.291,0.271,2,0,0.62
15,1,1,1,0.287,0.166,2,0,0.62
15,0,0,3,0.207,0.312,2,0,0.62
15,1,1,1,0.279,0.189,2,0,0.62
15,1,1,2,0.252,0.247,2,0,0.62
15,1,1,3,0.185,0.28,2,0,0.62
15,1,0,2,0.342,0.223,2,0,0.62
15,1,1,4,0.284,0.471,2,0,0.62
15,1,1,3,0.253,0.23,2,0,0.62
15,1,1,3,0.215,0.181,2,0,0.62
15,0,1,1,0.336,0.536,2,0,0.62
15,1,1,1,0.222,0.279,2,0,0.62
15,0,0,4,0.117,0.368,2,0,0.62
15,1,1,3,0.202,0.44,2,0,0.62
15,1,1,4,0.301,0.248,2,0,0.62
15,1,1,2,0.401,0.254,2,0,0.62
15,1,0,2,0.314,0.344,2,0,0.62
15,1,1,2,0.547,0.381,2,0,0.62
15,0,0,4,0.568,0.206,2,1,5
15,1,1,3,1.006,0.519,1,0,5.5
15,0,0,2,0.84,0.648,1,0,5.5
15,0,0,3,0.631,0.52,1,0,5.5
15,1,0,2,0.848,0.353,1,0,5.5
15,1,1,3,0.911,0.638,1,0,5.5
15,0,0,4,0.469,0.199,1,0,5.5
15,1,1,4,0.73,0.206,1,0,5.5
15,0,0,3,0.582,0.304,1,0,5.5
15,1,1,2,0.957,0.569,1,0,5.5
15,1,1,1,0.72,0.206,1,0,5.5
15,1,1,3,0.394,0.269,1,0,5.5
15,1,1,3,0.311,0.56,1,0,5.5
15,0,0,1,0.948,0.304,1,0,5.5
15,1,1,3,0.573,0.263,1,0,5.5
15,0,0,1,0.56,0.384,1,0,5.5
15,0,0,1,0.322,0.223,1,0,5.5
15,1,1,3,0.419,0.261,1,0,5.5
15,0,0,2,0.387,0.263,1,0,5.5
15,0,0,3,0.764,0.448,1,0,5.5
15,0,0,2,0.393,0.279,1,0,5.5
15,1,1,4,0.535,0.496,1,0,5.5
15,1,1,3,0.412,0.257,1,0,5.5
15,0,0,2,0.651,0.217,1,0,5.5
15,0,0,3,0.403,0.337,1,0,5.5
15,0,0,2,0.546,0.233,1,0,5.5
15,1,1,3,0.595,0.312,1,0,5.5
15,1,0,1,0.494,0.351,1,0,5.5
15,1,1,1,1.258,0.704,1,0,5.5
15,1,1,3,0.791,0.255,1,0,5.5
15,1,1,3,0.38,0.246,1,0,5.5
15,1,1,3,0.315,0.177,1,0,5.5
15,1,1,2,0.772,0.373,1,0,5.5
15,1,1,4,0.243,0.185,1,0,5.5
15,1,1,3,0.287,0.208,1,0,5.5
15,0,0,3,0.285,0.286,1,0,5.5
15,1,1,3,1.103,0.302,1,0,5.5
15,1,1,4,0.817,0.294,1,0,5.5
15,1,1,3,0.294,0.205,1,0,5.5
15,0,0,2,0.269,0.374,1,0,5.5
15,1,1,4,0.833,0.312,1,1,15
15,1,1,2,0.629,0.224,1,0,5.5
15,0,0,2,0.329,0.319,1,0,5.5
15,1,1,3,0.341,0.198,1,0,5.5
15,0,0,1,0.317,0.319,1,0,5.5
15,1,1,1,0.763,0.2,1,0,5.5
15,0,1,1,0.593,0.207,1,0,5.5
15,0,0,2,0.389,0.286,1,0,5.5
15,1,1,3,0.577,0.263,1,0,5.5
15,0,0,2,0.443,0.759,1,0,5.5
15,0,1,1,0.764,0.304,1,0,5.5
15,1,1,3,0.45,0.198,1,0,5.5
15,1,1,3,0.305,0.2,1,0,5.5
15,0,0,2,0.47,0.249,1,0,5.5
15,0,0,1,1.055,0.381,1,0,5.5
15,1,1,3,0.425,0.399,1,0,5.5
15,0,0,2,0.321,0.486,1,0,5.5
15,1,1,4,0.445,0.247,1,0,5.5
15,0,0,3,0.542,0.233,1,0,5.5
15,1,1,1,0.588,0.337,1,0,5.5
15,0,0,3,0.355,0.282,1,0,5.5
15,1,1,1,0.702,0.334,1,0,5.5
15,0,0,3,0.701,0.335,1,0,5.5
15,1,1,1,0.664,0.239,1,0,5.5
15,0,0,1,0.643,0.462,1,0,5.5
15,1,1,1,0.396,0.432,1,0,5.5
15,1,1,3,0.521,0.696,1,0,5.5
15,1,1,4,0.37,0.423,1,0,5.5
15,1,1,2,0.529,0.446,1,0,5.5
15,0,0,1,0.413,0.411,1,0,5.5
15,1,0,1,0.594,0.288,1,0,5.5
15,1,1,1,0.611,0.294,1,0,5.5
15,0,0,1,0.375,0.28,1,0,5.5
15,1,1,2,0.372,0.272,1,0,5.5
15,1,1,2,0.507,0.216,1,0,5.5
15,1,0,1,0.683,0.27,1,0,5.5
15,0,0,2,0.872,0.182,1,0,5.5
15,0,1,1,0.596,0.255,1,0,5.5
15,0,0,2,1.085,0.351,1,0,5.5
15,0,1,2,0.689,0.743,1,0,5.5
15,0,0,4,0.871,0.341,1,1,15
15,1,1,2,0.411,0.431,1,0,5.5
15,1,1,1,0.412,0.352,1,0,5.5
15,1,1,3,0.291,0.248,1,0,5.5
15,0,0,2,0.307,0.254,1,0,5.5
15,0,0,3,0.652,0.295,1,0,5.5
15,1,1,3,0.316,0.241,1,0,5.5
15,0,0,2,0.694,0.343,1,0,5.5
15,0,0,2,0.468,0.425,1,0,5.5
15,1,1,1,0.579,0.401,1,0,5.5
15,0,0,2,1.26,0.471,1,0,5.5
15,1,1,2,0.367,0.294,1,0,5.5
15,0,0,2,0.272,0.279,1,0,5.5
15,0,0,3,0.764,0.336,1,0,5.5
15,0,0,1,0.656,0.225,1,0,5.5
15,1,1,4,0.634,0.239,1,0,5.5
15,0,0,1,0.547,0.302,1,0,5.5
15,1,1,4,0.276,0.199,1,0,5.5
15,0,0,2,0.604,0.416,1,0,5.5
15,1,1,4,0.311,0.167,1,0,5.5
15,0,0,4,0.425,0.502,1,1,15
16,1,0,1,3.395,1.285,1,0,5.5
16,1,1,1,1.414,0.619,1,0,5.5
16,1,1,2,0.923,0.945,1,0,5.5
16,0,0,1,0.926,1.17,1,0,5.5
16,1,1,2,0.759,1.545,1,0,5.5
16,1,0,2,0.632,0.698,1,0,5.5
16,0,0,1,0.925,0.749,1,0,5.5
16,0,1,2,0.98,0.754,1,0,5.5
16,1,1,2,0.727,0.582,1,0,5.5
16,1,1,2,0.915,0.551,1,0,5.5
16,0,0,1,1.163,0.927,1,0,5.5
16,0,0,1,1.243,0.488,1,0,5.5
16,0,0,3,0.531,0.743,1,0,5.5
16,1,1,2,0.797,1.598,1,0,5.5
16,0,0,1,1.492,0.609,1,0,5.5
16,0,1,1,2.036,1.237,1,0,5.5
16,0,1,2,0.641,0.626,1,0,5.5
16,1,1,2,0.963,0.91,1,0,5.5
16,0,0,1,0.651,0.603,1,0,5.5
16,1,1,3,0.559,0.813,1,0,5.5
16,1,1,1,0.859,0.416,1,0,5.5
16,0,0,3,0.621,0.497,1,0,5.5
16,1,1,3,0.772,3.024,1,0,5.5
16,1,1,2,0.997,1.058,1,0,5.5
16,1,0,1,0.925,0.927,1,0,5.5
16,0,0,1,0.788,0.502,1,0,5.5
16,1,1,1,0.686,0.501,1,0,5.5
16,1,1,1,0.576,0.494,1,0,5.5
16,1,1,2,0.468,0.844,1,0,5.5
16,1,1,3,0.525,0.748,1,0,5.5
16,1,1,2,0.693,0.481,1,0,5.5
16,1,1,2,0.38,0.391,1,0,5.5
16,0,1,2,0.54,0.421,1,0,5.5
16,1,1,2,0.423,0.439,1,0,5.5
16,0,1,1,0.582,0.449,1,0,5.5
16,0,1,1,0.419,0.386,1,0,5.5
16,1,1,1,0.455,0.337,1,0,5.5
16,1,0,1,0.625,0.559,1,0,5.5
16,1,1,1,0.394,0.35,1,0,5.5
16,1,1,4,0.652,1.162,1,1,15
16,0,1,1,0.846,0.333,1,0,5.5
16,0,0,2,0.742,0.546,1,0,5.5
16,1,1,3,0.427,0.509,1,0,5.5
16,1,1,2,0.448,0.424,1,0,5.5
16,1,1,2,0.433,0.437,1,0,5.5
16,0,0,1,0.573,0.513,1,0,5.5
16,1,1,4,0.331,1.315,1,0,5.5
16,1,1,1,1.143,0.588,1,0,5.5
16,0,0,1,0.879,0.416,1,0,5.5
16,1,1,1,0.366,0.373,1,0,5.5
16,0,1,1,0.585,0.386,1,0,5.5
16,0,0,4,0.525,1.563,1,0,5.5
16,1,1,1,0.566,0.469,1,0,5.5
16,1,1,1,0.337,0.373,1,0,5.5
16,0,1,1,0.621,0.762,1,0,5.5
16,1,1,1,0.394,0.382,1,0,5.5
16,1,1,2,0.494,0.733,1,0,5.5
16,1,1,1,0.325,0.519,1,0,5.5
16,0,0,1,0.551,0.763,1,0,5.5
16,1,0,1,0.536,0.495,1,0,5.5
16,0,0,1,0.605,0.517,1,0,5.5
16,1,1,4,0.357,1.04,1,0,5.5
16,0,1,2,0.838,0.624,1,0,5.5
16,1,1,4,0.307,0.498,1,0,5.5
16,0,0,1,0.631,0.494,1,0,5.5
16,0,0,1,0.463,0.375,1,0,5.5
16,0,0,1,0.477,0.329,1,0,5.5
16,0,0,1,0.448,0.273,1,0,5.5
16,0,1,2,0.39,1.525,1,0,5.5
16,0,0,1,0.44,0.361,1,0,5.5
16,1,1,3,0.338,0.704,1,0,5.5
16,1,0,1,0.585,0.914,1,0,5.5
16,0,1,1,0.515,1.158,1,0,5.5
16,0,0,1,0.467,0.437,1,0,5.5
16,1,1,2,0.295,0.529,1,0,5.5
16,1,0,1,0.554,0.467,1,0,5.5
16,1,1,3,0.39,0.72,1,0,5.5
16,1,1,2,1.063,0.572,1,0,5.5
16,0,0,1,0.659,0.726,1,0,5.5
16,1,1,4,0.469,0.895,1,1,15
16,0,1,2,1,0.436,1,0,5.5
16,1,1,3,0.287,0.543,1,0,5.5
16,1,1,4,0.357,0.702,1,0,5.5
16,0,0,1,0.472,0.375,1,0,5.5
16,1,0,1,0.508,0.346,1,0,5.5
16,1,1,1,0.954,0.342,1,0,5.5
16,1,0,1,0.504,0.264,1,0,5.5
16,0,0,1,0.425,0.235,1,0,5.5
16,0,0,1,0.487,0.248,1,0,5.5
16,1,0,1,0.46,0.268,1,0,5.5
16,1,0,1,0.37,0.285,1,0,5.5
16,1,0,1,0.339,0.224,1,0,5.5
16,0,0,1,0.512,0.264,1,0,5.5
16,1,0,1,0.363,0.227,1,0,5.5
16,0,0,1,0.405,0.245,1,0,5.5
16,0,0,3,0.415,0.906,1,0,5.5
16,0,0,3,0.873,0.577,1,0,5.5
16,1,1,3,0.472,0.384,1,0,5.5
16,0,0,2,0.444,0.517,1,0,5.5
16,0,0,4,0.475,0.752,1,1,15
16,0,0,1,1.304,0.288,2,0,0.62
16,0,0,1,0.822,0.235,2,0,0.62
16,1,1,1,0.542,0.317,2,0,0.62
16,0,0,1,0.999,0.337,2,0,0.62
16,1,1,1,0.47,0.306,2,0,0.62
16,1,0,1,0.645,0.23,2,0,0.62
16,1,0,1,0.522,0.237,2,0,0.62
16,0,1,1,1.678,0.431,2,0,0.62
16,1,0,1,0.648,0.247,2,0,0.62
16,1,0,1,0.435,0.23,2,0,0.62
16,0,0,1,0.365,0.205,2,0,0.62
16,1,0,2,0.91,0.307,2,0,0.62
16,1,0,2,0.646,0.287,2,0,0.62
16,0,0,2,0.435,0.253,2,0,0.62
16,1,1,2,0.766,0.379,2,0,0.62
16,0,0,1,0.707,0.205,2,0,0.62
16,1,0,1,0.506,0.433,2,0,0.62
16,0,0,2,0.497,0.288,2,0,0.62
16,1,0,2,0.599,0.424,2,0,0.62
16,1,1,1,0.511,0.832,2,0,0.62
16,0,1,2,0.69,0.62,2,0,0.62
16,0,1,2,0.504,0.358,2,0,0.62
16,0,0,1,0.707,0.585,2,0,0.62
16,0,0,1,0.708,0.246,2,0,0.62
16,1,0,1,0.758,0.223,2,0,0.62
16,0,0,1,0.755,0.206,2,0,0.62
16,1,1,2,0.732,0.238,2,0,0.62
16,1,0,1,0.499,0.696,2,0,0.62
16,1,0,1,0.477,0.41,2,0,0.62
16,1,0,1,0.647,0.295,2,0,0.62
16,0,0,1,0.591,0.27,2,0,0.62
16,0,0,1,0.437,0.23,2,0,0.62
16,0,1,3,0.418,0.565,2,0,0.62
16,1,1,2,0.751,0.355,2,0,0.62
16,0,1,2,0.681,0.368,2,0,0.62
16,1,1,1,0.428,0.341,2,0,0.62
16,0,1,1,0.588,0.285,2,0,0.62
16,1,1,1,0.645,0.282,2,0,0.62
16,0,1,1,0.36,0.332,2,0,0.62
16,0,1,1,0.428,0.303,2,1,5
16,0,1,3,0.398,0.548,2,0,0.62
16,0,0,2,0.457,0.39,2,0,0.62
16,1,1,2,0.674,0.527,2,0,0.62
16,0,1,2,0.32,0.298,2,0,0.62
16,1,1,2,0.468,0.235,2,0,0.62
16,0,0,1,0.604,0.484,2,0,0.62
16,0,1,1,0.358,0.484,2,0,0.62
16,1,1,1,0.419,0.246,2,0,0.62
16,1,0,1,0.983,0.32,2,0,0.62
16,1,0,1,0.72,0.242,2,0,0.62
16,1,1,1,0.75,0.246,2,0,0.62
16,1,1,1,0.437,0.264,2,0,0.62
16,0,1,1,0.367,0.244,2,0,0.62
16,1,0,1,0.371,0.314,2,0,0.62
16,1,0,2,0.397,0.272,2,0,0.62
16,1,0,2,0.375,0.31,2,0,0.62
16,1,0,2,0.634,0.201,2,0,0.62
16,1,0,2,0.574,0.204,2,0,0.62
16,1,0,2,0.398,0.3,2,0,0.62
16,1,0,2,0.608,0.26,2,0,0.62
16,0,1,2,0.413,0.725,2,0,0.62
16,0,1,2,0.386,0.475,2,0,0.62
16,0,1,2,0.337,0.348,2,0,0.62
16,1,1,2,0.291,0.259,2,0,0.62
16,0,1,2,0.515,0.257,2,0,0.62
16,0,0,2,0.686,0.348,2,0,0.62
16,1,0,2,0.545,0.226,2,0,0.62
16,1,1,1,0.792,0.383,2,0,0.62
16,1,0,1,1.611,0.325,2,0,0.62
16,1,1,1,0.709,0.227,2,0,0.62
16,0,0,1,0.631,0.344,2,0,0.62
16,1,0,1,0.548,0.199,2,0,0.62
16,1,0,1,0.465,0.426,2,0,0.62
16,0,0,1,0.828,0.204,2,0,0.62
16,0,1,1,0.473,0.262,2,0,0.62
16,0,0,1,0.54,0.219,2,0,0.62
16,1,1,1,0.387,0.244,2,0,0.62
16,1,0,1,0.631,0.228,2,0,0.62
16,1,0,1,0.515,0.191,2,0,0.62
16,0,1,4,0.771,1.281,2,1,5
16,1,0,1,0.782,0.454,2,0,0.62
16,1,0,1,0.456,0.309,2,0,0.62
16,0,0,1,0.339,0.195,2,0,0.62
16,0,0,1,0.481,0.213,2,0,0.62
16,1,1,1,0.554,0.25,2,0,0.62
16,1,1,1,0.337,0.237,2,0,0.62
16,0,0,1,0.484,0.257,2,0,0.62
16,1,1,1,0.371,0.227,2,0,0.62
16,1,0,1,0.398,0.185,2,0,0.62
16,1,0,1,0.69,0.193,2,0,0.62
16,1,0,1,0.463,0.188,2,0,0.62
16,1,1,3,1.746,0.511,2,0,0.62
16,1,1,3,1.047,0.214,2,0,0.62
16,0,0,1,0.508,0.481,2,0,0.62
16,1,1,3,0.571,0.219,2,0,0.62
16,0,0,2,0.462,0.509,2,0,0.62
16,0,0,2,0.601,0.275,2,0,0.62
16,1,0,3,0.403,0.839,2,0,0.62
16,1,0,3,0.388,0.263,2,0,0.62
16,0,1,4,0.766,1.49,2,1,5
17,1,0,2,2.499,1.939,2,0,0.62
17,1,1,1,1.769,1.375,2,0,0.62
17,0,0,1,2.871,0.86,2,0,0.62
17,1,0,2,2.724,1.731,2,0,0.62
17,0,1,2,3.017,1.567,2,0,0.62
17,0,0,1,0.772,4.246,2,0,0.62
17,0,0,2,0.79,0.866,2,0,0.62
17,1,1,2,1.618,0.959,2,0,0.62
17,1,1,1,1.09,0.703,2,0,0.62
17,0,0,1,2.845,0.603,2,0,0.62
17,1,1,1,0.655,0.777,2,0,0.62
17,0,0,2,0.68,0.868,2,0,0.62
17,0,0,1,0.709,1.092,2,0,0.62
17,1,1,2,0.582,0.764,2,0,0.62
17,1,1,1,0.525,0.689,2,0,0.62
17,0,0,2,0.476,0.803,2,0,0.62
17,1,1,2,0.733,0.903,2,0,0.62
17,0,1,1,1.219,0.695,2,0,0.62
17,0,0,1,0.675,0.677,2,0,0.62
17,0,1,1,0.657,0.803,2,0,0.62
17,1,1,1,0.951,0.641,2,0,0.62
17,0,0,1,1.528,0.565,2,0,0.62
17,0,1,1,1.084,0.529,2,0,0.62
17,0,1,1,0.54,0.487,2,0,0.62
17,0,1,1,0.803,0.684,2,0,0.62
17,1,1,1,0.406,0.804,2,0,0.62
17,1,1,1,3.637,0.567,2,0,0.62
17,0,0,1,0.956,0.481,2,0,0.62
17,0,1,1,0.445,0.621,2,0,0.62
17,1,1,2,0.478,0.481,2,0,0.62
17,1,1,2,0.744,0.774,2,0,0.62
17,0,1,1,2.299,0.603,2,0,0.62
17,0,0,1,0.405,0.86,2,0,0.62
17,0,0,1,0.716,0.638,2,0,0.62
17,1,1,2,0.375,0.489,2,0,0.62
17,1,1,2,0.442,0.622,2,0,0.62
17,0,1,1,0.395,0.515,2,0,0.62
17,0,0,2,0.564,0.676,2,0,0.62
17,1,1,2,0.594,0.64,2,0,0.62
17,1,1,4,0.444,0.936,2,1,5
17,1,1,1,0.755,0.599,2,0,0.62
17,0,0,2,0.578,0.534,2,0,0.62
17,1,1,2,0.659,0.713,2,0,0.62
17,0,0,1,0.327,0.513,2,0,0.62
17,0,1,1,0.402,0.467,2,0,0.62
17,0,0,2,0.62,0.518,2,0,0.62
17,1,1,3,0.519,0.587,2,0,0.62
17,0,1,1,0.95,0.658,2,0,0.62
17,0,1,1,0.501,0.447,2,0,0.62
17,0,1,1,0.419,0.53,2,0,0.62
17,0,1,1,0.988,0.574,2,0,0.62
17,0,0,1,0.44,0.552,2,0,0.62
17,1,1,2,0.36,0.55,2,0,0.62
17,1,1,3,0.367,0.605,2,0,0.62
17,1,1,2,0.564,0.63,2,0,0.62
17,0,1,1,0.415,0.501,2,0,0.62
17,1,1,3,0.426,0.542,2,0,0.62
17,1,1,4,0.471,0.565,2,0,0.62
17,0,0,1,0.646,0.568,2,0,0.62
17,1,1,3,0.442,0.504,2,0,0.62
17,0,0,1,0.794,0.485,2,0,0.62
17,1,1,2,0.345,0.498,2,0,0.62
17,0,1,1,1.679,0.509,2,0,0.62
17,0,1,1,4.906,0.585,2,0,0.62
17,0,1,1,0.45,0.51,2,0,0.62
17,1,1,3,0.326,0.47,2,0,0.62
17,1,1,1,0.722,0.411,2,0,0.62
17,1,1,1,0.398,0.762,2,0,0.62
17,1,1,2,0.152,0.59,2,0,0.62
17,1,1,3,0.291,0.368,2,0,0.62
17,0,1,1,0.097,0.445,2,0,0.62
17,0,1,1,0.148,0.414,2,0,0.62
17,0,1,1,0.127,0.377,2,0,0.62
17,0,1,1,0.069,0.373,2,0,0.62
17,0,1,1,0.199,0.376,2,0,0.62
17,1,1,2,0.641,0.36,2,0,0.62
17,1,1,2,0.34,0.312,2,0,0.62
17,1,1,2,0.19,0.345,2,0,0.62
17,1,1,3,0.26,0.502,2,0,0.62
17,1,1,4,0.175,0.52,2,1,5
17,1,1,2,0.442,0.605,2,0,0.62
17,1,1,2,0.212,0.459,2,0,0.62
17,0,1,1,0.243,0.395,2,0,0.62
17,0,0,2,0.263,0.481,2,0,0.62
17,1,1,2,0.301,0.457,2,0,0.62
17,0,0,2,0.558,0.456,2,0,0.62
17,1,1,1,0.344,0.494,2,0,0.62
17,1,1,2,0.254,0.473,2,0,0.62
17,1,1,2,0.25,0.423,2,0,0.62
17,1,1,3,0.417,0.438,2,0,0.62
17,0,1,1,0.457,0.422,2,0,0.62
17,0,1,1,0.503,0.408,2,0,0.62
17,0,1,1,0.337,0.411,2,0,0.62
17,0,1,1,0.404,0.43,2,0,0.62
17,0,1,1,0.25,0.455,2,0,0.62
17,1,1,2,0.377,0.42,2,0,0.62
17,0,1,1,0.352,0.438,2,0,0.62
17,0,1,2,0.351,0.431,2,0,0.62
17,1,1,2,0.194,0.458,2,0,0.62
17,0,0,2,0.642,0.582,2,1,5
17,0,0,2,0.6,0.885,1,0,5.5
17,1,0,1,1.12,0.405,1,0,5.5
17,0,0,1,0.612,0.617,1,0,5.5
17,0,1,1,0.801,0.542,1,0,5.5
17,1,1,1,0.504,0.47,1,0,5.5
17,0,1,1,0.911,0.447,1,0,5.5
17,1,0,1,1.174,0.44,1,0,5.5
17,0,0,1,0.834,0.302,1,0,5.5
17,1,1,2,0.553,0.536,1,0,5.5
17,0,0,2,0.542,0.469,1,0,5.5
17,0,0,2,0.485,0.459,1,0,5.5
17,0,1,2,0.658,1.087,1,0,5.5
17,1,1,1,0.736,0.487,1,0,5.5
17,0,0,2,0.468,0.446,1,0,5.5
17,0,1,2,0.435,0.441,1,0,5.5
17,0,1,2,0.355,0.354,1,0,5.5
17,1,1,2,0.397,0.367,1,0,5.5
17,0,0,1,0.888,0.565,1,0,5.5
17,0,1,1,0.677,0.711,1,0,5.5
17,0,0,1,1.127,0.387,1,0,5.5
17,1,1,2,0.607,0.37,1,0,5.5
17,1,1,2,0.377,0.345,1,0,5.5
17,0,1,1,0.837,0.41,1,0,5.5
17,0,0,2,1.106,0.39,1,0,5.5
17,1,1,1,0.662,0.386,1,0,5.5
17,1,1,1,0.524,0.384,1,0,5.5
17,0,1,1,0.618,0.363,1,0,5.5
17,1,1,1,0.69,0.394,1,0,5.5
17,0,0,2,0.467,0.42,1,0,5.5
17,0,0,2,0.429,0.4,1,0,5.5
17,1,1,2,0.771,0.381,1,0,5.5
17,0,1,2,0.461,0.384,1,0,5.5
17,0,0,2,1.056,0.44,1,0,5.5
17,0,0,2,0.555,0.38,1,0,5.5
17,1,0,2,0.49,0.407,1,0,5.5
17,1,0,2,0.502,0.392,1,0,5.5
17,0,0,2,0.61,0.446,1,0,5.5
17,0,0,2,0.702,0.46,1,0,5.5
17,1,1,3,0.873,0.515,1,0,5.5
17,1,1,3,0.431,0.375,1,1,15
17,1,1,1,0.538,0.407,1,0,5.5
17,0,1,1,0.426,0.41,1,0,5.5
17,1,0,1,0.547,0.42,1,0,5.5
17,1,0,1,0.391,0.361,1,0,5.5
17,0,0,2,0.603,0.422,1,0,5.5
17,1,0,1,0.51,0.338,1,0,5.5
17,0,0,2,0.28,0.414,1,0,5.5
17,1,0,1,0.449,0.38,1,0,5.5
17,1,0,2,0.462,0.44,1,0,5.5
17,1,1,2,0.634,0.433,1,0,5.5
17,1,0,2,0.497,0.468,1,0,5.5
17,0,0,1,0.56,0.383,1,0,5.5
17,1,1,2,0.43,0.432,1,0,5.5
17,0,1,2,0.407,0.439,1,0,5.5
17,1,1,1,0.532,0.455,1,0,5.5
17,1,1,1,0.423,0.41,1,0,5.5
17,1,1,1,0.442,0.404,1,0,5.5
17,1,1,1,1.064,0.408,1,0,5.5
17,0,0,2,0.378,0.493,1,0,5.5
17,1,0,2,0.342,0.476,1,0,5.5
17,0,0,2,0.36,0.51,1,0,5.5
17,0,0,3,0.48,0.567,1,0,5.5
17,1,0,3,0.195,0.482,1,0,5.5
17,0,0,2,0.388,0.464,1,0,5.5
17,1,1,1,0.562,0.479,1,0,5.5
17,1,1,2,0.337,0.416,1,0,5.5
17,0,0,2,0.364,0.456,1,0,5.5
17,0,0,2,0.125,0.465,1,0,5.5
17,0,0,2,0.156,0.436,1,0,5.5
17,1,0,2,0.177,0.397,1,0,5.5
17,0,0,2,0.412,0.358,1,0,5.5
17,0,0,2,0.393,0.402,1,0,5.5
17,0,0,2,0.383,0.397,1,0,5.5
17,0,0,2,0.462,0.372,1,0,5.5
17,0,0,2,0.989,0.455,1,0,5.5
17,1,1,1,0.481,0.408,1,0,5.5
17,0,1,1,0.451,0.443,1,0,5.5
17,1,1,1,0.418,0.403,1,0,5.5
17,0,0,2,0.526,0.533,1,0,5.5
17,1,1,3,0.511,0.422,1,1,15
17,1,1,1,0.468,0.407,1,0,5.5
17,0,1,1,0.486,0.484,1,0,5.5
17,0,0,1,0.196,0.433,1,0,5.5
17,0,0,2,0.231,0.385,1,0,5.5
17,0,0,3,0.148,0.452,1,0,5.5
17,1,1,1,0.423,0.388,1,0,5.5
17,1,0,2,0.421,0.434,1,0,5.5
17,0,0,2,0.25,0.362,1,0,5.5
17,0,0,2,0.123,0.385,1,0,5.5
17,0,1,2,0.301,0.378,1,0,5.5
17,1,0,2,0.358,0.368,1,0,5.5
17,1,0,1,0.312,0.364,1,0,5.5
17,1,0,1,0.469,0.316,1,0,5.5
17,0,0,2,0.455,0.41,1,0,5.5
17,0,0,2,0.309,0.386,1,0,5.5
17,0,0,2,0.168,0.383,1,0,5.5
17,1,1,2,0.397,0.265,1,0,5.5
17,0,1,2,0.53,0.235,1,0,5.5
17,0,0,2,0.834,0.322,1,0,5.5
17,0,0,3,0.428,0.421,1,1,15
18,0,1,3,1.414,4.586,2,0,0.62
18,1,1,3,1.311,1.182,2,0,0.62
18,0,0,2,1.021,0.989,2,0,0.62
18,0,1,3,1.274,0.653,2,0,0.62
18,1,1,4,0.608,1.107,2,0,0.62
18,0,1,4,3.232,0.637,2,0,0.62
18,1,1,4,0.744,0.629,2,0,0.62
18,1,1,4,0.555,0.479,2,0,0.62
18,0,1,4,0.408,0.495,2,0,0.62
18,1,1,4,0.661,0.542,2,0,0.62
18,1,1,4,0.533,0.47,2,0,0.62
18,0,1,4,1.296,0.438,2,0,0.62
18,0,0,4,0.541,0.643,2,0,0.62
18,1,1,3,0.558,0.487,2,0,0.62
18,1,1,3,0.518,0.43,2,0,0.62
18,0,1,3,0.533,0.57,2,0,0.62
18,0,1,3,1.032,0.462,2,0,0.62
18,1,1,3,0.565,0.354,2,0,0.62
18,0,1,3,0.482,0.534,2,0,0.62
18,1,1,3,0.447,0.446,2,0,0.62
18,1,0,2,6.133,0.694,2,0,0.62
18,0,1,3,0.459,0.43,2,0,0.62
18,0,1,3,0.487,0.382,2,0,0.62
18,1,1,3,0.51,0.372,2,0,0.62
18,0,1,3,0.337,0.414,2,0,0.62
18,0,1,3,1.252,0.32,2,0,0.62
18,0,1,3,0.404,0.383,2,0,0.62
18,1,1,3,0.184,0.462,2,0,0.62
18,0,1,4,0.275,0.622,2,0,0.62
18,0,1,3,0.32,0.678,2,0,0.62
18,0,1,3,0.43,0.501,2,0,0.62
18,0,1,4,0.783,0.56,2,0,0.62
18,0,1,3,0.376,0.573,2,0,0.62
18,1,1,3,0.266,0.429,2,0,0.62
18,1,1,3,0.404,0.469,2,0,0.62
18,1,1,3,0.516,0.508,2,0,0.62
18,0,1,3,0.741,0.466,2,0,0.62
18,0,1,3,0.372,0.573,2,0,0.62
18,1,1,4,0.371,0.463,2,0,0.62
18,0,0,4,0.062,0.589,2,1,5
18,1,1,4,0.221,0.452,2,0,0.62
18,1,1,4,0.338,0.391,2,0,0.62
18,0,1,4,0.577,0.527,2,0,0.62
18,1,1,4,0.416,0.486,2,0,0.62
18,0,1,3,0.815,0.471,2,0,0.62
18,1,1,3,0.267,0.362,2,0,0.62
18,0,1,3,1.121,0.413,2,0,0.62
18,1,1,3,0.522,0.573,2,0,0.62
18,1,1,4,0.275,0.421,2,0,0.62
18,0,1,3,0.472,0.406,2,0,0.62
18,0,1,3,1.541,0.401,2,0,0.62
18,0,1,4,0.478,0.699,2,0,0.62
18,1,1,3,0.354,0.43,2,0,0.62
18,0,1,3,0.613,0.438,2,0,0.62
18,0,0,2,0.309,0.877,2,0,0.62
18,0,0,3,0.532,0.824,2,0,0.62
18,0,1,3,0.356,0.462,2,0,0.62
18,0,1,3,0.608,0.43,2,0,0.62
18,1,1,3,1.032,0.534,2,0,0.62
18,1,1,3,0.356,0.373,2,0,0.62
18,0,1,4,0.285,0.501,2,0,0.62
18,1,1,3,0.527,0.406,2,0,0.62
18,1,1,3,0.667,1.897,2,0,0.62
18,1,1,3,0.268,0.35,2,0,0.62
18,0,1,3,0.471,0.405,2,0,0.62
18,0,1,3,0.524,0.501,2,0,0.62
18,1,1,3,0.638,0.878,2,0,0.62
18,0,1,3,1.566,0.5,2,0,0.62
18,0,1,3,1.443,1.694,2,0,0.62
18,0,1,3,0.649,0.406,2,0,0.62
18,1,1,3,0.505,0.413,2,0,0.62
18,0,1,4,0.413,0.437,2,0,0.62
18,1,1,3,0.498,0.485,2,0,0.62
18,0,1,3,0.384,0.407,2,0,0.62
18,1,1,3,0.925,0.493,2,0,0.62
18,1,1,3,0.407,0.391,2,0,0.62
18,0,1,3,0.496,0.398,2,0,0.62
18,0,0,3,0.73,0.751,2,0,0.62
18,0,1,3,0.857,0.398,2,0,0.62
18,1,1,3,0.843,0.436,2,1,5
18,1,1,3,0.227,0.409,2,0,0.62
18,0,1,3,0.352,0.494,2,0,0.62
