Subj_idx,Block,Trial,RT_stop,Stimulus,Response,Error,Confidence,RT_confidence,ErrorDirectionJudgment,RT_directionJudgment
1,1,1,2.88507936507937,7,7,0,3,2.57609332399988,-1,7.24248186799923
1,1,2,2.82267573696145,7,8,1,2,2.19365939399904,-1,1.84800154100049
1,1,3,2.18267573696145,7,5,-2,2,2.74662944099873,-1,1.6073386120006
1,1,4,2.53532879818594,7,6,-1,2,2.12082606900003,-1,0.946860883999761
1,1,5,1.96498866213152,7,6,-1,3,3.20088670900077,-1,2.59475100999953
1,1,6,2.50775510204082,7,7,0,2,2.56982654899912,-1,0.887443301999156
1,1,7,2.57596371882086,7,7,0,2,5.56256339799984,-1,2.63150550099999
1,1,8,2.29877551020408,7,7,0,2,2.42723878099969,-1,3.25393395100036
1,1,9,2.46131519274376,7,6,-1,2,4.17316232300072,-1,2.87826778499948
1,1,10,2.52371882086168,7,7,0,2,2.32468654900003,-1,3.06100628599961
1,1,11,1.95482993197279,7,5,-2,1,2.34990945900063,-1,0.884500512000159
1,1,12,2.59337868480726,7,6,-1,3,2.70038173900139,-1,1.61346737399981
1,1,13,2.01868480725624,7,6,-1,2,3.66056892699999,-1,2.33984191799937
1,1,14,2.0390022675737,7,6,-1,2,3.5366647130013,-1,1.05496146799851
1,1,15,2.87637188208617,7,8,1,1,2.62864400900071,-1,1.00542242699885
1,1,16,1.75310657596372,7,6,-1,3,3.08417956799894,-1,1.62735051799973
1,1,17,2.33650793650794,7,6,-1,2,3.36326772199936,-1,1.60608597899954
1,1,18,2.10575963718821,7,6,-1,3,1.87848038599986,-1,2.4590200269995
1,1,19,2.07673469387755,7,5,-2,1,3.44914715600135,-1,1.25695953700051
1,1,20,2.55709750566893,7,7,0,3,2.39732284599995,-1,3.07178233400009
1,1,21,2.53532879818594,7,6,-1,2,4.79859794399999,-1,1.95011521299966
1,1,22,2.65433106575964,7,6,-1,1,2.18953610300014,-1,1.35456376299953
1,1,23,1.99256235827664,7,6,-1,3,1.83888949200082,-1,1.6661864609996
1,1,24,3.37269841269841,7,9,2,1,3.09101394299978,-1,1.17752423599995
1,1,25,2.83863945578231,7,7,0,2,3.11079864499879,-1,1.01318335599899
1,1,26,2.29732426303855,7,7,0,2,1.56249981200017,-1,1.25996945200131
1,1,27,2.23201814058957,7,6,-1,3,2.03496797099979,-1,1.83173801900011
1,1,28,1.86630385487528,7,6,-1,1,1.85475885099913,-1,0.955393715001264
1,1,29,2.65142857142857,7,7,0,2,1.49927961000139,-1,0.952969371999643
1,1,30,2.20009070294785,7,5,-2,1,2.71547897900018,-1,0.330680150000262
1,1,31,1.95482993197279,7,5,-2,2,2.91527074700025,-1,1.32156892200146
1,1,32,2.98956916099773,7,7,0,2,3.10017886999958,-1,1.05080276499939
1,1,33,2.38294784580499,7,6,-1,1,2.1474760100009,-1,2.57847940300053
1,1,34,2.18267573696145,7,6,-1,2,5.25638568500108,-1,2.7953179899996
1,1,35,3.01133786848073,7,7,0,1,1.93439325100007,-1,0.863187875000222
1,1,36,2.13768707482993,7,5,-2,3,4.05725928500033,-1,0.927844900001219
1,1,37,2.05786848072562,7,6,-1,1,1.93252953400042,-1,3.2530208169992
1,1,38,2.07092970521542,7,5,-2,1,1.68360294500053,-1,2.55212933900111
1,1,39,2.27845804988662,7,7,0,2,1.85507745700124,-1,1.24243729800037
1,1,40,2.10575963718821,7,6,-1,3,5.39606269400065,-1,1.55278789099975
1,1,41,1.45414965986395,7,5,-2,1,2.06559157899937,-1,0.294074485000237
1,1,42,1.84453514739229,7,6,-1,3,1.47019314700083,-1,1.54649814000004
1,1,43,2.1231746031746,7,6,-1,3,3.20920903899969,-1,3.09031520200006
1,1,44,3.07519274376417,7,8,1,1,1.82027898600063,-1,1.24231678799879
1,1,45,2.30022675736961,7,7,0,2,4.34902704200067,-1,2.82374784300009
1,1,46,1.76036281179138,7,5,-2,1,2.12392506600008,-1,1.0119368450014
1,1,47,2.20154195011338,7,6,-1,2,4.06024597300166,-1,1.50641000599899
1,1,48,2.4584126984127,7,7,0,3,3.33133514499968,-1,3.20820488799836
1,1,49,2.59337868480726,7,6,-1,2,5.94708703699871,-1,2.3123887239999
1,1,50,1.93160997732426,7,6,-1,1,2.41633115500008,-1,0.988508976000958
1,1,51,2.23492063492063,7,6,-1,1,3.639263467001,-1,0.991873080000005
1,1,52,2.46131519274376,7,6,-1,2,3.58081952499924,-1,2.76098477300002
1,1,53,1.89823129251701,7,5,-2,3,2.18820545100061,-1,0.848905484999705
1,1,54,1.43818594104308,7,4,-3,1,1.6120830660002,-1,0.498173096000755
1,1,55,2.09705215419501,7,6,-1,3,3.52789127899996,-1,1.57308318499963
1,1,56,1.99256235827664,7,6,-1,3,1.8509027529999,-1,0.632376036001006
1,1,57,2.04335600907029,7,5,-2,1,1.16331174600055,-1,0.23789519300044
1,1,58,1.91709750566893,7,5,-2,3,1.60385984999994,-1,2.7615883139988
1,1,59,1.7168253968254,7,4,-3,1,4.34447766399899,-1,1.41045771999961
1,1,60,2.17396825396825,7,6,-1,3,3.33694198599915,-1,1.47948826999891
1,1,61,1.47156462585034,7,4,-3,1,2.0722216209997,-1,0.634662899999967
1,1,62,1.74585034013605,7,6,-1,3,1.49622914300016,-1,1.31587138100076
1,1,63,2.20444444444444,7,6,-1,3,2.25078327700066,-1,1.01379543799885
1,1,64,2.27555555555556,7,6,-1,3,4.31245921599839,-1,0.722060505000627
1,1,65,2.19573696145125,7,6,-1,3,1.5569032930016,-1,0.822501041000578
1,1,66,2.31473922902494,7,6,-1,2,1.69405900600032,-1,0.609201655001016
1,1,67,2.66303854875283,7,6,-1,1,3.25011709799946,-1,1.22596995300046
1,1,68,2.47147392290249,7,6,-1,3,2.94224572299936,-1,1.08297390199914
1,1,69,2.58176870748299,7,7,0,3,1.78110918499988,-1,3.58841730499989
1,1,70,2.56290249433107,7,6,-1,2,2.3863638139992,-1,0.816187110998726
1,1,71,2.27990929705215,7,6,-1,2,4.1041933359993,-1,1.74121519000073
1,1,72,2.00562358276644,7,5,-2,3,2.2055056370009,-1,2.17068657699929
1,1,73,2.17106575963719,7,6,-1,2,3.10932927700014,-1,1.98582390600131
1,1,74,2.71092970521542,7,7,0,1,2.89708869800052,-1,0.73769641799845
1,1,75,1.76761904761905,7,5,-2,1,1.56844737900065,-1,0.305969398999878
1,1,76,2.17251700680272,7,5,-2,2,4.42816122300064,-1,1.97132769100062
1,1,77,2.06367346938775,7,6,-1,2,4.52323770300063,-1,2.85350194899911
1,1,78,2.00852607709751,7,6,-1,3,1.64945668899963,-1,2.99070419099917
1,1,79,2.14784580498866,7,6,-1,3,4.1885095130001,-1,1.1328360589996
1,1,80,2.28426303854875,7,6,-1,2,4.17897373599953,-1,2.29116147899913
1,1,81,1.77052154195011,7,6,-1,1,3.66062192200116,-1,0.642051171000276
1,2,1,3.37705215419501,11,9,-2,1,3.43432539800051,-1,0.898587263000081
1,2,2,3.22902494331066,11,8,-3,2,2.53850949699881,-1,0.923317075999876
1,2,3,3.38430839002268,11,9,-2,1,1.60768801199993,-1,0.470388886000364
1,2,4,3.12018140589569,11,8,-3,2,2.24583901199912,-1,1.51368555600129
1,2,5,3.1869387755102,11,8,-3,2,2.61079404500015,-1,0.382377746000202
1,2,6,3.00553287981859,11,8,-3,2,3.21966115400028,-1,1.78933658300048
1,2,7,3.62666666666667,11,9,-2,3,1.43408317799913,-1,1.22494936099974
1,2,8,3.33786848072562,11,8,-3,2,1.74303661799968,-1,0.599970274999578
1,2,9,2.90104308390023,11,8,-3,1,1.48538210000152,-1,0.366244794999147
1,2,10,3.43074829931973,11,9,-2,2,3.89272882799924,-1,2.15290972000003
1,2,11,3.48154195011338,11,8,-3,1,1.84102822700152,-1,1.5180269600005
1,2,12,3.96045351473923,11,10,-1,1,2.65916416500113,-1,0.371517840001616
1,2,13,3.21741496598639,11,9,-2,3,2.72456093099936,-1,2.14771579200169
1,2,14,4.08961451247166,11,10,-1,2,4.07935357499991,-1,1.13227651799934
1,2,15,2.56725623582766,11,7,-4,1,1.78539781200016,-1,0.241697833000217
1,2,16,3.00553287981859,11,9,-2,3,1.48389328300073,-1,0.78347184300037
1,2,17,3.10857142857143,11,8,-3,2,3.56435414100088,-1,0.310959742000705
1,2,18,3.50331065759637,11,8,-3,1,3.02078427100059,-1,1.23902362199988
1,2,19,3.54104308390023,11,10,-1,1,1.76556178600003,-1,0.574152514998787
1,2,20,3.6281179138322,11,9,-2,1,3.04493799499869,-1,0.903141005999714
1,2,21,4.02866213151927,11,11,0,3,1.54741360200023,-1,2.25233904199922
1,2,22,3.9415873015873,11,11,0,3,3.55896631299947,-1,0.76203909600008
1,2,23,3.48734693877551,11,9,-2,1,1.51672867900015,-1,0.246890550999524
1,2,24,3.90240362811791,11,10,-1,1,1.3167040699991,-1,0.296334806998857
1,2,25,3.60925170068027,11,9,-2,1,1.38115538499915,-1,0.348812479000117
1,2,26,4.08526077097506,11,10,-1,1,1.70696979199965,-1,0.245998385998973
1,2,27,3.63102040816327,11,10,-1,2,1.14859784100008,-1,1.43944489900059
1,2,28,3.41043083900227,11,10,-1,3,1.86115731599966,-1,2.4748759260001
1,2,29,4.0518820861678,11,9,-2,2,1.62279327299984,-1,0.39062350399945
1,2,30,4.75283446712018,11,11,0,3,1.40620005399978,-1,1.53353036299995
1,2,31,3.85886621315193,11,11,0,2,1.64004324499911,-1,0.405368211000678
1,2,32,3.66875283446712,11,9,-2,2,3.23811701399973,-1,1.03263485300158
1,2,33,3.28707482993197,11,9,-2,1,4.05435196500002,-1,0.700249781000821
1,2,34,3.04471655328798,11,8,-3,2,1.37700921800024,-1,0.225942228000349
1,2,35,4.18539682539683,11,11,0,2,1.79513028099973,-1,0.755488652999702
1,2,36,4.13750566893424,11,12,1,1,1.66777813899898,-1,0.247850825999194
1,2,37,3.45251700680272,11,8,-3,3,1.45918900800098,-1,1.44862861399997
1,2,38,3.66875283446712,11,9,-2,3,1.40377585399983,-1,2.37856407599975
1,2,39,4.17378684807256,11,11,0,1,2.36310045100072,-1,0.457224088999283
1,2,40,3.44526077097506,11,9,-2,1,1.51595440200072,-1,0.926541479000662
1,2,41,3.78630385487528,11,10,-1,2,1.9021080120001,-1,0.281477859000006
1,2,42,0.00435374149659864,11,1,-10,3,6.2905979620009,-1,9.02607146300033
1,2,43,3.99383219954649,11,11,0,1,4.0759093730012,-1,1.08835484500014
1,2,44,3.62086167800454,11,10,-1,2,1.39369102800083,-1,0.295846397999412
1,2,45,4.41034013605442,11,10,-1,1,1.89406098099971,-1,0.273295348999454
1,2,46,4.56707482993197,11,11,0,2,1.36601120600062,-1,0.335088342000745
1,2,47,4.81378684807256,11,12,1,3,1.75282965000042,-1,1.01691830299933
1,2,48,3.70068027210884,11,9,-2,1,3.45203786400089,-1,0.308303146999606
1,2,49,4.05768707482993,11,10,-1,3,1.34923880199858,-1,1.77702908100036
1,2,50,4.13315192743764,11,10,-1,2,1.87861850400077,-1,0.555779257998438
1,2,51,3.36253968253968,11,10,-1,1,1.90090697000051,-1,0.577157957000964
1,2,52,3.70938775510204,11,10,-1,1,1.79628270300054,-1,1.40242819200103
1,2,53,2.89668934240363,11,8,-3,2,4.42665313699945,-1,1.0951731339992
1,2,54,3.99383219954649,11,10,-1,2,3.6721213210003,-1,2.53542286300035
1,2,55,4.57433106575964,11,12,1,3,1.84710101000019,-1,1.64342492099968
1,2,56,4.01995464852608,11,10,-1,3,1.5234938020003,-1,1.40540151000096
1,2,57,3.89079365079365,11,10,-1,3,2.63842041800126,-1,2.36002599899984
1,2,58,3.6368253968254,11,10,-1,2,2.58202478100065,-1,2.73261848400034
1,2,59,3.70503401360544,11,8,-3,1,1.65666661499927,-1,0.780853815000228
1,2,60,4.99083900226757,11,12,1,1,4.6476852959986,-1,1.76388102899909
1,2,61,4.24780045351474,11,12,1,1,2.464689370001,-1,0.608818960001372
1,2,62,3.72825396825397,11,9,-2,2,4.08006086400019,-1,0.987947589999749
1,2,63,4.09106575963719,11,11,0,2,3.35012670700053,-1,0.972213291999651
1,2,64,3.18258503401361,11,8,-3,2,3.97841135700037,-1,0.35734186299851
1,2,65,4.06204081632653,11,11,0,1,3.07619949600121,-1,2.17204515100093
1,2,66,3.95319727891156,11,10,-1,2,2.26076438400014,-1,1.3828497279992
1,2,67,4.13170068027211,11,9,-2,2,2.73234215899902,-1,0.882592695999847
1,2,68,3.92852607709751,11,11,0,3,1.73619284199958,-1,1.59397594499933
1,2,69,5.91383219954649,11,14,3,1,2.51609782899868,-1,1.00532443999873
1,2,70,4.19410430839002,11,11,0,1,3.40157151899984,-1,0.540262548000101
1,2,71,3.63972789115646,11,9,-2,2,1.17588529900058,-1,1.001241725
1,2,72,3.99528344671202,11,10,-1,2,1.88658105099967,-1,0.825393770001028
1,2,73,4.03011337868481,11,11,0,3,3.74721392500032,-1,0.36527166399901
1,2,74,4.3653514739229,11,11,0,2,3.45645134199913,-1,0.488774743000249
1,2,75,4.27827664399093,11,10,-1,3,1.17020631100058,-1,2.01999437099948
1,2,76,3.50040816326531,11,8,-3,3,1.07612735800103,-1,0.433927551001034
1,2,77,2.99972789115646,11,9,-2,2,1.97275271500075,-1,0.917397227998663
1,2,78,3.34657596371882,11,9,-2,3,1.40232716299943,-1,0.85757504600042
1,2,79,3.17387755102041,11,9,-2,1,1.62653833900004,-1,0.658089623000706
1,2,80,3.69632653061224,11,10,-1,1,3.22955912600082,-1,0.581840864999322
1,3,1,1.52526077097506,7,4,-3,1,1.33625565200055,-1,0.354647168998781
1,3,2,2.0346485260771,7,5,-2,2,2.4284221300004,-1,2.43287285800034
1,3,3,2.1231746031746,7,6,-1,2,1.81568480699934,-1,0.709975080000731
1,3,4,2.3437641723356,7,7,0,1,1.60014327299905,-1,0.319711285001176
1,3,5,2.10140589569161,7,5,-2,3,1.27864731799855,-1,0.762291082000957
1,3,6,1.85034013605442,7,5,-2,3,2.01605406400085,-1,1.21354681400044
1,3,7,1.6065306122449,7,6,-1,1,2.21616014100073,-1,0.308283086998927
1,3,8,2.30748299319728,7,6,-1,1,1.21607936799955,-1,0.274096580998958
1,3,9,1.73569160997732,7,4,-3,1,2.04581967299964,-1,0.234021410000423
1,3,10,1.84163265306122,7,5,-2,2,3.56188506999933,-1,0.861010368000279
1,3,11,1.73859410430839,7,5,-2,3,2.06161434100068,-1,1.00857423100024
1,3,12,2.56145124716553,7,7,0,1,1.05218923400025,-1,0.217105041998366
1,3,13,2.16816326530612,7,6,-1,1,1.57395531099974,-1,0.269400203998885
1,3,14,2.9750566893424,7,7,0,2,2.9995830379994,-1,1.11442197900033
1,3,15,2.49034013605442,7,7,0,2,1.15458522699919,-1,0.22908089900011
1,3,16,3.59183673469388,7,9,2,1,0.986377831000937,-1,0.202902900999106
1,3,17,2.40181405895692,7,6,-1,2,1.20158388900018,-1,0.753177687998686
1,3,18,2.19718820861678,7,6,-1,3,1.57514272600019,-1,1.39956517100109
1,3,19,1.78068027210884,7,5,-2,2,1.95579782899949,-1,0.466581189000863
1,3,20,1.84163265306122,7,5,-2,2,2.21517969200067,-1,0.66857907099984
1,3,21,2.16090702947846,7,6,-1,2,1.95180009400065,-1,0.358916821000093
1,3,22,2.36843537414966,7,6,-1,2,2.09677875200032,-1,0.219583910999063
1,3,23,2.29006802721088,7,5,-2,3,1.26218678800069,-1,2.61153365399878
1,3,24,1.86195011337868,7,6,-1,1,1.82743149000089,-1,0.112909272998877
1,3,25,2.49759637188209,7,6,-1,2,2.59724669400021,-1,0.296877062000931
1,3,26,1.90984126984127,7,6,-1,1,0.975920038999902,-1,0.106870202000209
1,3,27,2.37714285714286,7,6,-1,2,1.70922578600039,-1,2.10249878200011
1,3,28,2.16380952380952,7,6,-1,1,2.09184110200113,-1,0.0536107719999563
1,3,29,2.47437641723356,7,6,-1,1,2.73944124000082,-1,1.00942113200108
1,3,30,2.73705215419501,7,8,1,1,3.13340958799927,-1,0.675685416999841
1,3,31,1.77922902494331,7,6,-1,2,1.40682124100022,-1,1.01503215499906
1,3,32,2.05641723356009,7,5,-2,3,1.52667381100036,-1,0.321112233999884
1,3,33,2.21895691609977,7,7,0,2,1.5127045270001,-1,0.851755998999579
1,3,34,2.52662131519274,7,7,0,1,2.47974332900048,-1,1.2262010150007
1,3,35,3.37995464852608,7,9,2,1,3.46380702200076,-1,0.727485023000554
1,3,36,1.93596371882086,7,5,-2,1,1.98591348099944,-1,0.255922583999563
1,3,37,2.84734693877551,7,7,0,2,3.65807555699939,-1,0.512792403000276
1,3,38,2.57015873015873,7,7,0,2,5.59827712100014,-1,0.649297247999129
1,3,39,2.49614512471655,7,7,0,1,1.44500200900075,-1,0.899335603000509
1,3,40,2.40181405895692,7,7,0,1,0.942524161999245,-1,0.207844094000393
1,3,41,2.08544217687075,7,5,-2,3,1.1834492880007,-1,0.623694636000437
1,3,42,2.07818594104308,7,6,-1,3,1.34740576999866,-1,0.46108616499987
1,3,43,2.17396825396825,7,6,-1,2,4.89179130100092,-1,1.07674024900007
1,3,44,2.47147392290249,7,6,-1,1,3.66436743899976,-1,0.598553933999938
1,3,45,2.3350566893424,7,6,-1,2,2.03419773899986,-1,0.559705040001063
1,3,46,2.0302947845805,7,6,-1,3,1.14931197100123,-1,1.32897604199934
1,3,47,2.09124716553288,7,6,-1,3,1.74483034599871,-1,2.14577159600049
1,3,48,3.18113378684807,7,8,1,3,1.87024258200108,-1,1.32134865300031
1,3,49,2.52517006802721,7,6,-1,3,1.46297844199944,-1,1.85969509300048
1,3,50,2.48453514739229,7,6,-1,2,3.96133392199954,-1,1.16447098699973
1,3,51,2.2291156462585,7,7,0,1,1.42063233299996,-1,0.346175493999908
1,3,52,2.0259410430839,7,6,-1,1,1.2418723719984,-1,0.263470824000251
1,3,53,2.02013605442177,7,5,-2,2,1.72406992799915,-1,0.238462057999641
1,3,54,2.09124716553288,7,6,-1,2,4.45820954800001,-1,0.327948559999641
1,3,55,2.79945578231293,7,7,0,1,0.768463145999704,-1,0.227663648000089
1,3,56,2.09560090702948,7,5,-2,3,1.64039335499911,-1,0.334155236001607
1,3,57,1.81696145124717,7,5,-2,1,1.99091887800023,-1,0.325320873998862
1,3,58,2.07528344671202,7,6,-1,3,1.26698999900145,-1,0.599124984000809
1,3,59,1.93015873015873,7,5,-2,2,1.4037268739994,-1,0.852875718001087
1,3,60,2.08399092970522,7,6,-1,1,0.811167692001618,-1,0.259818417998758
1,3,61,2.32344671201814,7,6,-1,3,1.16990187200099,-1,0.851057634999961
1,3,62,1.88662131519274,7,5,-2,2,4.87670527199953,-1,0.901742497999294
1,3,63,2.39891156462585,7,6,-1,1,3.8261041730002,-1,1.19332734000091
1,3,64,2.23492063492063,7,6,-1,2,1.53825942399999,-1,0.907670738000888
1,3,65,3.11002267573696,7,8,1,3,3.97946121399946,-1,0.82010611700025
1,3,66,2.59773242630386,7,7,0,3,1.75218267699893,-1,0.512756113999785
1,3,67,2.41922902494331,7,7,0,2,1.71654455499993,-1,0.424306880000586
1,3,68,2.42503401360544,7,6,-1,3,2.7007292369999,-1,1.98198128900003
1,3,69,2.04625850340136,7,6,-1,2,2.62442283200107,-1,0.500225054000111
1,3,70,2.55854875283447,7,6,-1,1,4.60147461999986,-1,1.99350862100073
1,3,71,2.29587301587302,7,6,-1,3,1.16700753700025,-1,1.35275741700025
1,3,72,2.30893424036281,7,7,0,2,2.62532097300027,-1,0.195614371999909
1,3,73,1.97514739229025,7,5,-2,3,1.46893219000049,-1,1.6574880320004
1,3,74,2.57596371882086,7,7,0,2,1.82790368300084,-1,0.184883075000471
1,3,75,2.88943310657596,7,7,0,1,1.03711879200091,-1,0.333114678000129
1,3,76,2.10430839002268,7,5,-2,2,1.74178496600143,-1,0.222745283999757
1,3,77,2.44825396825397,7,6,-1,3,1.66843730999972,-1,0.601040330000615
1,3,78,2.68916099773243,7,7,0,3,1.58085738000045,-1,0.948133756999596
1,3,79,2.90829931972789,7,7,0,1,1.15521689100024,-1,0.556081905999235
1,3,80,1.94467120181406,7,6,-1,3,1.40693150799962,-1,1.71783712200158
1,3,81,2.91990929705215,7,8,1,1,6.41085906199987,-1,1.01041478499974
1,3,82,2.71383219954649,7,7,0,1,2.51975920900077,-1,0.903787674998966
1,3,83,2.76172335600907,7,7,0,1,4.66884902899983,-1,0.952967719000299
1,3,84,3.06793650793651,7,7,0,1,2.70648385700042,-1,1.49011898499884
1,3,85,2.36988662131519,7,7,0,2,2.59663435900075,-1,0.759825573999478
1,3,86,2.75736961451247,7,8,1,1,1.59021549600038,-1,0.221551812999678
1,3,87,2.8821768707483,7,7,0,1,0.731443635000687,-1,0.208310606998566
1,3,88,2.2421768707483,7,6,-1,3,1.0755007079988,-1,0.872301286999573
1,3,89,2.85315192743764,7,7,0,3,0.906274879998819,-1,0.328630267000335
1,3,90,2.14929705215419,7,6,-1,1,1.00797171100021,-1,0.224389560999043
1,3,91,2.40036281179138,7,6,-1,1,1.61856496400105,-1,0.234065684999223
1,3,92,2.24798185941043,7,6,-1,1,2.89076434200069,-1,0.281666098000642
1,3,93,2.0215873015873,7,5,-2,1,1.28770026499842,-1,0.122674631000336
1,3,94,2.70367346938776,7,6,-1,2,1.09983670700058,-1,0.529563960000814
1,3,95,2.79074829931973,7,7,0,2,2.43534427800114,-1,0.686347658998784
1,3,96,2.41197278911565,7,6,-1,3,1.79581202900044,-1,1.28824278599859
1,3,97,2.11156462585034,7,6,-1,3,1.95927387899974,-1,0.759434644000066
1,3,98,2.39455782312925,7,6,-1,3,1.30860545700125,-1,1.03149329799999
1,3,99,2.07963718820862,7,6,-1,2,3.48381266400065,-1,0.874278043998856
1,3,100,3.09696145124717,7,8,1,1,1.22994423800083,-1,0.347571213000265
1,4,1,3.02004535147392,11,8,-3,1,6.43916890999935,-1,0.871153774000049
1,4,2,3.43655328798186,11,9,-2,2,1.14703541899871,-1,1.28381744099897
1,4,3,4.46839002267574,11,12,1,1,4.42092194299948,-1,0.89928265799972
1,4,4,3.99818594104308,11,10,-1,2,2.00325812200026,-1,0.825897998000073
1,4,5,4.39147392290249,11,10,-1,1,1.07599868699981,-1,0.273621934000403
1,4,6,2.81541950113379,11,7,-4,1,1.27354333199946,-1,0.296038055999816
1,4,7,2.80380952380952,11,8,-3,1,2.02765716800059,-1,0.230879831999118
1,4,8,3.17678004535147,11,9,-2,2,4.63061696899968,-1,0.715843265999865
1,4,9,3.7340589569161,11,10,-1,3,1.24141746299938,-1,0.943515744000251
1,4,10,2.57596371882086,11,6,-5,1,1.59947894300058,-1,0.0531059390013979
1,4,11,4.44226757369614,11,11,0,2,1.56117488500058,-1,0.378038455999558
1,4,12,3.81678004535147,11,9,-2,3,1.59638828599964,-1,0.283458604000771
1,4,13,3.36399092970522,11,9,-2,2,1.29560280499936,-1,0.579376677000255
1,4,14,2.94893424036281,11,8,-3,1,0.901791401000082,-1,0.218328119999569
1,4,15,4.21732426303855,11,11,0,1,9.30682309799886,-1,0.465849247000733
1,4,16,3.001179138322,11,8,-3,3,1.09223562700026,-1,1.43317591599953
1,4,17,2.93587301587302,11,8,-3,3,1.96323905399913,-1,1.18738208600007
1,4,18,3.65278911564626,11,10,-1,3,1.40919590299927,-1,0.265806467999937
1,4,19,3.37269841269841,11,9,-2,1,1.8934649010007,-1,0.351329036000607
1,4,20,3.64843537414966,11,8,-3,2,1.96991719299876,-1,0.0575342789998103
1,4,21,3.86176870748299,11,10,-1,2,1.22036490800019,-1,2.21148032200108
1,4,22,4.41324263038549,11,10,-1,2,2.81066992900014,-1,0.469615497000632
1,4,23,3.88208616780045,11,10,-1,1,1.5284112219997,-1,0.436333403999015
1,4,24,3.43219954648526,11,10,-1,1,1.27893785099877,-1,0.275638720999268
1,4,25,2.64562358276644,11,8,-3,1,2.77923149999879,-1,0.344472270000551
1,4,26,4.49451247165533,11,11,0,1,1.80360926300091,-1,0.177819113998339
1,4,27,3.40462585034014,11,9,-2,1,1.77924107500075,-1,0.301477766000971
1,4,28,4.37696145124717,11,11,0,1,0.821510265999677,-1,0.110518307999882
1,4,29,3.65278911564626,11,9,-2,1,6.42373996400056,-1,0.904739019000772
1,4,30,4.33052154195011,11,10,-1,2,2.38266318299975,-1,0.301564477000284
1,4,31,3.60634920634921,11,9,-2,1,1.40990998799862,-1,0.256901361000928
1,4,32,3.96045351473923,11,11,0,3,1.52171992699914,-1,2.93164392799918
1,4,33,3.67746031746032,11,10,-1,3,1.54262980900057,-1,0.793187023000428
1,4,34,3.84580498866213,11,10,-1,2,1.68497776999902,-1,0.399129473000357
1,4,35,3.12598639455782,11,8,-3,2,1.53647129300043,-1,0.273983989000044
1,4,36,3.72825396825397,11,11,0,2,2.23338463499931,-1,0.413575073000175
1,4,37,3.57442176870748,11,10,-1,1,2.2310794060013,-1,0.45158095700026
1,4,38,4.35664399092971,11,10,-1,3,1.37441431499974,-1,1.06448572099907
1,4,39,4.21732426303855,11,10,-1,2,1.64368151500094,-1,0.801932030999524
1,4,40,4.02866213151927,11,10,-1,1,2.26239482100027,-1,0.121055710998917
1,4,41,4.12299319727891,11,9,-2,2,1.41759723799987,-1,0.504246473999956
1,4,42,3.10421768707483,11,9,-2,1,1.12860062799882,-1,0.211810060000062
1,4,43,2.23927437641723,11,7,-4,1,1.37369179800044,-1,0.221753108000485
1,4,44,4.10557823129252,11,9,-2,2,1.40303375699841,-1,0.706717138000386
1,4,45,3.49170068027211,11,9,-2,2,1.51936717700119,-1,0.304836716000864
1,4,46,3.70938775510204,11,9,-2,3,1.86784282200097,-1,0.797780721999516
1,4,47,4.19410430839002,11,10,-1,2,1.52145787699919,-1,0.346880533999865
1,4,48,3.35963718820862,11,9,-2,1,1.39352548500028,-1,1.37850927699947
1,4,49,3.68036281179138,11,10,-1,2,1.90652348499862,-1,0.789591879
1,4,50,5.90077097505669,11,16,5,1,1.25390470000093,-1,0.404123121999874
1,4,51,3.76598639455782,11,9,-2,1,1.43939876999866,-1,0.467736217000493
1,4,52,3.30739229024943,11,8,-3,2,1.05352219500128,-1,0.62917417800054
1,4,53,3.00698412698413,11,9,-2,1,3.08819505999963,-1,0.319507021000391
1,4,54,3.32335600907029,11,9,-2,2,0.957382524000423,-1,0.51949210499879
1,4,55,3.52798185941043,11,9,-2,1,1.2488275630003,-1,0.254802419000043
1,4,56,3.55555555555556,11,9,-2,2,2.0913997330008,-1,0.268586939999295
1,4,57,3.71809523809524,11,10,-1,2,1.77502183899924,-1,0.391397683999458
1,4,58,4.18249433106576,11,12,1,3,0.959011298000405,-1,1.24939296600132
1,4,59,4.44807256235828,11,11,0,1,0.805022260001351,-1,0.557120262001263
1,4,60,3.58893424036281,11,8,-3,2,1.4211544030004,-1,0.588517185000455
1,4,61,5.2302947845805,11,12,1,1,1.11434968300091,-1,0.294800009000028
1,4,62,3.73696145124717,11,9,-2,1,1.25256445300147,-1,0.249444057000801
1,4,63,3.56136054421769,11,9,-2,1,3.21035895299974,-1,0.277099032000478
1,4,64,3.81097505668934,11,10,-1,1,1.60818890399969,-1,0.204883026999596
1,4,65,3.54829931972789,11,10,-1,1,2.24486113300009,-1,0.377432163999401
1,4,66,4.04027210884354,11,9,-2,2,1.17939639100041,-1,0.746231495000757
1,4,67,4.32471655328798,11,11,0,1,1.31014803700054,-1,0.335620043000745
1,4,68,3.31609977324263,11,9,-2,2,2.92263684000136,-1,0.360735513000691
1,4,69,4.12154195011338,11,10,-1,2,1.49076448699998,-1,0.341442799001015
1,4,70,3.45396825396825,11,9,-2,1,1.31717699100045,-1,0.687136090000422
1,4,71,5.10258503401361,11,12,1,2,1.99107978000029,-1,0.527078639001047
1,4,72,6.30421768707483,11,16,5,1,2.10582662900015,-1,0.653198236001117
1,4,73,4.63528344671202,11,12,1,1,2.99268641500021,-1,3.24345475600057
1,4,74,4.58303854875283,11,10,-1,2,4.12814907199936,-1,0.665969679001137
1,4,75,4.28698412698413,11,12,1,1,1.88243628200144,-1,0.812487511999279
1,4,76,4.1665306122449,11,12,1,1,3.85806142199908,-1,0.775293508000686
1,4,77,4.45532879818594,11,11,0,3,1.26717388399993,-1,1.84659150500011
1,4,78,4.71655328798186,11,11,0,3,1.061830052,-1,2.45186669699979
1,4,79,4.82539682539683,11,12,1,1,2.35280923500068,-1,0.40736070300045
1,4,80,4.03011337868481,11,11,0,2,1.7084750110007,-1,0.614879184000529
1,4,81,4.26666666666667,11,11,0,2,1.34828996599936,-1,0.301446259998556
1,4,82,3.70068027210884,11,10,-1,1,1.43886813599966,-1,0.300634952998735
1,4,83,4.32036281179138,11,10,-1,3,1.13455744500061,-1,1.48805649099995
1,4,84,3.65859410430839,11,9,-2,2,1.23644267599957,-1,0.338462112000343
1,4,85,4.19845804988662,11,11,0,1,2.79047849100061,-1,0.667303588999857
1,4,86,4.74122448979592,11,13,2,1,1.79066840299856,-1,0.308376585000588
2,1,1,4.49015873015873,11,11,0,3,2.78618897870183,-1,4.45166657492518
2,1,2,4.59174603174603,11,11,0,3,3.4824900124222,-1,3.85544049181044
2,1,3,5.20417233560091,11,12,1,3,1.69484894350171,-1,1.26131713017821
2,1,4,2.81106575963719,11,7,-4,1,3.63967439159751,-1,3.21395931020379
2,1,5,3.7384126984127,11,11,0,1,3.76768434979022,-1,1.21682921051979
2,1,6,4.8108843537415,11,13,2,2,2.22179032862186,-1,1.02996252663434
2,1,7,5.01260770975057,11,12,1,2,7.40637704543769,-1,1.04121468216181
2,1,8,4.7847619047619,11,11,0,3,1.93447197973728,-1,0.59307218529284
2,1,9,4.76444444444444,11,12,1,2,2.10363891161978,-1,0.301040610298514
2,1,10,4.23038548752834,11,12,1,2,0.898836188018322,-1,0.273728623986244
2,1,11,4.41469387755102,11,10,-1,2,3.50681023672223,-1,0.262598868459463
2,1,12,4.8108843537415,11,12,1,2,1.97297189943492,-1,0.22382240369916
2,1,13,4.86312925170068,11,13,2,1,1.79708448424935,-1,0.281064892187715
2,1,14,5.18240362811791,11,12,1,1,1.89530399627984,-1,0.492894595488906
2,1,15,4.72816326530612,11,12,1,1,2.4730416610837,-1,0.440040180459619
2,1,16,4.2550566893424,11,11,0,2,3.82440769672394,-1,3.06271487660706
2,1,17,4.72090702947846,11,12,1,2,1.97959143482149,-1,0.228705665096641
2,1,18,4.34793650793651,11,13,2,2,1.19278178736567,-1,0.227809157222509
2,1,19,3.04036281179138,11,8,-3,2,1.46768237091601,-1,0.267408771440387
2,1,20,4.63383219954649,11,12,1,2,1.37033661082387,-1,0.285042503848672
2,1,21,4.18539682539683,11,10,-1,2,1.38761045597494,-1,0.348995838314295
2,1,22,4.50321995464853,11,11,0,1,1.68613438867033,-1,3.57222975417972
2,1,23,5.59310657596372,11,13,2,2,1.47924954630435,-1,0.358075311407447
2,1,24,5.22303854875283,11,12,1,1,3.09701669961214,-1,0.358091814443469
2,1,25,4.36825396825397,11,10,-1,2,2.92185293510556,-1,0.229514488950372
2,1,26,4.35229024943311,11,13,2,2,2.29073695838451,-1,2.05732500366867
2,1,27,4.85877551020408,11,12,1,2,1.97187382541597,-1,0.238811016082764
2,1,28,5.35074829931973,11,12,1,2,2.06392786279321,-1,0.255052790045738
2,1,29,5.02421768707483,11,12,1,1,1.72079588286579,-1,0.901638692244887
2,1,30,3.25514739229025,11,8,-3,3,1.05408825166523,-1,0.0318161435425282
2,1,31,4.96907029478458,11,12,1,2,2.54983969219029,-1,0.23133260756731
2,1,32,0.319274376417234,11,1,-10,1,2.50822335109115,-1,1.3059319332242
2,1,33,5.24480725623583,11,14,3,2,9.1477216295898,-1,0.254235364496708
2,1,34,4.2507029478458,11,11,0,3,1.51068645343184,-1,3.81127065978944
2,1,35,4.93714285714286,11,12,1,2,1.99118960089982,-1,0.481922246515751
2,1,36,3.36544217687075,11,8,-3,1,2.57482571713626,-1,1.18525191955268
2,1,37,5.63809523809524,11,13,2,2,1.33932311274111,-1,0.200045716017485
2,1,38,4.38857142857143,11,11,0,2,1.19125655665994,-1,0.211705317720771
2,1,39,4.68172335600907,11,12,1,2,0.716940309852362,-1,0.267739387229085
2,1,40,6.41886621315193,11,15,4,1,2.16868057847023,-1,0.21025475487113
2,1,41,4.55111111111111,11,12,1,2,1.24588419310749,-1,0.287180146202445
2,1,42,4.43501133786848,11,12,1,2,2.22109645046294,-1,0.141650401055813
2,1,43,4.79927437641723,11,11,0,3,1.16485527902842,-1,1.89456398412585
2,1,44,4.03591836734694,11,11,0,3,1.12042325921357,-1,0.925741232931614
2,1,45,4.46258503401361,11,11,0,2,2.32957665622234,-1,0.42982566729188
2,1,46,4.58884353741497,11,12,1,3,2.35599547252059,-1,0.790034279227257
2,1,47,4.16362811791383,11,11,0,2,2.37795376218855,-1,0.561854800209403
2,1,48,3.75292517006803,11,11,0,3,1.52565748058259,-1,0.386005364358425
2,1,49,4.99229024943311,11,14,3,1,2.11809133552015,-1,4.2583492808044
2,1,50,5.53650793650794,11,13,2,2,2.28792021237314,-1,0.548479519784451
2,1,51,4.678820861678,11,12,1,2,1.08292979188263,-1,0.217222237959504
2,1,52,4.24925170068027,11,10,-1,2,1.37203280068934,-1,0.237890388816595
2,1,53,3.23047619047619,11,8,-3,1,0.818172328174114,-1,0.141132723540068
2,1,54,4.27972789115646,11,10,-1,3,1.3222186230123,-1,0.20783512480557
2,1,55,4.40018140589569,11,11,0,3,1.21844599582255,-1,0.0346560385078192
2,1,56,0.00580498866213152,11,1,-10,1,4.32322474382818,-1,0.552996655926108
2,1,57,4.45242630385488,11,11,0,3,1.11079815588892,-1,1.8774627931416
2,1,58,4.12299319727891,11,12,1,2,1.90562061592937,-1,0.214098129421473
2,1,59,4.65560090702948,11,11,0,3,1.06850071437657,-1,1.15641522407532
2,1,60,4.01850340136054,11,11,0,2,1.25690760836005,-1,1.49739462696016
2,1,61,4.07800453514739,11,11,0,3,3.56224190071225,-1,0.267988439649343
2,1,62,4.62367346938776,11,11,0,2,2.32526655122638,-1,0.28954160399735
2,1,63,4.33922902494331,11,11,0,3,1.59635708853602,-1,0.293339043855667
2,1,64,0.00580498866213152,11,1,-10,1,3.03406413085759,-1,0.864024927839637
2,1,65,5.07936507936508,11,12,1,2,1.43873896077275,-1,0.527271708473563
2,1,66,4.41759637188209,11,12,1,1,1.12021240778267,-1,0.133164707571268
2,1,67,4.28843537414966,11,12,1,3,3.46258980035782,-1,0.195817502215505
2,1,68,4.28263038548753,11,11,0,2,1.53039839118719,-1,0.151324627920985
2,1,69,4.77460317460317,11,11,0,2,0.886769596487284,-1,0.190753364935517
2,1,70,4.48290249433107,11,11,0,3,3.48749643936753,-1,1.65160159766674
2,1,71,4.41324263038549,11,11,0,3,2.93300308473408,-1,6.47905629128218
2,1,72,4.72671201814059,11,13,2,2,1.89249623380601,-1,0.483721842989326
2,1,73,4.54240362811791,11,11,0,2,1.57602852396667,-1,0.427278537303209
2,1,74,4.99083900226757,11,13,2,2,1.52208063565195,-1,0.190488141030073
2,1,75,4.48,11,11,0,2,1.77418292872608,-1,0.232686107978225
2,1,76,5.36671201814059,11,14,3,1,1.49975694715977,-1,0.265793241560459
2,2,1,2.84299319727891,7,7,0,2,1.66741342283785,-1,2.38664325512946
2,2,2,2.61224489795918,7,7,0,2,1.11284721642733,-1,0.735622255131602
2,2,3,2.61369614512472,7,7,0,3,2.26066262833774,-1,1.0684071239084
2,2,4,3.02149659863946,7,7,0,3,0.932112088426948,-1,1.08916010707617
2,2,5,3.12018140589569,7,8,1,3,1.30541232787073,-1,0.253845436498523
2,2,6,2.73560090702948,7,7,0,2,4.33452965132892,-1,0.128393527120352
2,2,7,3.50621315192744,7,8,1,2,4.26987533830106,-1,0.554254006594419
2,2,8,2.04625850340136,7,6,-1,2,1.12533262372017,-1,0.660022035241127
2,2,9,3.12163265306122,7,9,2,2,0.755629340186715,-1,0.213784236460924
2,2,10,2.5643537414966,7,7,0,2,1.13520897366107,-1,0.0839543882757425
2,2,11,3.23047619047619,7,9,2,2,0.543410316109657,-1,0.0165978707373142
2,2,12,5.58149659863946,7,14,7,1,1.34050048701465,-1,0.810674866661429
2,2,13,2.83283446712018,7,7,0,2,0.802542947232723,-1,0.196068411692977
2,2,14,2.53532879818594,7,7,0,3,0.752363773062825,-1,0.0538448300212622
2,2,15,3.21160997732426,7,7,0,3,0.72722721286118,-1,0.0777310114353895
2,2,16,2.76607709750567,7,7,0,3,0.620303435251117,-1,0.0163003709167242
2,2,17,2.98086167800454,7,8,1,2,0.9893400054425,-1,0.951746696606278
2,2,18,2.97650793650794,7,8,1,2,2.0782154854387,-1,0.294059667736292
2,2,19,2.32489795918367,7,6,-1,2,1.27324820682406,-1,0.359386019408703
2,2,20,2.71963718820862,7,7,0,2,0.973505277186632,-1,0.0159130766987801
2,2,21,3.00263038548753,7,7,0,2,1.92722510360181,-1,0.0509540569037199
2,2,22,2.90684807256236,7,7,0,3,0.605271836742759,-1,0.302428664639592
2,2,23,3.2043537414966,7,7,0,3,0.551324047148228,-1,0.0844773333519697
2,2,24,2.68625850340136,7,7,0,2,1.03535048104823,-1,0.227868270128965
2,2,25,2.64126984126984,7,7,0,3,0.425485292449594,-1,0.244413539767265
2,2,26,2.74430839002268,7,7,0,3,0.531556954607368,-1,0.121273964643478
2,2,27,0.00580498866213152,7,1,-6,1,6.59684641472995,-1,1.59801078774035
2,2,28,3.21596371882086,7,7,0,3,1.19185294024646,-1,1.32999652065337
2,2,29,3.04907029478458,7,7,0,3,1.19080051220953,-1,0.0804141573607922
2,2,30,3.35092970521542,7,8,1,3,0.475299434736371,-1,2.25228600017726
2,2,31,2.62820861678005,7,8,1,3,1.56255601346493,-1,0.0161381829530001
2,2,32,2.79365079365079,7,8,1,2,0.593547444790602,-1,0.157700328156352
2,2,33,2.2378231292517,7,6,-1,2,0.667397625744343,-1,0.106200801208615
2,2,34,3.00408163265306,7,8,1,2,0.788048962131143,-1,0.0159785039722919
2,2,35,3.03891156462585,7,8,1,2,0.791098032146692,-1,0.0758360158652067
2,2,36,2.73269841269841,7,7,0,3,1.92892774380744,-1,0.102409126237035
2,2,37,2.90249433106576,7,7,0,3,1.11547117494047,-1,0.273905029520392
2,2,38,2.98521541950113,7,7,0,3,1.70960632711649,-1,0.313631620258093
2,2,39,2.66884353741497,7,7,0,3,1.31827408820391,-1,0.0162243563681841
2,2,40,2.99537414965986,7,8,1,3,3.00414032116532,-1,3.34787914901972
2,2,41,3.48444444444444,7,8,1,3,1.3215249683708,-1,0.333670808002353
2,2,42,3.55990929705215,7,8,1,2,1.65203091874719,-1,0.226761121302843
2,2,43,3.13904761904762,7,8,1,2,1.97934868559241,-1,0.333165060728788
2,2,44,3.03600907029478,7,7,0,2,1.74145121313632,-1,0.186227427795529
2,2,45,1.72553287981859,7,5,-2,1,1.53176441043615,-1,0.375230481848121
2,2,46,2.8908843537415,7,7,0,2,0.914140539243817,-1,0.0322608351707458
2,2,47,2.780589569161,7,7,0,3,0.353535681962967,-1,0.342256316915154
2,2,48,2.80235827664399,7,7,0,3,1.08078691363335,-1,0.176461834460497
2,2,49,3.43800453514739,7,8,1,2,1.38713194429874,-1,0.267999617382884
2,2,50,2.73995464852608,7,8,1,2,0.71801651827991,-1,0.219913644716144
2,2,51,2.65868480725624,7,7,0,3,0.730115860700607,-1,0.200582314282656
2,2,52,2.54113378684807,7,7,0,3,0.314071085304022,-1,0.0799112319946289
2,2,53,3.51927437641723,7,10,3,1,1.14998788014054,-1,0.226389151066542
2,2,54,3.66439909297052,7,8,1,1,1.85900321416557,-1,0.267670271918178
2,2,55,2.25233560090703,7,7,0,2,7.77094467356801,-1,0.208579905331135
2,2,56,2.07528344671202,7,6,-1,2,0.751609055325389,-1,0.148599388077855
2,2,57,2.39891156462585,7,6,-1,3,0.693123891949654,-1,0.0983618218451738
2,2,58,2.6528798185941,7,7,0,3,1.53740946948528,-1,0.0159218404442072
2,2,59,2.67174603174603,7,7,0,3,4.97422022372484,-1,0.886612456291914
2,2,60,1.50204081632653,7,5,-2,2,3.04769916087389,-1,1.08424326777458
2,2,61,2.84444444444444,7,7,0,3,0.554968835785985,-1,0.729341354221106
2,2,62,2.98666666666667,7,7,0,3,0.549070587381721,-1,0.114771930500865
2,2,63,2.79655328798186,7,7,0,3,0.297955717891455,-1,0.0728719606995583
2,2,64,3.14775510204082,7,9,2,2,0.928592944517732,-1,0.469995871186256
2,2,65,2.7892970521542,7,8,1,2,1.05741892568767,-1,0.152393139898777
2,2,66,2.91120181405896,7,8,1,2,1.01927467621863,-1,0.17125029489398
2,2,67,2.84734693877551,7,7,0,3,0.627992520108819,-1,0.40682197548449
2,2,68,2.74285714285714,7,7,0,3,0.882028227671981,-1,0.0567725524306297
2,2,69,2.89668934240363,7,8,1,2,1.09902202896774,-1,1.38458555564284
2,2,70,2.68335600907029,7,7,0,3,0.582007024437189,-1,0.016521293669939
2,2,71,2.85024943310658,7,7,0,3,1.30018194019794,-1,0.0169796925038099
2,2,72,2.7631746031746,7,7,0,3,1.61098949052393,-1,2.01161457039416
2,2,73,2.78784580498866,7,7,0,3,1.58880149759352,-1,1.36697796545923
2,2,74,2.8734693877551,7,8,1,3,1.42011498101056,-1,1.13184818066657
2,2,75,2.76897959183673,7,7,0,3,0.849446060135961,-1,0.378348534926772
2,2,76,2.86621315192744,7,7,0,3,0.892891179770231,-1,0.307439740747213
2,2,77,2.88798185941043,7,7,0,3,0.29738275334239,-1,1.86306417360902
2,2,78,3.13904761904762,7,7,0,3,0.989409944042563,-1,1.70569633878767
2,2,79,3.14775510204082,7,8,1,2,1.10872898809612,-1,0.14679916203022
2,2,80,2.84589569160998,7,8,1,2,1.64493291638792,-1,0.0161375515162945
2,2,81,3.17968253968254,7,8,1,2,0.336577510461211,-1,0.0160070359706879
2,2,82,3.07809523809524,7,8,1,2,0.343900864943862,-1,0.0165662989020348
2,2,83,2.7675283446712,7,7,0,2,0.812355130910873,-1,0.823261614888906
2,2,84,2.69931972789116,7,8,1,2,0.689788416028023,-1,0.0330556947737932
2,2,85,3.33206349206349,7,8,1,1,0.964229881763458,-1,0.166497860103846
2,2,86,2.81396825396825,7,7,0,3,0.310227561742067,-1,1.34154991619289
2,2,87,2.99392290249433,7,8,1,2,0.426593024283648,-1,0.0168953612446785
2,2,88,3.08390022675737,7,8,1,2,0.887321894988418,-1,0.0222506374120712
2,2,89,2.80380952380952,7,7,0,3,1.39688615314662,-1,0.0885434951633215
2,2,90,2.80961451247166,7,7,0,3,0.653865808621049,-1,0.124582434073091
2,2,91,2.69641723356009,7,7,0,3,0.529559714719653,-1,0.0478359535336494
2,2,92,3.2972335600907,7,8,1,2,0.792619032785296,-1,0.201984023675323
2,2,93,2.81832199546485,7,7,0,2,0.449797628447413,-1,0.0436057429760695
2,2,94,2.5469387755102,7,7,0,3,3.56536395475268,-1,1.04670067131519
2,2,95,2.84879818594104,7,7,0,3,1.12732307240367,-1,0.460834423080087
2,2,96,1.97804988662132,7,6,-1,2,0.746602110564709,-1,0.128000164404511
2,2,97,2.49469387755102,7,6,-1,2,0.738890280947089,-1,1.43147218599916
2,2,98,2.58902494331066,7,7,0,2,1.23039727285504,-1,0.151876663789153
2,2,99,3.28126984126984,7,7,0,3,0.935832560062408,-1,0.341151041910052
2,2,100,3.07954648526077,7,8,1,2,0.647839114069939,-1,0.144034221768379
2,2,101,2.48308390022676,7,7,0,2,0.560856334865093,-1,0.823185635730624
2,2,102,2.96199546485261,7,7,0,2,1.45229780487716,-1,0.337573606520891
2,2,103,2.56725623582766,7,8,1,2,1.2993300948292,-1,0.370297914370894
2,2,104,2.37859410430839,7,7,0,2,0.780428875237703,-1,0.407913083210588
2,2,105,2.83573696145125,7,7,0,3,0.674276299774647,-1,0.521511103957891
2,2,106,2.78204081632653,7,7,0,3,1.26633918844163,-1,0.434062223881483
2,2,107,3.17097505668934,7,7,0,3,0.751488722860813,-1,0.196036731824279
2,2,108,3.08244897959184,7,8,1,3,0.74581166356802,-1,0.0952895637601614
2,2,109,3.03165532879819,7,8,1,2,0.457753485068679,-1,0.171693526208401
2,3,1,4.37696145124717,11,11,0,2,1.33926201052964,-1,4.19108260795474
2,3,2,4.39292517006803,11,11,0,3,0.406124765053391,-1,0.327418953180313
2,3,3,4.61496598639456,11,12,1,2,1.02472401969135,-1,0.0438584163784981
2,3,4,4.30439909297052,11,11,0,2,0.579210503026843,-1,0.256147442385554
2,3,5,4.40888888888889,11,11,0,3,0.898883225396276,-1,1.15262342989445
2,3,6,4.98503401360544,11,12,1,2,0.358762629330158,-1,0.0596284233033657
2,3,7,2.58467120181406,11,7,-4,2,0.516790244728327,-1,0.0752722751349211
2,3,8,4.55691609977324,11,11,0,2,0.802400756627321,-1,0.22950897552073
2,3,9,4.3740589569161,11,11,0,3,0.780759327113628,-1,0.408861109986901
2,3,10,4.42049886621315,11,11,0,3,1.35339610278606,-1,0.828631846234202
2,3,11,4.28553287981859,11,11,0,3,0.931338487192988,-1,0.35925735719502
2,3,12,3.84145124716553,11,11,0,3,2.6697268076241,-1,0.642233889549971
2,3,13,4.03446712018141,11,11,0,2,1.53076134249568,-1,1.48076227679849
2,3,14,4.80072562358277,11,11,0,3,2.44565769471228,-1,0.62032650783658
2,3,15,4.09687074829932,11,11,0,3,2.98557952232659,-1,0.442955933511257
2,3,16,4.3784126984127,11,12,1,2,1.98391637206078,-1,0.169396486133337
2,3,17,4.73251700680272,11,11,0,3,1.80159414373338,-1,0.0344420820474625
2,3,18,3.96190476190476,11,9,-2,1,3.19519782438874,-1,0.106353797018528
2,3,19,4.23328798185941,11,11,0,3,2.44400940649211,-1,0.555107444524765
2,3,20,4.24489795918367,11,11,0,3,0.270491322502494,-1,0.0875241309404373
2,3,21,4.3697052154195,11,11,0,3,0.290479443967342,-1,0.147400811314583
2,3,22,4.46403628117914,11,11,0,3,0.763993803411722,-1,0.577710842713714
2,3,23,5.13451247165533,11,13,2,2,1.65054663643241,-1,0.642256619408727
2,3,24,4.09396825396825,11,11,0,3,0.402667492628098,-1,0.285568471997976
2,3,25,4.63963718820862,11,11,0,2,1.60345421917737,-1,0.564892752096057
2,3,26,4.44226757369614,11,11,0,3,0.959474064409733,-1,0.316686805337667
2,3,27,4.27827664399093,11,11,0,3,0.571188261732459,-1,1.3689052183181
2,3,28,4.4669387755102,11,11,0,3,0.434641586616635,-1,0.212786274030805
2,3,29,4.42775510204082,11,10,-1,2,1.22347377985716,-1,0.287984503433108
2,3,30,4.61206349206349,11,12,1,2,0.916100692003965,-1,0.32884681597352
2,3,31,4.23328798185941,11,11,0,3,0.330288155004382,-1,0.280337357893586
2,3,32,4.09541950113379,11,12,1,2,0.977425664663315,-1,0.332716962322593
2,3,33,4.15201814058957,11,10,-1,2,4.33029871061444,-1,0.779703408479691
2,3,34,4.72380952380952,11,11,0,2,1.87136621586978,-1,0.0170119926333427
2,3,35,4.00544217687075,11,10,-1,2,1.57137957029045,-1,0.0158989280462265
2,3,36,2.28281179138322,11,6,-5,1,3.69629981927574,-1,2.99437251314521
2,3,37,4.24489795918367,11,11,0,3,0.487544508650899,-1,0.0167969297617674
2,3,38,4.60045351473923,11,11,0,3,0.581020100042224,-1,0.0568561404943466
2,3,39,4.3609977324263,11,11,0,3,3.45969313010573,-1,0.0169187765568495
2,3,40,4.14621315192744,11,11,0,3,2.57971713878214,-1,0.171378964558244
2,3,41,4.1621768707483,11,11,0,2,1.09477338194847,-1,0.750906700268388
2,3,42,4.29859410430839,11,11,0,3,0.288588462397456,-1,0.0714162569493055
2,3,43,4.62657596371882,11,11,0,2,0.76287242397666,-1,0.270853690803051
2,3,44,4.54675736961451,11,12,1,1,1.37394620105624,-1,0.44294317625463
2,3,45,4.78040816326531,11,11,0,3,0.419959910213947,-1,0.0628989916294813
2,3,46,4.19410430839002,11,10,-1,2,1.04525790736079,-1,0.453835176303983
2,3,47,4.48580498866213,11,11,0,3,0.364296711981297,-1,0.207330670207739
2,3,48,3.89950113378685,11,10,-1,3,0.46209947578609,-1,0.206969490274787
2,3,49,3.88208616780045,11,11,0,2,0.34881498478353,-1,0.251015244051814
2,3,50,5.1287074829932,11,13,2,1,0.369397360831499,-1,0.166918171569705
2,3,51,3.97351473922902,11,10,-1,2,1.24798714742064,-1,0.080600194633007
2,3,52,3.78485260770975,11,10,-1,2,0.470160936936736,-1,0.0159305296838284
2,3,53,3.90965986394558,11,10,-1,2,0.297806087881327,-1,0.0343398358672857
2,3,54,4.16943310657596,11,11,0,2,0.325675971806049,-1,0.122046196833253
2,3,55,4.20571428571429,11,10,-1,3,0.22766643203795,-1,0.0791765414178371
2,3,56,4.21587301587302,11,11,0,3,0.29043853096664,-1,0.425875836983323
2,3,57,4.18249433106576,11,11,0,3,0.419520748779178,-1,0.461459048092365
2,3,58,4.23619047619048,11,11,0,3,0.427751544862986,-1,0.327107874676585
2,3,59,0.226394557823129,11,1,-10,1,4.03344611264765,-1,0.254914360120893
2,3,60,4.73396825396825,11,12,1,2,2.12960246391594,-1,0.66244975477457
2,3,61,4.19555555555556,11,11,0,3,0.97591226361692,-1,0.0163216702640057
2,3,62,4.35083900226757,11,12,1,2,0.748855996876955,-1,0.409015072509646
2,3,63,4.50176870748299,11,12,1,1,1.308604195714,-1,0.466765444725752
2,3,64,4.81814058956916,11,13,2,2,0.461427921429276,-1,0.0159423220902681
2,3,65,5.07356009070295,11,11,0,3,0.864202871918678,-1,0.110911166295409
2,3,66,4.49451247165533,11,11,0,3,0.366984399035573,-1,0.154531016945839
2,3,67,4.44081632653061,11,11,0,3,0.504548138007522,-1,0.526953898370266
2,3,68,4.73977324263039,11,14,3,2,1.53794809244573,-1,0.302097517997026
2,3,69,4.66866213151927,11,11,0,3,0.542708771303296,-1,0.284662509337068
2,3,70,4.40598639455782,11,12,1,2,1.28289704024792,-1,0.272489976137877
2,3,71,3.9590022675737,11,11,0,3,2.31771847419441,-1,0.442924419417977
2,3,72,4.05478458049887,11,11,0,3,1.25874629057944,-1,0.330218395218253
2,3,73,4.44807256235828,11,11,0,3,0.621527472510934,-1,0.0160070993006229
2,3,74,4.50031746031746,11,12,1,2,1.27903839014471,-1,0.0945901554077864
2,3,75,0.00580498866213152,11,1,-10,1,5.46445307694376,-1,0.401657517999411
2,3,76,3.84580498866213,11,11,0,2,1.31421055831015,-1,0.104978665709496
2,3,77,4.37551020408163,11,11,0,2,3.28613005578518,-1,0.0161340665072203
2,3,78,4.29133786848073,11,11,0,2,1.23420618660748,-1,0.11684743873775
2,3,79,4.76444444444444,11,11,0,2,2.95793319121003,-1,0.14449611119926
2,3,80,4.16943310657596,11,11,0,2,0.398166880011559,-1,0.135447416454554
2,3,81,4.77605442176871,11,11,0,2,0.40684787556529,-1,0.23372588865459
2,3,82,4.26521541950113,11,11,0,3,0.747209493070841,-1,0.295889768749475
2,3,83,4.96471655328798,11,13,2,2,0.429179333150387,-1,1.07207011990249
2,3,84,4.22312925170068,11,11,0,3,0.398896960541606,-1,0.0979050509631634
2,3,85,4.32761904761905,11,11,0,3,0.425524555146694,-1,0.147712100297213
2,3,86,4.74848072562358,11,12,1,2,2.20679944753647,-1,0.480790439993143
2,3,87,4.51192743764172,11,11,0,3,0.312790924683213,-1,0.120563991367817
2,3,88,4.54530612244898,11,13,2,1,1.38019337877631,-1,0.534301582723856
2,3,89,4.99954648526077,11,12,1,2,0.571739636361599,-1,0.296293260529637
2,3,90,4.85006802721088,11,12,1,2,0.479011839255691,-1,0.383671311661601
2,3,91,5.45233560090703,11,13,2,1,0.803614843636751,-1,0.350585808977485
2,4,1,2.46857142857143,7,6,-1,2,1.29802270792425,-1,2.01600582711399
2,4,2,2.63836734693878,7,7,0,2,0.940347783267498,-1,1.12874807603657
2,4,3,2.51646258503401,7,7,0,3,0.7024409417063,-1,0.34072751738131
2,4,4,2.86766439909297,7,7,0,3,0.193499905988574,-1,0.0546016693115234
2,4,5,3.03746031746032,7,7,0,3,0.218215126544237,-1,0.016920005902648
2,4,6,2.75446712018141,7,8,1,3,0.344336559996009,-1,0.110010962933302
2,4,7,2.66884353741497,7,7,0,2,3.65037632733583,-1,0.0725582204759121
2,4,8,2.48453514739229,7,7,0,3,2.69697604328394,-1,0.0169205348938704
2,4,9,2.37133786848073,7,7,0,3,1.4320828281343,-1,0.368194084614515
2,4,10,0.00580498866213152,7,1,-6,1,3.33752545900643,-1,0.211367992684245
2,4,11,2.83573696145125,7,8,1,2,2.11440978385508,-1,0.0647018607705832
2,4,12,2.87201814058957,7,7,0,3,0.276210006326437,-1,0.149157183244824
2,4,13,0.00580498866213152,7,1,-6,1,2.28730355203152,-1,0.0560471918433905
2,4,14,2.90975056689342,7,7,0,3,0.34725608676672,-1,0.0168118868023157
2,4,15,2.5687074829932,7,7,0,3,0.572956236079335,-1,0.121941436082125
2,4,16,2.87492063492064,7,7,0,3,0.554281264543533,-1,0.0870680492371321
2,4,17,2.61079365079365,7,7,0,3,0.17069449275732,-1,0.0169394090771675
2,4,18,2.62095238095238,7,7,0,3,0.175073834136128,-1,0.0170898269861937
2,4,19,1.96789115646258,7,6,-1,2,0.347640547901392,-1,0.0165939833968878
2,4,20,2.58031746031746,7,6,-1,2,0.230188559740782,-1,0.0160230845212936
2,4,21,3.16371882086168,7,8,1,2,0.712327145040035,-1,0.0164755377918482
2,4,22,3.04036281179138,7,7,0,3,0.193006841465831,-1,0.0165163166821003
2,4,23,2.51356009070295,7,7,0,1,0.27286633476615,-1,0.0416896622627974
2,4,24,2.32199546485261,7,7,0,2,0.348713353276253,-1,0.0498419273644686
2,4,25,2.2465306122449,7,6,-1,2,0.951248371973634,-1,0.0499681755900383
2,4,26,2.18557823129252,7,6,-1,1,0.682017529383302,-1,0.450041243806481
2,4,27,2.83718820861678,7,7,0,2,1.2413576208055,-1,7.09831994771957
2,4,28,2.25233560090703,7,6,-1,2,0.66764117218554,-1,0.016584163531661
2,4,29,2.31328798185941,7,6,-1,2,0.784708259627223,-1,0.0159303471446037
2,4,30,2.73560090702948,7,7,0,3,0.139817379415035,-1,0.0166337732225657
2,4,31,2.83863945578231,7,7,0,3,0.228681394830346,-1,0.0160944610834122
2,4,32,3.70068027210884,7,9,2,3,0.196844883263111,-1,0.0245525799691677
2,4,33,3.27546485260771,7,8,1,2,1.05089635401964,-1,0.0161304473876953
2,4,34,3.2928798185941,7,8,1,2,0.429816709831357,-1,0.158307179808617
2,4,35,3.10131519274376,7,9,2,1,0.503369003534317,-1,0.174313474446535
2,4,36,2.70802721088435,7,7,0,3,0.21945222094655,-1,0.020028579980135
2,4,37,3.14195011337868,7,9,2,2,0.239377543330193,-1,0.105973811820149
2,4,38,1.00281179138322,7,3,-4,1,4.09498602151871,-1,0.0162324700504541
2,4,39,3.30884353741497,7,8,1,3,0.286434540525079,-1,1.05555482953787
2,4,40,2.93877551020408,7,7,0,3,0.265697330236435,-1,0.18621370382607
2,4,41,3.29142857142857,7,8,1,2,1.97876861877739,-1,0.155608618631959
2,4,42,3.06793650793651,7,7,0,3,3.45401298254728,-1,0.0159693248569965
2,4,43,2.4584126984127,7,8,1,2,0.301554124802351,-1,6.61209193430841
2,4,44,2.76462585034014,7,7,0,2,0.287520304322243,-1,0.0167150311172009
2,4,45,2.22766439909297,7,6,-1,2,0.435417184606194,-1,4.38960315659642
2,4,46,2.49904761904762,7,7,0,3,0.203233234584332,-1,0.0162201356142759
2,4,47,2.77043083900227,7,8,1,3,0.293844051659107,-1,1.46336233057082
2,4,48,2.69496598639456,7,7,0,3,0.299179702997208,-1,0.0160702597349882
2,4,49,2.47002267573696,7,7,0,3,0.25001859292388,-1,0.016126723960042
2,4,50,2.42793650793651,7,6,-1,3,0.344008013606071,-1,0.0168800707906485
2,4,51,3.3190022675737,7,9,2,1,0.283851351588964,-1,0.0161358751356602
2,4,52,2.52662131519274,7,7,0,2,0.678611803799868,-1,0.150279428809881
2,4,53,2.7849433106576,7,6,-1,2,4.71587184816599,-1,1.55047984607518
2,4,54,2.64997732426304,7,7,0,2,0.293328572064638,-1,0.540336115285754
2,4,55,2.74285714285714,7,7,0,2,0.22341432608664,-1,1.61018931865692
2,4,56,2.28136054421769,7,7,0,3,0.271627986803651,-1,1.57633983530104
2,4,57,3.08825396825397,7,8,1,2,0.923489207401872,-1,0.0417771860957146
2,4,58,2.48453514739229,7,7,0,2,0.649342710152268,-1,0.0162737239152193
2,4,59,2.8821768707483,7,7,0,3,0.283399688079953,-1,0.0162342377007008
2,4,60,2.49324263038549,7,7,0,3,1.40269424580038,-1,0.0161451324820518
2,4,61,2.85895691609977,7,7,0,3,0.20763991959393,-1,1.22769851237535
2,4,62,3.05632653061224,7,7,0,3,0.407766088843346,-1,0.827322809025645
2,4,63,2.31328798185941,7,7,0,3,0.253690844401717,-1,1.15094856917858
2,4,64,2.87201814058957,7,7,0,3,0.463887058198452,-1,0.272096648812294
2,4,65,3.09260770975057,7,8,1,1,0.263298997655511,-1,0.0170045681297779
2,4,66,3.43800453514739,7,8,1,2,0.276165867224336,-1,0.0168900657445192
2,4,67,2.76027210884354,7,7,0,2,0.318703828379512,-1,0.0169176571071148
2,4,68,1.53106575963719,7,4,-3,2,0.357228267937899,-1,0.0253662075847387
2,4,69,2.67319727891156,7,7,0,3,0.227542800828815,-1,0.0160681679844856
2,4,70,2.40761904761905,7,7,0,3,0.352501412853599,-1,0.782378634437919
2,4,71,2.74285714285714,7,8,1,2,0.372335309162736,-1,0.0167098734527826
2,4,72,2.47727891156463,7,7,0,3,0.307623740285635,-1,0.0168160907924175
2,4,73,2.55854875283447,7,7,0,2,0.416677927598357,-1,0.016771599650383
2,4,74,2.8952380952381,7,7,0,3,0.236048659309745,-1,0.016175102442503
2,4,75,2.45986394557823,7,7,0,3,0.275504903867841,-1,0.0169808734208345
2,4,76,2.63401360544218,7,7,0,3,0.310657940804958,-1,0.0162971839308739
2,4,77,2.73850340136054,7,7,0,2,0.377757797017694,-1,0.0169793553650379
2,4,78,1.96208616780045,7,6,-1,2,0.290560951456428,-1,0.0158787854015827
2,4,79,2.37133786848073,7,6,-1,3,0.258205149322748,-1,0.0161662846803665
2,4,80,2.54403628117914,7,7,0,3,2.56077618710697,-1,0.016199242323637
2,4,81,2.97360544217687,7,7,0,3,0.340118603780866,-1,0.0162262748926878
2,4,82,2.77043083900227,7,7,0,3,0.255377233028412,-1,0.0162709355354309
2,4,83,2.77333333333333,7,7,0,3,0.192266348749399,-1,0.0164437890052795
2,4,84,2.54548752834467,7,7,0,3,0.211913807317615,-1,0.0166768375784159
2,4,85,2.49904761904762,7,7,0,3,0.253866117447615,-1,0.0158384516835213
2,4,86,2.69351473922903,7,7,0,2,0.350461294874549,-1,0.0159357655793428
2,4,87,2.64562358276644,7,7,0,3,0.277299549430609,-1,0.117029875516891
2,4,88,2.57886621315193,7,7,0,3,0.254048073664308,-1,0.0165977627038956
2,4,89,3.02149659863946,7,7,0,3,0.29981891065836,-1,0.0159406345337629
2,4,90,2.81977324263039,7,7,0,3,0.267853364348412,-1,0.0165596399456263
2,4,91,3.15501133786848,7,9,2,2,0.28446189686656,-1,0.0159773640334606
2,4,92,2.4584126984127,7,7,0,2,0.310733025893569,-1,0.0166697334498167
2,4,93,2.43229024943311,7,7,0,3,0.250301908701658,-1,0.0167271792888641
2,4,94,2.61514739229025,7,7,0,3,0.274226777255535,-1,0.0160969849675894
2,4,95,2.34956916099773,7,7,0,3,0.261756172403693,-1,0.0162859801203012
2,4,96,2.74866213151927,7,7,0,3,0.251346055418253,-1,0.0168768223375082
2,4,97,2.90394557823129,7,7,0,3,0.227848121896386,-1,0.0162911806255579
2,4,98,2.97360544217687,7,7,0,3,0.499236188828945,-1,0.0161265674978495
2,4,99,2.5730612244898,7,7,0,3,0.307189187034965,-1,0.0168973002582788
2,4,100,2.97070294784581,7,8,1,3,0.321148736402392,-1,0.0161135718226433
2,4,101,3.12453514739229,7,8,1,2,0.365715816617012,-1,0.0159620698541403
2,4,102,2.77913832199547,7,7,0,3,0.170211603865027,-1,1.69416115805507
2,4,103,3.15065759637188,7,7,0,2,0.553197713568807,-1,0.0467962175607681
2,4,104,2.68190476190476,7,7,0,2,0.586771158501506,-1,0.0856044180691242
2,4,105,2.25668934240363,7,6,-1,2,1.29102061875165,-1,0.0161093175411224
2,4,106,2.62530612244898,7,7,0,3,0.44484842941165,-1,0.0165204871445894
2,4,107,2.60208616780045,7,6,-1,2,0.954037025570869,-1,0.0233767051249743
2,4,108,2.59482993197279,7,7,0,3,0.275642644613981,-1,0.0170020330697298
2,4,109,2.8952380952381,7,7,0,3,0.226477785035968,-1,0.0168665945529938
2,4,110,2.85024943310658,7,7,0,3,0.254338812083006,-1,0.0169344209134579
2,4,111,2.80235827664399,7,7,0,3,0.275429708883166,-1,0.0163112264126539
2,4,112,2.62095238095238,7,7,0,3,0.289382942020893,-1,0.448908284306526
2,4,113,2.83138321995465,7,7,0,2,0.316989302635193,-1,0.37070544436574
2,4,114,2.92571428571429,7,7,0,3,0.339573739096522,-1,0.0326276086270809
2,4,115,2.69061224489796,7,7,0,3,0.578939966857433,-1,0.0791130121797323
2,4,116,2.86621315192744,7,7,0,3,0.241328841075301,-1,0.0160271599888802
2,4,117,3.00988662131519,7,7,0,3,0.371488872915506,-1,0.150050120428205
2,4,118,2.89378684807256,7,7,0,3,0.352631391957402,-1,0.0776945743709803
2,4,119,2.86331065759637,7,8,1,3,0.706788463518023,-1,0.432853113859892
2,4,120,2.85024943310658,7,7,0,3,0.419648699462414,-1,0.199041683226824
2,4,121,3.09696145124717,7,7,0,3,0.373809112235904,-1,0.0493535622954369
2,4,122,2.26539682539683,7,6,-1,3,0.412552224472165,-1,0.0164041761308908
2,4,123,2.66303854875283,7,7,0,2,0.309036023914814,-1,0.0912472512573004
2,4,124,3.02439909297052,7,7,0,3,0.273853536695242,-1,0.0163902621716261
2,4,125,2.51065759637188,7,7,0,3,0.561586754396558,-1,0.0170606411993504
3,1,1,2.26104308390023,7,7,0,2,0.0142852235585451,-1,3.80529375374317
3,1,2,2.81251700680272,7,7,0,2,2.26616957597435,-1,1.64954211749136
3,1,3,2.94893424036281,7,7,0,2,0.015111168846488,-1,2.08739788457751
3,1,4,2.56725623582766,7,7,0,2,2.08751363307238,-1,1.01453463733196
3,1,5,2.16090702947846,7,6,-1,1,2.39370062015951,-1,0.850902691483498
3,1,6,3.08244897959184,7,8,1,2,1.4110398478806,-1,0.749002315104008
3,1,7,2.60934240362812,7,7,0,1,2.02649958059192,-1,0.460260508581996
3,1,8,2.32344671201814,7,6,-1,2,1.1685209274292,-1,0.395960552617908
3,1,9,2.16090702947846,7,6,-1,2,1.22041719779372,-1,0.285107923671603
3,1,10,2.58321995464853,7,7,0,2,0.0161456596106291,-1,1.31586753949523
3,1,11,2.61079365079365,7,7,0,2,0.0153383202850819,-1,0.720662983134389
3,1,12,2.56290249433107,7,6,-1,2,0.0149584766477346,-1,0.650732440873981
3,1,13,3.64263038548753,7,8,1,2,0.980101460590959,-1,2.4405923280865
3,1,14,2.55274376417234,7,6,-1,2,0.932330477982759,-1,0.984527068212628
3,1,15,2.41052154195011,7,6,-1,2,1.17199510708451,-1,2.02509168349206
3,1,16,2.56580498866213,7,6,-1,1,4.48076487518847,-1,0.267682751640677
3,1,17,2.35972789115646,7,6,-1,2,2.62871613353491,-1,1.88210305757821
3,1,18,1.83147392290249,7,6,-1,2,2.23773485608399,-1,0.66137083619833
3,1,19,2.66013605442177,7,7,0,1,2.36669866368175,-1,0.282173523679376
3,1,20,2.58902494331066,7,7,0,1,1.63953688926995,-1,0.15782437287271
3,1,21,2.54984126984127,7,7,0,3,0.759215833619237,-1,0.617281967774034
3,1,22,2.21895691609977,7,7,0,3,1.01450043171644,-1,0.368174202740192
3,1,23,2.27700680272109,7,6,-1,2,0.85349072702229,-1,0.813403144478798
3,1,24,2.33215419501134,7,6,-1,1,1.43018570914865,-1,0.230811472982168
3,1,25,1.85469387755102,7,6,-1,3,1.80032162182033,-1,3.13782180286944
3,1,26,2.44680272108844,7,6,-1,1,2.6185005530715,-1,0.234153043478727
3,1,27,1.97950113378685,7,6,-1,3,1.15575796365738,-1,0.397357957437634
3,1,28,2.39310657596372,7,6,-1,2,0.0154555682092905,-1,2.01322188414633
3,1,29,2.99972789115646,7,7,0,2,0.0158476401120424,-1,2.2047510240227
3,1,30,2.84299319727891,7,8,1,3,1.37581616267562,-1,0.258210603147745
3,1,31,3.13759637188209,7,8,1,3,1.29215740785003,-1,0.240982294082642
3,1,32,3.02294784580499,7,7,0,3,1.1755368579179,-1,0.897530075162649
3,1,33,2.76172335600907,7,7,0,3,1.10069732181728,-1,0.186589680612087
3,1,34,2.3437641723356,7,6,-1,3,1.27131103724241,-1,0.255660144612193
3,1,35,2.56580498866213,7,7,0,3,0.951369592919946,-1,0.0168619453907013
3,1,36,1.52816326530612,7,5,-2,1,1.66593585908413,-1,0.137048967182636
3,1,37,2.7892970521542,7,7,0,3,1.22671824134886,-1,0.789093276485801
3,1,38,2.40761904761905,7,7,0,3,1.20850789546967,-1,0.218377077952027
3,1,39,2.52226757369615,7,7,0,2,3.35763324424624,-1,0.016006126999855
3,1,40,2.33215419501134,7,6,-1,3,0.854626527056098,-1,0.768830701708794
3,1,41,2.69931972789116,7,7,0,3,1.16665693931282,-1,0.298010213300586
3,1,42,3.37705215419501,7,8,1,2,3.33294373191893,-1,1.0469929818064
3,1,43,2.99972789115646,7,8,1,3,1.53399690054357,-1,0.305119063705206
3,1,44,2.62820861678005,7,7,0,2,0.944844575598836,-1,0.285744937136769
3,1,45,2.18993197278912,7,8,1,1,1.90682549774647,-1,0.278123507276177
3,1,46,2.4497052154195,7,6,-1,1,1.14066028408706,-1,0.303978810086846
3,1,47,3.25804988662132,7,8,1,1,0.677201358601451,-1,0.203927952796221
3,1,48,2.68045351473923,7,7,0,3,0.887322140857577,-1,1.1964729372412
3,1,49,2.37278911564626,7,6,-1,1,2.65248305164278,-1,0.211957229301333
3,1,50,2.59482993197279,7,7,0,2,1.96300352923572,-1,0.238363597542048
3,1,51,2.48308390022676,7,6,-1,3,0.827963152900338,-1,0.774847628548741
3,1,52,3.00408163265306,7,8,1,2,1.45224322006106,-1,0.251643927767873
3,1,53,2.4671201814059,7,7,0,3,1.74724238365889,-1,1.1678271535784
3,1,54,2.30167800453515,7,7,0,3,0.221110014244914,-1,2.04059593752027
3,1,55,2.68625850340136,7,6,-1,2,1.32782126776874,-1,0.293499888852239
3,1,56,1.97369614512472,7,6,-1,2,1.17595165036619,-1,0.211105091497302
3,1,57,2.70512471655329,7,7,0,1,1.54993764683604,-1,0.20847868360579
3,1,58,2.59628117913832,7,7,0,3,1.0536123290658,-1,0.229061439633369
3,1,59,2.83718820861678,7,8,1,2,1.25853493623435,-1,0.0732005294412374
3,1,60,2.88943310657596,7,7,0,3,1.54306216165423,-1,0.476813295856118
3,1,61,2.23637188208617,7,6,-1,3,0.906939752399921,-1,0.473064413294196
3,1,62,2.79074829931973,7,7,0,2,0.956535620614886,-1,0.161236222833395
3,1,63,2.67609977324263,7,8,1,1,0.897547533735633,-1,0.239105194807053
3,1,64,2.69931972789116,7,6,-1,2,1.60451490804553,-1,0.0519447103142738
3,1,65,2.42793650793651,7,6,-1,1,1.11552949994802,-1,0.330092165619135
3,1,66,2.81541950113379,7,7,0,3,2.87795798107982,-1,0.691285928711295
3,1,67,3.14049886621315,7,8,1,2,0.554357836022973,-1,0.183623930439353
3,1,68,3.31755102040816,7,8,1,1,1.62491270713508,-1,0.14320320636034
3,1,69,2.85895691609977,7,8,1,1,1.17033784464002,-1,0.205109851434827
3,1,70,2.47873015873016,7,7,0,3,1.46257284842432,-1,0.543477993458509
3,1,71,3.01133786848073,7,7,0,2,2.34725456498563,-1,0.310159599408507
3,1,72,2.81106575963719,7,8,1,1,0.866370666772127,-1,0.0645445100963116
3,1,73,2.39310657596372,7,6,-1,2,0.662723848596215,-1,1.22239461913705
3,1,74,2.41487528344671,7,7,0,1,0.556499410420656,-1,0.176738005131483
3,1,75,2.92281179138322,7,8,1,1,0.552963435649872,-1,0.163979953154922
3,1,76,2.30603174603175,7,7,0,1,0.698538431897759,-1,0.105360314249992
3,1,77,2.25814058956916,7,6,-1,2,1.66952993907034,-1,0.0167487431317568
3,1,78,2.74140589569161,7,8,1,1,1.060665871948,-1,0.269085375592113
3,1,79,3.24063492063492,7,8,1,1,0.877070719376206,-1,1.04398783482611
3,1,80,2.43954648526077,7,6,-1,2,0.370546039193869,-1,0.463803822174668
3,1,81,2.53242630385488,7,6,-1,1,1.66454128921032,-1,0.104771587997675
3,1,82,2.58467120181406,7,7,0,2,0.677794948220253,-1,0.614245541393757
3,1,83,2.9837641723356,7,8,1,2,0.956092583015561,-1,0.0164577681571245
3,1,84,2.68190476190476,7,6,-1,3,3.26375023089349,-1,0.246081667020917
3,1,85,3.10857142857143,7,8,1,1,0.886529162526131,-1,0.35664196126163
3,1,86,2.38875283446712,7,7,0,3,0.821899214759469,-1,0.736377898603678
3,1,87,3.05342403628118,7,8,1,1,0.677705269306898,-1,0.037943571805954
3,1,88,2.4584126984127,7,7,0,3,0.836616970598698,-1,0.541755964979529
3,1,89,2.67609977324263,7,7,0,3,1.07919185049832,-1,0.750539641827345
3,1,90,3.05197278911565,7,8,1,1,1.05332347564399,-1,0.0233950540423393
3,1,91,2.2552380952381,7,6,-1,1,1.03235775046051,-1,0.016147879883647
3,1,92,2.74140589569161,7,8,1,1,1.213842863217,-1,0.0166228413581848
3,1,93,3.32480725623583,7,10,3,1,0.554627984762192,-1,0.09626679494977
3,1,94,1.98530612244898,7,6,-1,1,1.54950232617557,-1,0.0168799441307783
3,1,95,2.5730612244898,7,6,-1,3,0.59470534324646,-1,2.31860448420048
3,1,96,2.34231292517007,7,7,0,2,1.0662145037204,-1,0.179097762331367
3,1,97,2.18412698412698,7,6,-1,3,1.47003493271768,-1,0.830235989764333
3,1,98,2.4540589569161,7,7,0,3,2.5464645344764,-1,0.204917142167687
3,1,99,3.13469387755102,7,8,1,2,1.47823203168809,-1,0.245337864384055
3,1,100,1.72988662131519,7,5,-2,2,1.27393947169185,-1,0.624652756378055
3,1,101,2.61224489795918,7,7,0,2,1.40368403680623,-1,0.13360945507884
3,1,102,2.09560090702948,7,6,-1,1,1.14880642667413,-1,0.0869472324848175
3,1,103,2.70077097505669,7,7,0,2,0.015325078740716,-1,3.82040637172759
3,1,104,2.62095238095238,7,7,0,3,1.00646449625492,-1,0.327406531199813
3,1,105,2.84444444444444,7,7,0,1,0.702837819233537,-1,0.24089072458446
3,1,106,2.50340136054422,7,7,0,3,0.725602990016341,-1,0.788792802020907
3,1,107,3.15791383219955,7,8,1,1,1.35656289197505,-1,0.248731750994921
3,1,108,2.62820861678005,7,7,0,3,2.02653725631535,-1,0.0261403322219849
3,1,109,2.53097505668934,7,6,-1,3,0.858795175328851,-1,0.67474913969636
3,1,110,1.07392290249433,7,3,-4,1,3.25231717340648,-1,0.73031453602016
3,2,1,3.61650793650794,11,9,-2,3,0.910600738599896,-1,0.270520249381661
3,2,2,3.72825396825397,11,9,-2,2,0.0139519479125738,-1,0.886464877054095
3,2,3,3.64698412698413,11,9,-2,2,1.06082734651864,-1,0.114675879478455
3,2,4,3.31319727891156,11,9,-2,2,0.883011411875486,-1,0.856234461069107
3,2,5,3.39736961451247,11,9,-2,2,0.601483408361673,-1,0.164547959342599
3,2,6,3.34947845804989,11,9,-2,1,0.824258215725422,-1,0.0170133784413338
3,2,7,3.48009070294785,11,9,-2,2,1.88588311709464,-1,0.572845824062824
3,2,8,2.66448979591837,11,7,-4,1,0.898760687559843,-1,0.185401005670428
3,2,9,3.80807256235828,11,10,-1,1,1.84420062787831,-1,0.222779424861073
3,2,10,4.1708843537415,11,11,0,2,0.0160261243581772,-1,1.35308322124183
3,2,11,3.98367346938775,11,10,-1,2,1.58182500489056,-1,0.447065794840455
3,2,12,5.36526077097506,11,12,1,1,2.29989405162632,-1,0.233865337446332
3,2,13,5.10258503401361,11,13,2,1,0.845929553732276,-1,0.127785479649901
3,2,14,3.57732426303855,11,9,-2,2,0.840329067781568,-1,0.344195075333118
3,2,15,4.32181405895692,11,11,0,1,0.745435189455748,-1,0.247289225459099
3,2,16,3.92707482993197,11,10,-1,2,1.603485846892,-1,0.244341369718313
3,2,17,2.9968253968254,11,9,-2,1,1.3449433632195,-1,0.0469934847205877
3,2,18,4.20426303854875,11,10,-1,1,1.03123180940747,-1,0.0158849824219942
3,2,19,3.52072562358277,11,10,-1,1,0.75265783444047,-1,0.0161108244210482
3,2,20,4.61641723356009,11,11,0,1,1.81997579336166,-1,0.0524398609995842
3,2,21,4.11573696145125,11,11,0,1,1.28214967809618,-1,0.206745330244303
3,2,22,3.55990929705215,11,9,-2,2,1.77179606072605,-1,0.254107061773539
3,2,23,3.44235827664399,11,9,-2,1,3.80285224877298,-1,0.529662508517504
3,2,24,2.91120181405896,11,8,-3,1,1.02893441542983,-1,0.204664416611195
3,2,25,3.5178231292517,11,10,-1,2,1.05323512479663,-1,1.26122633554041
3,2,26,3.25804988662132,11,8,-3,1,1.0500329118222,-1,0.0166218690574169
3,2,27,4.28263038548753,11,10,-1,2,0.780778799206018,-1,1.09662661142647
3,2,28,3.66585034013605,11,10,-1,2,0.748075056821108,-1,0.232118928804994
3,2,29,4.02721088435374,11,10,-1,2,0.0796675756573677,-1,1.46388384141028
3,2,30,4.20716553287982,11,12,1,2,1.07066803984344,-1,0.310111783444881
3,2,31,4.8950566893424,11,11,0,2,1.62846509926021,-1,0.582188667729497
3,2,32,3.92997732426304,11,10,-1,3,2.38534877449274,-1,0.658259464427829
3,2,33,4.38857142857143,11,11,0,2,0.901723207905889,-1,0.0166962686926126
3,2,34,4.1447619047619,11,11,0,3,1.41008121147752,-1,0.203775081783533
3,2,35,4.09687074829932,11,11,0,1,1.35240054130554,-1,0.163653152063489
3,2,36,0.280090702947846,11,1,-10,1,2.19793189503253,-1,1.71927401982248
3,2,37,4.49741496598639,11,11,0,2,0.96217948757112,-1,3.97620400600135
3,2,38,3.46702947845805,11,10,-1,2,1.1877668146044,-1,0.614803681150079
3,2,39,4.46403628117914,11,11,0,2,0.761050326749682,-1,0.725259589031339
3,2,40,3.55120181405896,11,9,-2,3,1.53126965276897,-1,0.2158073335886
3,2,41,4.60625850340136,11,10,-1,3,1.25654336810112,-1,0.16195635125041
3,2,42,3.90240362811791,11,10,-1,2,1.41775891929865,-1,0.832748448476195
3,2,43,4.24925170068027,11,10,-1,3,0.874872423708439,-1,0.0668327230960131
3,2,44,3.18113378684807,11,9,-2,2,2.3713040612638,-1,0.149148130789399
3,2,45,4.37260770975057,11,12,1,1,1.16422042809427,-1,0.199217898771167
3,2,46,4.44371882086168,11,10,-1,1,0.83353041857481,-1,0.801923228427768
3,2,47,3.66294784580499,11,9,-2,1,1.22291744872928,-1,0.01630056835711
3,2,48,3.51927437641723,11,9,-2,1,0.952209120616317,-1,0.0159513615071774
3,2,49,3.6281179138322,11,10,-1,1,0.834326684474945,-1,0.0163409002125263
3,2,50,3.60634920634921,11,9,-2,1,0.636641476303339,-1,0.0167246535420418
3,2,51,3.40607709750567,11,9,-2,2,0.69542608037591,-1,0.536371359601617
3,2,52,3.80517006802721,11,9,-2,1,0.817637132480741,-1,0.0168406013399363
3,2,53,3.54394557823129,11,9,-2,1,1.08786261640489,-1,0.0476691164076328
3,2,54,3.80517006802721,11,10,-1,2,1.91459478065372,-1,0.512444745749235
3,2,55,3.93433106575964,11,10,-1,2,0.676061881706119,-1,0.0159077029675245
3,2,56,4.85877551020408,11,12,1,1,0.734021350741386,-1,0.016701377928257
3,2,57,3.68907029478458,11,9,-2,1,0.509042236953974,-1,1.51580657996237
3,2,58,3.78340136054422,11,10,-1,2,1.07829635962844,-1,0.356977839022875
3,2,59,4.29424036281179,11,12,1,1,1.05561899021268,-1,0.016417920589447
3,2,60,4.41614512471655,11,11,0,1,1.84485269151628,-1,0.829731434583664
3,2,61,4.65414965986395,11,12,1,1,1.16556075960398,-1,0.016899187117815
3,2,62,3.50621315192744,11,9,-2,2,1.99617513269186,-1,0.247145161032677
3,2,63,3.619410430839,11,10,-1,1,0.735487703233957,-1,0.132749948650599
3,2,64,3.52072562358277,11,9,-2,3,1.20155643485487,-1,0.396032769232988
3,2,65,3.37560090702948,11,9,-2,3,1.88646350614727,-1,0.0166611261665821
3,2,66,3.1956462585034,11,8,-3,3,1.4518473315984,-1,0.283840859308839
3,2,67,3.59909297052154,11,11,0,3,1.91197418235242,-1,0.21158822439611
3,2,68,4.00108843537415,11,10,-1,3,1.055818118155,-1,0.0965579617768526
3,2,69,4.69768707482993,11,11,0,2,0.627478811889887,-1,0.051923954859376
3,2,70,0.00580498866213152,11,1,-10,1,4.18434993177652,-1,0.299618763849139
3,2,71,4.71800453514739,11,14,3,2,2.04329509288073,-1,1.0424104500562
3,2,72,4.97922902494331,11,12,1,2,1.35997069999576,-1,0.372151508927345
3,2,73,3.31174603174603,11,9,-2,2,2.90185042843223,-1,0.322966422885656
3,2,74,3.72680272108844,11,10,-1,3,0.400405703112483,-1,0.243285255506635
3,2,75,4.03446712018141,11,10,-1,2,2.02383246459067,-1,0.711170043796301
3,2,76,4.22748299319728,11,12,1,2,1.81716293469071,-1,0.130199098959565
3,2,77,4.27972789115646,11,10,-1,2,2.36755249649286,-1,2.64977280795574
3,2,78,4.07365079365079,11,9,-2,1,1.00403744727373,-1,0.357619129121304
3,2,79,4.41324263038549,11,11,0,2,0.854741483926773,-1,0.254452573135495
3,2,80,3.67891156462585,11,9,-2,3,1.08635240606964,-1,0.150093415752053
3,2,81,4.62657596371882,11,11,0,2,1.21016979031265,-1,0.229062473401427
3,2,82,3.83419501133787,11,10,-1,2,2.79400212876499,-1,0.163312187418342
3,2,83,3.7209977324263,11,9,-2,3,0.947706758975983,-1,0.113594360649586
3,2,84,3.28272108843537,11,8,-3,2,1.03170798718929,-1,0.776241313666105
3,2,85,3.44526077097506,11,10,-1,3,0.992979999631643,-1,0.252523522824049
3,2,86,3.59909297052154,11,11,0,3,0.541881358250976,-1,0.243714645504951
3,2,87,4.24634920634921,11,10,-1,3,1.00224978663027,-1,0.0614481810480356
3,2,88,3.43800453514739,11,10,-1,2,0.873548427596688,-1,0.20984479598701
3,2,89,3.56716553287982,11,9,-2,1,1.19802959635854,-1,0.0164548382163048
3,2,90,3.45687074829932,11,10,-1,2,1.1341718826443,-1,0.0195186231285334
3,2,91,4.64979591836735,11,11,0,2,0.0156325306743383,-1,3.33703878335655
3,2,92,3.57297052154195,11,9,-2,1,1.11081016808748,-1,0.0166907086968422
3,2,93,3.64553287981859,11,10,-1,2,1.01946329139173,-1,0.016265906393528
3,2,94,4.76734693877551,11,12,1,1,1.49248966015875,-1,0.546475261449814
3,3,1,1.72408163265306,7,6,-1,3,1.04213630408049,-1,0.906162571161985
3,3,2,2.54839002267574,7,7,0,3,1.72426057048142,-1,0.331099869683385
3,3,3,3.35238095238095,7,8,1,2,1.62242566421628,-1,0.223622471094131
3,3,4,3.55265306122449,7,9,2,1,0.660330137237906,-1,0.12451634183526
3,3,5,2.65868480725624,7,6,-1,3,0.986003145575523,-1,0.556402018293738
3,3,6,2.53532879818594,7,7,0,1,0.756978603079915,-1,0.415693383663893
3,3,7,2.41487528344671,7,6,-1,1,1.16872872970998,-1,0.123425047844648
3,3,8,2.20444444444444,7,6,-1,2,0.931137943640351,-1,0.632476851344109
3,3,9,2.67755102040816,7,6,-1,2,0.0156114082783461,-1,3.63648490048945
3,3,10,1.81551020408163,7,5,-2,1,1.16291964054108,-1,0.127959348261356
3,3,11,2.63981859410431,7,7,0,1,1.04617973230779,-1,0.110745871439576
3,3,12,2.29151927437642,7,6,-1,2,1.29725780896842,-1,0.136899957433343
3,3,13,2.0259410430839,7,7,0,1,1.08014891669154,-1,0.103084037080407
3,3,14,3.41478458049887,7,8,1,1,0.980893896892667,-1,0.0166598428040743
3,3,15,2.51791383219955,7,7,0,1,0.578518103808165,-1,0.0214878432452679
3,3,16,2.98666666666667,7,8,1,1,0.937636440619826,-1,0.0458934064954519
3,3,17,2.97360544217687,7,7,0,1,0.703282281756401,-1,0.0304721724241972
3,3,18,2.67319727891156,7,7,0,3,0.701134210452437,-1,1.06834815628827
3,3,19,2.61079365079365,7,7,0,3,0.658378452062607,-1,0.32881210744381
3,3,20,2.58176870748299,7,7,0,1,1.40751403011382,-1,0.225709913298488
3,3,21,2.780589569161,7,7,0,1,0.465359658002853,-1,0.0902508925646544
3,3,22,2.8734693877551,7,7,0,1,0.958190910518169,-1,0.0196343678981066
3,3,23,2.00272108843537,7,6,-1,2,1.52008731849492,-1,0.0213786475360394
3,3,24,2.65142857142857,7,7,0,3,0.908845724537969,-1,0.0166605729609728
3,3,25,2.44825396825397,7,7,0,3,0.898107171058655,-1,0.0722147319465876
3,3,26,2.99102040816327,7,7,0,2,2.61683791130781,-1,0.0813741981983185
3,3,27,2.5643537414966,7,7,0,1,0.715916696935892,-1,0.016715407371521
3,3,28,3.37269841269841,7,8,1,1,0.612495701760054,-1,0.0162827931344509
3,3,29,2.51210884353742,7,6,-1,1,1.09140037372708,-1,3.60173628292978
3,3,30,2.34666666666667,7,6,-1,1,0.880449833348393,-1,0.0793815683573484
3,3,31,2.49904761904762,7,7,0,1,0.502570543438196,-1,0.0288214161992073
3,3,32,3.31609977324263,7,8,1,1,1.15744591876864,-1,0.105207301676273
3,3,33,2.20444444444444,7,7,0,1,2.02724318765104,-1,0.204243049025536
3,3,34,2.58757369614512,7,7,0,2,0.0160702355206013,-1,2.46898951567709
3,3,35,2.49759637188209,7,7,0,2,1.51054875180125,-1,0.0161027703434229
3,3,36,2.56580498866213,7,6,-1,2,1.19023333862424,-1,0.0160741675645113
3,3,37,2.69496598639456,7,8,1,1,1.06860418617725,-1,0.0164181515574455
3,3,38,2.50340136054422,7,6,-1,1,2.14335600286722,-1,0.162304189056158
3,3,39,2.92716553287982,7,7,0,1,0.972779370844364,-1,0.0651493165642023
3,3,40,2.85460317460317,7,8,1,2,0.596896067261696,-1,0.0160429682582617
3,3,41,2.84299319727891,7,8,1,1,0.755453918129206,-1,0.0164032559841871
3,3,42,2.88362811791383,7,7,0,2,1.13955765776336,-1,0.128605326637626
3,3,43,2.45551020408163,7,6,-1,2,2.02064630948007,-1,0.158643703907728
3,3,44,2.43083900226757,7,7,0,1,4.64104041643441,-1,0.764526037499309
3,3,45,2.69496598639456,7,6,-1,1,1.935886381194,-1,0.0606930814683437
3,3,46,2.57015873015873,7,7,0,2,2.13597366958857,-1,0.0163327269256115
3,3,47,3.46267573696145,7,9,2,1,0.543422061949968,-1,0.016195073723793
3,3,48,2.57451247165533,7,7,0,2,0.712304573506117,-1,1.10327003523707
3,3,49,2.4453514739229,7,7,0,1,0.803318319842219,-1,0.0290428996086121
3,3,50,2.49034013605442,7,6,-1,1,1.73814495839179,-1,0.0162823330610991
3,3,51,2.2378231292517,7,6,-1,2,0.552183359861374,-1,0.0164077375084162
3,3,52,2.11156462585034,7,6,-1,1,0.880807349458337,-1,0.0164029784500599
3,3,53,2.13478458049887,7,6,-1,2,1.04299469478428,-1,0.564272092655301
3,3,54,2.6615873015873,7,6,-1,1,1.5523330308497,-1,0.25111603923142
3,3,55,2.32780045351474,7,6,-1,2,0.747110672295094,-1,1.03944825939834
3,3,56,3.18984126984127,7,7,0,2,1.3687274325639,-1,0.195718815550208
3,3,57,2.63836734693878,7,6,-1,2,1.42709878645837,-1,0.0160542689263821
3,3,58,3.07083900226757,7,8,1,1,1.12569348141551,-1,0.138390269130468
3,3,59,3.01278911564626,7,7,0,2,0.761873446404934,-1,1.07724571414292
3,3,60,2.16380952380952,7,6,-1,2,0.594148337841034,-1,1.14749122783542
3,3,61,2.2508843537415,7,5,-2,2,0.739056659862399,-1,0.0879427287727594
3,3,62,2.50630385487528,7,6,-1,2,0.445382623001933,-1,0.0163793861865997
3,3,63,2.53387755102041,7,6,-1,1,1.01916792057455,-1,0.125386109575629
3,3,64,2.8734693877551,7,7,0,1,0.928164798766375,-1,0.166913190856576
3,3,65,1.81986394557823,7,6,-1,2,1.43435730226338,-1,0.123124139383435
3,3,66,2.8908843537415,7,7,0,2,0.0159690268337727,-1,1.5169965326786
3,3,67,2.70657596371882,7,8,1,2,0.0163338091224432,-1,2.19895099662244
3,3,68,2.42213151927438,7,6,-1,1,1.3937898427248,-1,0.165130445733666
3,3,69,2.96054421768707,7,7,0,1,2.04585462622344,-1,0.541886178776622
3,3,70,2.59773242630386,7,7,0,2,0.677073150873184,-1,0.574013743549585
3,3,71,3.0853514739229,7,7,0,2,1.10070873610675,-1,0.177621839568019
3,3,72,2.48598639455782,7,7,0,2,0.867965875193477,-1,0.0167174562811852
3,3,73,2.69496598639456,7,7,0,2,0.660943379625678,-1,0.0162809081375599
3,3,74,2.77043083900227,7,8,1,1,0.820004222914577,-1,0.107575776055455
3,3,75,2.01578231292517,7,6,-1,1,1.56154005602002,-1,0.836811011657119
3,3,76,2.3350566893424,7,6,-1,2,0.816266030073166,-1,0.0490838773548603
3,3,77,2.04770975056689,7,6,-1,1,1.05630915425718,-1,0.856383007019758
3,3,78,3.18113378684807,7,7,0,1,0.823044199496508,-1,0.535143272951245
3,3,79,2.05206349206349,7,6,-1,2,0.437862064689398,-1,0.680045563727617
3,3,80,2.23201814058957,7,7,0,2,1.44957229495049,-1,0.28074393607676
3,3,81,2.7762358276644,7,7,0,3,1.55631621181965,-1,0.865181328728795
3,3,82,2.6790022675737,7,7,0,1,1.88912718556821,-1,0.200037458911538
3,3,83,2.36408163265306,7,7,0,1,1.2543869651854,-1,0.118088897317648
3,3,84,3.01859410430839,7,7,0,1,1.38687090203166,-1,0.573801735416055
3,3,85,2.41777777777778,7,7,0,2,1.9916256275028,-1,1.49658353254199
3,3,86,2.37424036281179,7,7,0,2,1.77509547583759,-1,0.0159026868641376
3,3,87,3.16952380952381,7,8,1,2,1.84759822301567,-1,0.224579077214003
3,3,88,3.31609977324263,7,9,2,1,1.06604749150574,-1,0.258279722183943
3,3,89,2.16235827664399,7,6,-1,2,0.70531134866178,-1,1.73663991503417
3,3,90,2.4584126984127,7,6,-1,2,1.2958064712584,-1,0.159684900194407
3,3,91,2.06947845804989,7,7,0,1,1.10166144184768,-1,0.116128338500857
3,3,92,2.39455782312925,7,7,0,2,0.89539553783834,-1,0.941942472010851
3,3,93,2.20734693877551,7,7,0,1,0.817125100642443,-1,0.0586722828447819
3,3,94,2.2334693877551,7,6,-1,2,0.782380007207394,-1,0.113235345110297
3,3,95,2.4497052154195,7,6,-1,1,1.15215410850942,-1,1.79459100402892
3,3,96,3.04181405895692,7,8,1,1,2.08942482806742,-1,0.326205801218748
3,3,97,1.86049886621315,7,6,-1,1,0.901714319363236,-1,0.35637129470706
3,3,98,2.361179138322,7,7,0,1,0.588778233155608,-1,0.648956650868058
3,3,99,3.03020408163265,7,8,1,2,0.821324780583382,-1,0.408211011439562
3,3,100,2.62095238095238,7,7,0,3,0.797772569581866,-1,0.0791083350777626
3,3,101,2.20734693877551,7,6,-1,2,0.497108923271298,-1,0.0805061496794224
3,3,102,2.70947845804989,7,7,0,1,0.731851967051625,-1,0.0250112935900688
3,3,103,2.25668934240363,7,6,-1,2,1.68103218078613,-1,0.0549108143895864
3,3,104,2.15510204081633,7,6,-1,1,1.08991539105773,-1,0.104102091863751
3,4,1,3.09986394557823,11,9,-2,2,0.929061908274889,-1,0.0170051716268063
3,4,2,3.95609977324263,11,11,0,2,0.903289360925555,-1,0.0620229355990887
3,4,3,3.51056689342404,11,10,-1,1,0.856911383569241,-1,0.84996291436255
3,4,4,3.99963718820862,11,11,0,1,1.07314045168459,-1,0.0978545639663935
3,4,5,3.46412698412698,11,9,-2,1,0.839154964312911,-1,0.0167028233408928
3,4,6,2.83138321995465,11,7,-4,1,1.12342737615108,-1,0.206126037985086
3,4,7,3.05777777777778,11,7,-4,1,0.572018601000309,-1,0.0163713600486517
3,4,8,4.33487528344671,11,10,-1,3,0.718247735872865,-1,0.506963172927499
3,4,9,3.28997732426304,11,9,-2,2,0.74214730784297,-1,0.0169501081109047
3,4,10,2.73850340136054,11,8,-3,1,3.55858236178756,-1,0.0169476475566626
3,4,11,3.88789115646258,11,11,0,2,1.55706644058228,-1,0.0163037739694118
3,4,12,3.2972335600907,11,9,-2,1,0.726005965843797,-1,0.0160728879272938
3,4,13,3.43655328798186,11,9,-2,1,0.8848722204566,-1,0.0165113098919392
3,4,14,4.24780045351474,11,11,0,1,0.81275481544435,-1,0.0169310662895441
3,4,15,3.86176870748299,11,10,-1,1,0.71374643035233,-1,0.0165735725313425
3,4,16,4.30730158730159,11,11,0,1,1.00299973227084,-1,0.0161229781806469
3,4,17,4.07800453514739,11,11,0,1,0.467260837554932,-1,0.0166095439344645
3,4,18,3.57442176870748,11,9,-2,1,0.545604074373841,-1,0.0163437705487013
3,4,19,4.3697052154195,11,11,0,1,0.862039800733328,-1,0.016451021656394
3,4,20,3.92562358276644,11,10,-1,2,1.35833554156125,-1,0.129440996795893
3,4,21,3.92707482993197,11,10,-1,3,2.06166311167181,-1,0.0166478827595711
3,4,22,4.4887074829932,11,11,0,2,1.67485521361232,-1,0.0158726796507835
3,4,23,3.02875283446712,11,8,-3,1,1.65641499124467,-1,0.864354411140084
3,4,24,3.34367346938776,11,9,-2,2,1.77225548401475,-1,0.310717677697539
3,4,25,3.11727891156463,11,9,-2,2,0.624346191063523,-1,0.387660678476095
3,4,26,3.22176870748299,11,9,-2,2,0.801423834636807,-1,0.148546108976007
3,4,27,3.4118820861678,11,9,-2,1,1.3519285954535,-1,0.0158356539905071
3,4,28,3.08390022675737,11,8,-3,1,0.599041199311614,-1,0.0164965391159058
3,4,29,3.66875283446712,11,10,-1,2,1.93063489533961,-1,0.0159823428839445
3,4,30,3.4162358276644,11,9,-2,1,1.51392673142254,-1,0.207310879603028
3,4,31,3.57006802721088,11,9,-2,1,0.692910084500909,-1,0.0164535790681839
3,4,32,3.99528344671202,11,10,-1,1,0.4774732850492,-1,0.0168122742325068
3,4,33,3.67310657596372,11,9,-2,2,0.799373967573047,-1,0.201875705271959
3,4,34,3.80371882086168,11,10,-1,3,0.492948304861784,-1,0.64464808255434
3,4,35,3.01859410430839,11,8,-3,2,1.33902674913406,-1,0.705054432153702
3,4,36,3.23047619047619,11,8,-3,1,2.42748705111444,-1,0.570138609036803
3,4,37,3.86467120181406,11,11,0,1,1.1036000084132,-1,0.0168560240417719
3,4,38,4.33052154195011,11,12,1,1,1.501857759431,-1,0.0373924430459738
3,4,39,3.98367346938775,11,12,1,1,0.719550462439656,-1,0.166071470826864
3,4,40,4.09687074829932,11,10,-1,1,0.600790129974484,-1,0.0160394180566072
3,4,41,3.48444444444444,11,9,-2,1,0.789355475455523,-1,0.0169671159237623
3,4,42,3.5134693877551,11,10,-1,1,0.629696745425463,-1,0.0169644728302956
3,4,43,3.90965986394558,11,10,-1,2,1.05796356871724,-1,0.0164541713893414
3,4,44,3.56136054421769,11,9,-2,1,1.64357871934772,-1,0.0263249315321445
3,4,45,3.33351473922902,11,9,-2,1,0.257179724052548,-1,0.353623390197754
3,4,46,3.68907029478458,11,9,-2,3,0.933838846161962,-1,0.825341887772083
3,4,47,3.99238095238095,11,10,-1,3,1.52864778414369,-1,0.165816308930516
3,4,48,3.07374149659864,11,9,-2,2,1.13665207661688,-1,0.0373340845108032
3,4,49,3.85741496598639,11,9,-2,3,1.71542523615062,-1,0.0481326412409544
3,4,50,4.28698412698413,11,10,-1,2,1.55649404786527,-1,4.71925212442875
3,4,51,4.22603174603175,11,10,-1,1,1.48160958476365,-1,0.0163878872990608
3,4,52,3.62086167800454,11,9,-2,1,0.833650020882487,-1,0.0159643813967705
3,4,53,4.30149659863946,11,11,0,1,1.34385607205331,-1,0.0368938911706209
3,4,54,3.94884353741497,11,9,-2,1,1.03726644814014,-1,0.470125028863549
3,4,55,4.13895691609977,11,10,-1,1,1.80243229493499,-1,1.88300508074462
3,4,56,4.01850340136054,11,9,-2,1,1.86716546118259,-1,5.61919441446662
3,4,57,3.18258503401361,11,9,-2,2,1.86776983365417,-1,0.585120486095548
3,4,58,3.63392290249433,11,9,-2,3,0.678873553872108,-1,0.134085616096854
3,4,59,3.68471655328798,11,10,-1,2,1.38672357052565,-1,0.486205853521824
3,4,60,4.08671201814059,11,10,-1,1,1.70284283161163,-1,0.749707996845245
3,4,61,3.22176870748299,11,9,-2,1,0.615089766681194,-1,0.0163228083401918
3,4,62,3.70068027210884,11,9,-2,1,0.968855410814285,-1,0.0166286733001471
3,4,63,4.58448979591837,11,11,0,1,2.06084848940372,-1,1.48939947783947
3,4,64,3.88934240362812,11,10,-1,2,1.92908431589603,-1,0.0168159212917089
3,4,65,3.62521541950113,11,9,-2,2,1.43745419383049,-1,0.0169301889836788
3,4,66,3.59619047619048,11,9,-2,1,2.2311522308737,-1,0.0567750912159681
3,4,67,3.69197278911565,11,9,-2,1,0.785913227126002,-1,0.941707439720631
3,4,68,3.38721088435374,11,9,-2,1,1.01514886319637,-1,0.0577044859528542
3,4,69,3.11147392290249,11,8,-3,1,2.60484131798148,-1,0.0705490652471781
3,4,70,4.34648526077097,11,11,0,1,0.883301546797156,-1,0.0751085747033358
3,4,71,4.30730158730159,11,12,1,1,0.639551671221852,-1,0.0406617783010006
3,4,72,3.17823129251701,11,9,-2,1,0.863647671416402,-1,0.0170089285820723
3,4,73,4.40018140589569,11,10,-1,1,1.44428817369044,-1,0.0163916014134884
3,4,74,6.16780045351474,11,15,4,1,1.10195232182741,-1,1.03596310317516
3,4,75,3.57442176870748,11,9,-2,1,0.856708159670234,-1,1.11225685477257
3,4,76,4.281179138322,11,11,0,1,0.387429893016815,-1,0.047135541215539
3,4,77,2.29151927437642,11,7,-4,1,0.827124707400799,-1,0.016274219378829
3,4,78,3.24063492063492,11,9,-2,1,1.02603430114686,-1,0.0269244965165854
3,4,79,3.83274376417234,11,10,-1,2,1.18001686409116,-1,0.031802698969841
3,4,80,2.78349206349206,11,7,-4,1,0.945419164374471,-1,0.0863492228090763
3,4,81,3.18113378684807,11,9,-2,1,0.616107903420925,-1,0.210189990699291
3,4,82,3.70068027210884,11,10,-1,2,1.34625351987779,-1,1.4868405610323
3,4,83,3.48299319727891,11,9,-2,3,1.01199648715556,-1,0.269880970939994
3,4,84,3.70938775510204,11,10,-1,3,1.23099243454635,-1,2.47325743921101
3,4,85,4.62512471655329,11,10,-1,3,1.11284335702658,-1,0.391587536782026
3,4,86,2.93006802721088,11,8,-3,1,0.512675676494837,-1,0.0469626840204
3,4,87,3.04326530612245,11,8,-3,1,0.591071356087923,-1,0.0160004738718271
3,4,88,3.24353741496599,11,9,-2,3,1.02197678945959,-1,0.0646789073944092
3,4,89,3.11147392290249,11,9,-2,2,1.34966293908656,-1,0.0160988587886095
3,4,90,3.05052154195011,11,8,-3,1,1.58275402337313,-1,0.297986343502998
3,4,91,3.78485260770975,11,10,-1,1,0.697925044223666,-1,0.0554486475884914
3,4,92,3.48299319727891,11,10,-1,1,3.84744814783335,-1,0.413060184568167
3,4,93,3.03310657596372,11,9,-2,1,0.650277737528086,-1,0.274178180843592
3,4,94,3.29433106575964,11,8,-3,2,0.820425014942884,-1,0.116428723558784
3,4,95,0.00580498866213152,11,1,-10,1,2.43961123935878,-1,0.367900611832738
4,1,1,5.43201814058957,11,14,3,2,2.69811106001725,-1,3.27015856601065
4,1,2,3.59619047619048,11,9,-2,2,1.7747009480081,-1,3.45415582199348
4,1,3,5.11274376417234,11,12,1,2,2.44053974599228,-1,2.0439666149905
4,1,4,4.44662131519274,11,11,0,3,2.15249952400336,-1,3.06480277699302
4,1,5,4.08235827664399,11,9,-2,1,3.55564350899658,-1,2.06287033599801
4,1,6,4.2681179138322,11,11,0,1,3.52490441699047,-1,1.32143811997958
4,1,7,4.1534693877551,11,10,-1,2,2.56859060298302,-1,1.96688124901266
4,1,8,3.23047619047619,11,9,-2,2,2.20349905299372,-1,3.9533643219911
4,1,9,4.66866213151927,11,12,1,2,2.75765213297564,-1,0.507571009016829
4,1,10,4.35519274376417,11,12,1,3,3.21468530601123,-1,4.31182827200973
4,1,11,3.87773242630385,11,9,-2,2,2.33590404101415,-1,0.349652901000809
4,1,12,4.46258503401361,11,10,-1,2,3.78850532099023,-1,0.405536003992893
4,1,13,4.20426303854875,11,11,0,2,4.44615888700355,-1,2.29956343097729
4,1,14,5.0184126984127,11,12,1,2,4.04666615501628,-1,1.29317187998095
4,1,15,4.3697052154195,11,11,0,2,1.39647439998225,-1,0.211287562007783
4,1,16,4.33052154195011,11,10,-1,3,2.29955072101438,-1,1.8771394219948
4,1,17,3.88353741496599,11,11,0,2,2.7186752090056,-1,2.18345105700428
4,1,18,4.07219954648526,11,11,0,1,2.70519906500704,-1,0.504343987995526
4,1,19,4.78331065759637,11,12,1,2,2.40006097301375,-1,0.358655732008629
4,1,20,4.8108843537415,11,12,1,3,2.8131924829795,-1,1.70425574100227
4,1,21,4.36825396825397,11,11,0,2,3.14050840900745,-1,1.25829543900909
4,1,22,4.74412698412698,11,13,2,1,3.90735867799958,-1,0.568641888996353
4,1,23,4.78040816326531,11,13,2,1,3.41934115201002,-1,1.49481238701264
4,1,24,5.18385487528345,11,14,3,1,1.75556376800523,-1,0.323929256002884
4,1,25,2.91845804988662,11,8,-3,3,1.95491346399649,-1,3.40247724601068
4,1,26,3.92707482993197,11,10,-1,3,1.94982294601505,-1,2.02292905800277
4,1,27,4.33052154195011,11,12,1,2,1.74128170299809,-1,1.69388052402064
4,1,28,5.05179138321996,11,12,1,2,1.2983822519891,-1,1.60546089999843
4,1,29,4.88489795918367,11,12,1,2,2.69109263797873,-1,1.95472263402189
4,1,30,5.36235827664399,11,15,4,1,1.90261080299388,-1,0.320170769991819
4,1,31,4.77460317460317,11,12,1,2,2.76780579797924,-1,0.333607363980263
4,1,32,5.2302947845805,11,13,2,1,4.06235708398162,-1,0.365281661011977
4,1,33,1.75891156462585,11,5,-6,1,2.59017715998925,-1,0.0173889930010773
4,1,34,4.18394557823129,11,11,0,3,2.35297914000694,-1,0.415708320011618
4,1,35,3.48009070294785,11,9,-2,3,2.71411791999708,-1,0.546117622987367
4,1,36,3.15501133786848,11,9,-2,3,3.18504454399226,-1,0.988832704984816
4,1,37,3.5265306122449,11,9,-2,2,4.35292093601311,-1,3.11357194499578
4,1,38,3.55990929705215,11,10,-1,2,2.28262151102535,-1,2.15843041299377
4,1,39,4.0431746031746,11,11,0,1,4.53557122801431,-1,0.450294331996702
4,1,40,3.21741496598639,11,10,-1,2,2.06736910698237,-1,0.462824760004878
4,1,41,4.44662131519274,11,11,0,2,1.47118287798367,-1,1.28389774900279
4,1,42,3.46557823129252,11,10,-1,2,1.37624881698866,-1,0.857894947024761
4,1,43,4.2507029478458,11,10,-1,2,1.30893708299845,-1,0.168599803990219
4,1,44,5.14031746031746,11,13,2,1,2.90485984500265,-1,0.471374998014653
4,1,45,3.76308390022676,11,9,-2,2,3.34045449600671,-1,2.28839849500218
4,1,46,4.28263038548753,11,11,0,2,3.52082859099028,-1,0.445190711005125
4,1,47,3.81823129251701,11,10,-1,2,3.35094952199142,-1,0.547954235982616
4,1,48,4.72090702947846,11,12,1,1,1.86029405301088,-1,0.456236751982942
4,1,49,4.33632653061224,11,11,0,2,0.621408143022563,-1,0.567541700991569
4,1,50,5.38848072562358,11,14,3,1,1.57203342599678,-1,0.380868829990504
4,1,51,5.19401360544218,11,12,1,2,0.721306127990829,-1,0.190469360997668
4,1,52,4.17378684807256,11,11,0,1,2.55490758499946,-1,1.17688233198714
4,1,53,4.08090702947846,11,10,-1,3,3.41852593599469,-1,1.05112687801011
4,1,54,3.81823129251701,11,10,-1,2,1.41542330599623,-1,1.8397038889816
4,1,55,5.98784580498866,11,15,4,1,0.95322378599667,-1,0.420619115990121
4,1,56,4.92698412698413,11,11,0,2,0.613439737993758,-1,0.0224928460083902
4,1,57,4.99664399092971,11,12,1,2,1.8410780080012,-1,0.564699541981099
4,1,58,4.31891156462585,11,11,0,3,2.30572858900996,-1,1.67573913800879
4,1,59,4.00399092970522,11,12,1,2,5.53923282900359,-1,1.28958705000696
4,1,60,4.84281179138322,11,13,2,3,1.73469083101372,-1,2.43038459599484
4,1,61,5.62503401360544,11,14,3,3,2.60750972898677,-1,2.15536498100846
4,1,62,5.02857142857143,11,13,2,2,3.35858772302163,-1,0.336946391005768
4,1,63,5.30866213151927,11,14,3,2,1.87220584598253,-1,1.08286428701831
4,1,64,5.83691609977324,11,13,2,2,2.51965496098273,-1,0.776038849988254
4,1,65,5.49877551020408,11,14,3,3,2.33131574702566,-1,2.61797791198478
4,1,66,5.00390022675737,11,13,2,2,3.06097433602554,-1,1.66270502601401
4,1,67,5.6584126984127,11,14,3,1,1.17252684599953,-1,1.38902146497276
4,1,68,4.19410430839002,11,11,0,2,2.13453199499054,-1,0.560851842019474
4,1,69,4.67156462585034,11,10,-1,3,1.1371394089947,-1,1.15527077100705
4,1,70,5.3362358276644,11,14,3,1,1.03543156199157,-1,0.240583783015609
4,1,71,5.40444444444444,11,13,2,2,0.695917996024946,-1,0.143872346001444
4,1,72,3.60489795918367,11,9,-2,1,1.14742502200534,-1,0.0173116369987838
4,1,73,5.37396825396825,11,14,3,2,1.73004311899422,-1,0.602276294026524
4,2,1,2.63256235827664,7,7,0,3,2.8528624669998,-1,1.82176205801079
4,2,2,3.00988662131519,7,8,1,2,2.58034688100452,-1,1.84161507201497
4,2,3,4.91972789115646,7,12,5,1,3.58306102800998,-1,0.111792151001282
4,2,4,3.45687074829932,7,8,1,2,2.19529919300112,-1,1.8648506400059
4,2,5,3.35673469387755,7,10,3,2,0.93358122400241,-1,0.936432852991857
4,2,6,4.98358276643991,7,11,4,1,1.24543879702105,-1,0.442129154020222
4,2,7,3.23773242630385,7,9,2,1,0.932932744995924,-1,0.36162432198762
4,2,8,2.7631746031746,7,8,1,3,2.60542284400435,-1,0.370346042996971
4,2,9,4.17233560090703,7,10,3,3,3.58826656799647,-1,1.66221755900187
4,2,10,2.35537414965986,7,6,-1,1,2.46708027398563,-1,0.356462946016109
4,2,11,3.38430839002268,7,9,2,2,1.6981616349949,-1,1.62169291399186
4,2,12,2.69931972789116,7,7,0,3,1.75760001898743,-1,1.72611637102091
4,2,13,4.03301587301587,7,9,2,3,1.37482968700351,-1,0.680277334991843
4,2,14,3.4292970521542,7,9,2,3,0.851974814984715,-1,1.51258231099928
4,2,15,3.41333333333333,7,9,2,3,0.863815300981514,-1,1.68731717701303
4,2,16,3.5178231292517,7,9,2,2,0.869528833020013,-1,0.94175298200571
4,2,17,3.23047619047619,7,8,1,2,2.43514625000535,-1,0.358222247014055
4,2,18,3.17532879818594,7,8,1,3,2.57535504200496,-1,0.970827463024762
4,2,19,4.26666666666667,7,11,4,1,1.4988278769888,-1,0.381258400011575
4,2,20,3.62666666666667,7,9,2,2,1.36959160902188,-1,0.986785915010842
4,2,21,2.86185941043084,7,8,1,2,1.47259546999703,-1,0.323698491993127
4,2,22,3.32335600907029,7,10,3,2,0.719257938006194,-1,0.709385793015826
4,2,23,4.62512471655329,7,11,4,3,3.82466246798867,-1,0.520168224000372
4,2,24,3.0853514739229,7,8,1,3,0.861473636003211,-1,1.35671390901553
4,2,25,2.6790022675737,7,8,1,3,0.7939148049918,-1,1.43559030198958
4,2,26,2.88507936507937,7,7,0,3,0.61024788900977,-1,0.682567181997001
4,2,27,3.37269841269841,7,8,1,3,0.525964443018893,-1,0.524974639003631
4,2,28,2.88507936507937,7,9,2,3,0.339620079990709,-1,1.20275795500493
4,2,29,2.64707482993197,7,7,0,3,0.508129852998536,-1,0.483064259984531
4,2,30,4.50176870748299,7,11,4,1,1.12032902298961,-1,0.348798863997217
4,2,31,3.8356462585034,7,10,3,1,0.578954249998787,-1,0.477740700007416
4,2,32,3.0984126984127,7,7,0,2,0.639124042994808,-1,0.903164437011583
4,2,33,2.83283446712018,7,8,1,3,1.14255113498075,-1,0.496943909005495
4,2,34,4.1534693877551,7,11,4,1,0.5101813620131,-1,0.363199832994724
4,2,35,4.65269841269841,7,12,5,1,1.25927150799544,-1,0.465274703979958
4,2,36,3.12018140589569,7,7,0,3,0.547023813007399,-1,0.447796864988049
4,2,37,4.7847619047619,7,12,5,1,0.564621836005244,-1,0.857004343008157
4,2,38,3.60925170068027,7,10,3,2,0.957649435993517,-1,0.552414058009163
4,2,39,2.91410430839002,7,8,1,2,2.35425143601606,-1,0.626033056003507
4,2,40,2.48018140589569,7,7,0,1,1.82684370302013,-1,2.29513408601633
4,2,41,3.78049886621315,7,9,2,2,3.20700194497476,-1,0.368636205006624
4,2,42,5.92979591836735,7,15,8,1,2.10570337501122,-1,0.354602865991183
4,2,43,3.89659863945578,7,11,4,1,2.68079294500058,-1,0.785888918995624
4,2,44,3.19419501133787,7,7,0,1,2.95620741599123,-1,0.29580421699211
4,2,45,3.9590022675737,7,10,3,2,0.807880314008798,-1,0.201323128014337
4,2,46,2.62385487528345,7,7,0,3,1.16709711300791,-1,0.425903434981592
4,2,47,3.0984126984127,7,8,1,3,0.665593326004455,-1,0.0566899499972351
4,2,48,2.95619047619048,7,8,1,3,0.813322100992082,-1,0.310389819991542
4,2,49,3.27111111111111,7,9,2,2,2.06296926099458,-1,0.274727087991778
4,2,50,2.71383219954649,7,7,0,3,0.823199373000534,-1,0.496915429015644
4,2,51,2.91845804988662,7,8,1,2,1.84325626099599,-1,0.279130289010936
4,2,52,3.36834467120181,7,9,2,3,1.19671428698348,-1,0.493023652001284
4,2,53,2.52807256235828,7,7,0,3,0.616874844010454,-1,3.78505228701397
4,2,54,4.13895691609977,7,11,4,3,0.801767486002063,-1,0.0166230610047933
4,2,55,3.68036281179138,7,9,2,2,4.54617064900231,-1,1.4035202920204
4,2,56,2.89959183673469,7,8,1,2,0.655458824010566,-1,1.32008023298113
4,2,57,3.47573696145125,7,8,1,3,0.990536547993543,-1,1.38372302200878
4,2,58,3.09696145124717,7,8,1,3,0.669389300019247,-1,1.08516724000219
4,2,59,2.46421768707483,7,7,0,3,0.520696510007838,-1,0.197802704002243
4,2,60,4.70204081632653,7,12,5,1,1.10894073199597,-1,0.305971397989197
4,2,61,3.23337868480726,7,8,1,2,1.53284429601626,-1,1.04675586597295
4,2,62,3.02294784580499,7,9,2,2,1.47110354699544,-1,0.229101710981922
4,2,63,3.66294784580499,7,8,1,3,0.698160563973943,-1,1.40735098000732
4,2,64,3.93433106575964,7,9,2,3,2.68820325599518,-1,0.321953906008275
4,2,65,3.59619047619048,7,10,3,2,2.3412559920107,-1,0.675972807977814
4,2,66,4.37551020408163,7,11,4,3,1.31639616499888,-1,0.255335142981494
4,2,67,1.97514739229025,7,5,-2,3,0.784239859000081,-1,0.0829012119793333
4,2,68,2.11301587301587,7,6,-1,3,0.619621869002003,-1,0.259384812990902
4,2,69,3.07374149659864,7,7,0,3,1.83572021100554,-1,1.50321651197737
4,2,70,2.85315192743764,7,7,0,3,0.785722408996662,-1,0.07539082900621
4,2,71,2.58031746031746,7,6,-1,2,1.61827499500941,-1,0.216657196986489
4,2,72,4.14621315192744,7,10,3,3,0.772591131011723,-1,0.791989997000201
4,2,73,3.39591836734694,7,9,2,3,0.991298414999619,-1,0.361663769988809
4,2,74,4.51337868480726,7,11,4,3,0.8649510339892,-1,0.806358784000622
4,2,75,3.26240362811791,7,9,2,2,1.80544041498797,-1,0.178586957015796
4,2,76,3.9502947845805,7,10,3,3,0.989850225014379,-1,1.35927507397719
4,2,77,4.13315192743764,7,12,5,3,0.408753055991838,-1,0.0166667320008855
4,2,78,3.57297052154195,7,8,1,2,1.88670236300095,-1,0.433277694013668
4,2,79,3.85886621315193,7,9,2,3,0.668420689995401,-1,1.19672773499042
4,2,80,2.95183673469388,7,8,1,2,1.08661757301888,-1,0.22732670197729
4,2,81,6.03428571428571,7,14,7,3,0.766765403008321,-1,0.263187581993407
4,2,82,6.33179138321995,7,16,9,3,0.871355230017798,-1,0.102187122014584
4,2,83,4.00399092970522,7,9,2,3,0.587101404991699,-1,1.244177821005
4,2,84,3.50331065759637,7,9,2,3,2.44180918499478,-1,0.387185138009954
4,2,85,4.1621768707483,7,10,3,2,2.17361301000346,-1,0.427224868006306
4,2,86,1.83582766439909,7,6,-1,2,1.16195118200267,-1,0.30001268000342
4,2,87,3.83854875283447,7,10,3,3,0.825636099994881,-1,1.417577530985
4,2,88,3.86176870748299,7,10,3,2,0.855270658998052,-1,0.347989711997798
4,2,89,3.4075283446712,7,8,1,2,1.31816197300213,-1,0.375923228013562
4,2,90,2.95328798185941,7,7,0,2,1.33794957498321,-1,0.284027465007966
4,2,91,2.65433106575964,7,8,1,2,1.72825084900251,-1,0.988174760015681
4,2,92,3.70068027210884,7,9,2,2,1.35033715399913,-1,3.89648611002485
4,2,93,3.48589569160998,7,10,3,2,2.20942149398616,-1,0.335260336985812
4,2,94,4.61786848072562,7,13,6,2,2.4302230719768,-1,0.386216334998608
4,2,95,3.63102040816327,7,9,2,2,0.761890083987964,-1,0.293369142018491
4,3,1,4.16362811791383,11,12,1,3,0.428914246993372,-1,0.359706937015289
4,3,2,4.58448979591837,11,11,0,2,1.82850799500011,-1,1.41058395200525
4,3,3,4.51773242630385,11,11,0,2,1.62439990098937,-1,0.855577973008621
4,3,4,6.4,11,16,5,2,0.861495627003023,-1,0.325835433992324
4,3,5,4.43936507936508,11,12,1,3,1.04199830099242,-1,2.02410874000634
4,3,6,4.67591836734694,11,12,1,3,7.51206239199382,-1,1.56238683898118
4,3,7,5.78467120181406,11,16,5,1,0.643904972006567,-1,0.675748103996739
4,3,8,5.67582766439909,11,15,4,3,1.60274652900989,-1,0.392807224998251
4,3,9,4.75573696145125,11,12,1,2,1.09029389798525,-1,0.399463172012474
4,3,10,5.14902494331066,11,13,2,2,0.626149543008069,-1,0.337073798989877
4,3,11,5.41605442176871,11,14,3,2,1.27615467400756,-1,0.367269533016952
4,3,12,4.67011337868481,11,12,1,1,0.986251391994301,-1,1.07336005900288
4,3,13,4.98358276643991,11,12,1,2,2.55806380999275,-1,1.68459920401801
4,3,14,4.6918820861678,11,11,0,3,1.55669399400358,-1,0.462129238992929
4,3,15,4.19410430839002,11,11,0,2,0.775295530009316,-1,0.346010987996124
4,3,16,5.23174603174603,11,13,2,2,0.464506557997083,-1,0.337135203008074
4,3,17,6.2940589569161,11,16,5,3,0.4008374880068,-1,0.299481221998576
4,3,18,4.69478458049887,11,13,2,2,1.59841289999895,-1,0.341562846995657
4,3,19,4.51773242630385,11,11,0,2,0.586547979008174,-1,0.501127605995862
4,3,20,6.34630385487528,11,17,6,3,0.591248115000781,-1,2.07342612498906
4,3,21,6.26213151927438,11,16,5,3,1.2421350699733,-1,0.361444562993711
4,3,22,6.9340589569161,11,16,5,3,0.658858907001559,-1,0.12921110301977
4,3,23,6.25922902494331,11,14,3,2,0.283911676000571,-1,0.0261014919960871
4,3,24,6.20843537414966,11,17,6,2,1.3783140660089,-1,0.490644987003179
4,3,25,6.47691609977324,11,15,4,2,1.63888890200178,-1,0.403693459986243
4,3,26,4.24199546485261,11,12,1,2,0.902594170998782,-1,0.427768295019632
4,3,27,2.52952380952381,11,7,-4,2,0.26741476499592,-1,1.63718298601452
4,3,28,3.89224489795918,11,9,-2,3,0.526355553010944,-1,0.389085734001128
4,3,29,2.81396825396825,11,8,-3,3,0.687100412003929,-1,0.357677196996519
4,3,30,4.19120181405896,11,12,1,3,1.15365366201149,-1,0.171973806980532
4,3,31,3.62956916099773,11,10,-1,2,0.827547180000693,-1,0.205222013988532
4,3,32,5.28399092970522,11,14,3,2,0.469587182014948,-1,0.142255471000681
4,3,33,5.26077097505669,11,13,2,3,1.02774568099994,-1,1.07467486397945
4,3,34,6.1707029478458,11,17,6,3,0.500494787003845,-1,0.370151146984426
4,3,35,7.56825396825397,11,19,8,3,1.90897449300974,-1,0.309986501000822
4,3,36,8.94113378684807,11,22,11,3,0.440798064984847,-1,0.298347984004067
4,3,37,4.51337868480726,11,12,1,3,1.94559114400181,-1,0.657960572978482
4,3,38,4.55401360544218,11,12,1,2,1.40951487101847,-1,0.53763580400846
4,3,39,9.04272108843537,11,24,13,3,0.776963245007209,-1,0.227614909003023
4,3,40,3.67600907029478,11,10,-1,3,0.944656025996665,-1,0.636997987021459
4,3,41,6.22004535147392,11,16,5,3,0.650314601021819,-1,0.243442203005543
4,3,42,4.73832199546485,11,12,1,2,0.379854872007854,-1,0.0174424799915869
4,3,43,3.9590022675737,11,11,0,2,0.548839910014067,-1,0.225200633984059
4,3,44,3.37414965986395,11,9,-2,2,0.339936832984677,-1,2.09671762998914
4,3,45,3.42204081632653,11,8,-3,3,0.300235691014677,-1,0.242360571020981
4,3,46,3.44090702947846,11,9,-2,3,0.384727333992487,-1,0.225587065011496
4,3,47,4.3740589569161,11,11,0,3,0.424928027001442,-1,0.23504438000964
4,3,48,4.96761904761905,11,12,1,3,0.291746143018827,-1,0.0171465169987641
4,3,49,5.03147392290249,11,12,1,2,1.10984015397844,-1,0.185549029003596
4,3,50,4.77315192743764,11,12,1,2,0.511614721006481,-1,1.11644972098293
4,3,51,4.56417233560091,11,11,0,2,0.560148040007334,-1,0.084224528982304
4,3,52,3.27836734693878,11,9,-2,3,0.117423199000768,-1,0.347553626983427
4,3,53,3.7253514739229,11,9,-2,3,0.880998877983075,-1,0.325977114000125
4,3,54,4.52208616780045,11,11,0,1,0.0161383349914104,-1,0.510844667005586
4,3,55,4.09251700680272,11,12,1,2,1.69345703601721,-1,0.808089244994335
4,3,56,6.05024943310658,11,15,4,2,0.331594649003819,-1,0.376640809001401
4,3,57,5.49297052154195,11,15,4,3,0.3464012320037,-1,1.13546621400747
4,3,58,5.59165532879819,11,15,4,2,2.11447244000738,-1,0.330504507990554
4,3,59,5.06920634920635,11,14,3,3,0.981802337017143,-1,0.416333072003908
4,3,60,6.6031746031746,11,17,6,3,0.593259910005145,-1,0.436345911992248
4,3,61,6.06766439909297,11,15,4,3,0.615202030981891,-1,3.02391571298358
4,3,62,4.29859410430839,11,11,0,1,0.554810857982375,-1,0.504415900999447
4,3,63,4.32761904761905,11,12,1,2,1.09925302199554,-1,0.72824862098787
4,3,64,6.54802721088435,11,15,4,2,0.974617155996384,-1,0.384961264993763
4,3,65,7.03274376417234,11,18,7,2,1.15637167700334,-1,1.82071551898844
4,3,66,4.26086167800454,11,11,0,3,1.03224219899857,-1,0.646416102012154
4,3,67,4.23183673469388,11,11,0,1,3.55314323000493,-1,0.604709306004224
4,3,68,2.65578231292517,11,7,-4,3,0.88385431599454,-1,0.303657417010982
4,3,69,5.58585034013605,11,13,2,3,0.390751947998069,-1,0.368339537002612
4,3,70,3.398820861678,11,8,-3,3,0.394504858006258,-1,0.22858566098148
4,3,71,4.41179138321995,11,12,1,3,0.588371174002532,-1,0.773987929977011
4,3,72,4.85587301587302,11,12,1,3,0.648136278003221,-1,1.02614886598894
4,3,73,6.70331065759637,11,17,6,3,0.3534267990035,-1,0.0525693400122691
4,3,74,5.41170068027211,11,15,4,3,0.734402162983315,-1,0.0168070369982161
4,3,75,5.30285714285714,11,15,4,2,2.59395552802016,-1,0.0852650449960493
4,3,76,6.88326530612245,11,16,5,3,0.8180168819963,-1,0.57041722201393
4,3,77,5.71356009070295,11,14,3,3,0.665679886995349,-1,0.408965604001423
4,3,78,2.83138321995465,11,7,-4,3,0.375525391980773,-1,0.259659570001531
4,3,79,3.75727891156463,11,9,-2,3,0.538921665982343,-1,0.319714888988528
4,3,80,4.65414965986395,11,12,1,2,0.568435200984823,-1,0.250871159980306
4,3,81,3.91546485260771,11,10,-1,2,0.349549302016385,-1,0.162923133000731
4,3,82,5.4508843537415,11,14,3,2,0.605307290999917,-1,0.287119155022083
