"Subj_idx","Stimulus","Response","RT_dec","Confidence","RT_conf","SOA","Accuracy","Trial"
1,1,1,0.995750000234693,0.787351227156424,1.80233500013128,48.6,1,1
1,2,2,0.839709999971092,0.347882688350243,1.248560000211,48.6,1,2
1,1,1,0.712745000142604,0.574015400046556,1.29147499985993,43.74,1,3
1,2,2,0.700375000014901,0.814684753084831,1.41510999994352,43.74,1,4
1,2,2,0.688540000002831,0.888153534263024,1.529294999782,39.366,1,5
1,1,1,0.732390000019222,0.655702345079139,1.76060499995947,39.366,1,6
1,1,1,0.708039999939501,0.574015400046556,1.23941500019282,35.4294,1,7
1,2,2,0.710795000195503,0.184381318933488,1.52289499994367,35.4294,1,8
1,1,1,0.901679999660701,0.025432882678271,1.70068500004709,31.88646,1,9
1,2,2,0.783490000292659,0.101378545183894,1.21646500006318,31.88646,1,10
1,1,1,0.709084999747574,0.319577806785233,1.3254499998875,28.697814,1,11
1,2,2,0.691229999996722,0.451164938658944,1.3171250000596,28.697814,1,12
1,1,1,0.738539999816567,0.165149154358415,1.33335500024259,25.8280326,1,13
1,2,2,0.759219999890774,0.31575928682131,1.32563500013202,25.8280326,1,14
1,1,1,0.702339999843389,0.055474554246438,1.44699000008404,23.24522934,1,15
1,2,2,0.666555000003427,0.40833120813482,1.45657500019297,23.24522934,1,16
1,2,2,0.717255000025034,0.572237960599613,3.17373999999836,20.920706406,1,17
1,1,1,0.678539999760687,0.42078432344156,1.31215499993414,20.920706406,1,18
1,1,1,0.716024999972433,0.21877643156468,2.44736999971792,18.8286357654,1,19
1,2,2,0.673870000056922,0.529924750447879,1.2596899997443,18.8286357654,1,20
1,1,1,0.624464999884367,0.559505278864778,1.87029500026256,16.94577218886,1,21
1,2,2,1.02257999964058,0.085718334917162,2.76499500032514,16.94577218886,1,22
1,2,2,0.695139999967068,0.266720904040554,2.63361999997869,15.251194969974,1,23
1,1,1,0.956944999750704,0,1.22909500030801,15.251194969974,1,24
1,2,2,0.835360000375658,0.064374778390854,1.31848999997601,13.7260754729766,1,25
1,1,1,0.870034999679774,0.138367708960467,1.21440500020981,13.7260754729766,1,26
1,2,1,0.892555000260472,0,1.12837999965996,12.3534679256789,0,27
1,1,1,1.09308000002056,0,1.21022500004619,13.7260754729766,1,28
1,2,2,1.50631500035524,0.069012401393162,1.27700999984518,13.7260754729766,1,29
1,1,1,1.0351499998942,0.130778032124064,1.80123999994248,12.3534679256789,1,30
1,2,2,0.968679999932647,0.010619240444605,1.43773999996483,12.3534679256789,1,31
1,1,1,0.764680000022054,0.094459367925338,1.32818999979645,11.1181211331111,1,32
1,2,2,1.00308499997482,0.044310428465273,1.24631499964744,11.1181211331111,1,33
1,1,1,0.744915000163019,0.121837774943451,1.13610999984667,10.0063090197999,1,34
1,1,1,1.12637000018731,0.16746924429815,1.21429000003263,10.0063090197999,1,35
1,2,2,0.686180000193417,0.104765642492534,2.10515499999747,9.00567811781995,1,36
1,2,1,1.19134499970824,0.283332111773526,1.20950000034645,9.00567811781995,0,37
1,1,1,0.755200000014156,0.44051337617737,1.25390999997035,10.0063090197999,1,38
1,2,2,0.968444999773055,0.195505581372677,2.30461500026286,10.0063090197999,1,39
1,1,2,1.15105500025675,0.217687074829931,1.5266849999316,9.00567811781995,0,40
1,2,1,0.993305000010878,0.378295230620266,1.28079500002787,10.0063090197999,0,41
1,1,1,0.907145000062883,0.118494866833993,1.50052500003949,11.1181211331111,1,42
1,2,2,1.78529000002891,0.214269516963447,1.27058999985456,11.1181211331111,1,43
1,1,1,0.96421999996528,0.104765642492534,1.16119999997318,10.0063090197999,1,44
1,1,1,0.833360000047833,0.248225370117137,1.39077000040561,10.0063090197999,1,45
1,2,2,0.998465000186116,0,1.40806499961764,9.00567811781995,1,46
1,1,1,1.11881999997422,0.116182758702854,1.37944500008598,9.00567811781995,1,47
1,2,2,1.02877000020817,0.188806033829902,1.45618500001729,8.10511030603796,1,48
1,2,2,0.82505499990657,0.243702657011574,1.21066999994218,8.10511030603796,1,49
1,1,1,0.906169999856502,0.162887143595159,1.33770000003278,7.29459927543416,1,50
1,1,1,0.830844999756664,0.283060567142817,1.17381500033662,7.29459927543416,1,51
1,2,2,0.876219999976456,0.240577433225631,1.24156500026584,6.56513934789075,1,52
1,2,1,1.30824999976903,0.105418878787682,1.75196000002325,6.56513934789075,0,53
1,1,1,0.998670000117272,0.247514741099416,1.23924499982968,7.29459927543416,1,54
1,1,2,0.851925000082701,0.136054421768707,1.23681000014767,7.29459927543416,0,55
1,2,2,0.983609999995679,0.157465851083593,1.44120999984443,8.10511030603796,1,56
1,2,1,0.933720000088215,0.05733250298724,1.7582499999553,8.10511030603796,0,57
1,1,1,1.08254999993369,0.150843988366297,1.36226500011981,9.00567811781995,1,58
1,1,2,0.933484999928623,0.095238095238095,1.18298500031233,9.00567811781995,0,59
1,2,1,0.961790000088513,0.323414679950851,1.54104499984533,10.0063090197999,0,60
1,1,1,0.790500000119209,0.093286462009656,1.91542499978095,11.1181211331111,1,61
1,2,2,0.766749999951571,0.171248881105175,1.26509000035003,11.1181211331111,1,62
1,2,2,0.80885500041768,0.400850100753417,1.31573999999091,10.0063090197999,1,63
1,1,2,0.768215000163764,0.079249356698156,1.61632499983534,10.0063090197999,0,64
1,1,1,0.799004999920726,0.232835408747866,1.21361499978229,11.1181211331111,1,65
1,2,1,0.799580000340939,0.131369311166617,1.11651499988511,11.1181211331111,0,66
1,2,2,0.68644000031054,0.314496226230519,1.16819499991834,12.3534679256789,1,67
1,1,1,0.884219999890774,0.087332303614811,1.24502999987453,12.3534679256789,1,68
1,1,1,1.54960499983281,0.161749839146096,1.24460999993607,11.1181211331111,1,69
1,2,2,0.667265000287443,0.111131356497883,1.31686999974772,11.1181211331111,1,70
1,2,2,0.878539999946952,0.225307731366933,1.14587000012398,10.0063090197999,1,71
1,1,2,1.73576999967918,0,2.16174500016496,10.0063090197999,0,72
1,2,2,0.782424999866635,0.363340276796888,1.30854499991983,11.1181211331111,1,73
1,1,1,1.08868499984965,0.079977406179036,2.36716999998316,11.1181211331111,1,74
1,1,1,1.25694999983534,0.006338178227627,1.28489999985322,10.0063090197999,1,75
1,2,2,0.762120000086725,0.136800065184958,1.22856499999762,10.0063090197999,1,76
1,1,1,1.01169499987736,0.412304918723895,1.25446499977261,9.00567811781995,1,77
1,2,2,0.764179999940097,0.117519172911627,1.5729200001806,9.00567811781995,1,78
1,2,2,0.816039999946952,0.040185361184676,2.4765750002116,8.10511030603796,1,79
1,1,1,0.873329999856651,0.542092760443095,1.59987500030547,8.10511030603796,1,80
1,2,2,1.37270000018179,0.085313058928549,1.69595000008121,7.29459927543416,1,81
1,1,1,0.706220000050962,0.196802387287617,1.15262999990955,7.29459927543416,1,82
1,1,1,0.866080000065267,0.300782509814431,1.27188999997452,6.56513934789075,1,83
1,2,2,0.662200000137091,0.236451751277568,1.59086999995634,6.56513934789075,1,84
1,1,1,0.770419999957085,0.344143573580828,2.4696300001815,5.90862541310167,1,85
1,2,2,0.907474999781698,0.159232698111217,1.14848000044003,5.90862541310167,1,86
1,2,2,1.8035999997519,0.01595397999903,1.6170450001955,5.3177628717915,1,87
1,1,1,0.712520000059158,0.319027080184162,1.07367500010878,5.3177628717915,1,88
1,1,1,0.86623500008136,0.272498980203367,1.57495499961078,4.78598658461235,1,89
1,2,1,0.83886000001803,0.125570335468691,2.18081500008702,4.78598658461235,0,90
1,1,2,0.815694999881089,0.027346884397235,1.40327000012621,5.3177628717915,0,91
1,2,1,0.998705000150949,0.258733935867903,1.30128999985754,5.90862541310167,0,92
1,1,2,0.739250000100583,0,1.24977000011131,6.56513934789075,0,93
1,2,2,0.80034999968484,0.094751689749292,1.23265000013635,7.29459927543416,1,94
1,1,2,1.56756500015035,0,1.9684600001201,7.29459927543416,0,95
1,2,2,0.850405000150204,0.178026569117571,1.51516499975696,8.10511030603796,1,96
2,1,2,1.45351999998093,0.093775879332327,1.79359000001568,48.6,0,1
2,2,2,3.1636399999843,0.693766930357064,1.87379000004148,54,1,2
2,1,1,3.30217999999877,0.137626233035214,1.64909500000067,54,1,3
2,2,1,1.98820499994326,0.224741662206974,1.76797000004444,48.6,0,4
2,2,2,1.54960500000743,0.634560251818321,1.54202500003157,54,1,5
2,1,1,1.91098500002408,0.292995060670512,1.94427500001621,54,1,6
2,1,1,1.56855000002543,0.055474554246438,1.30509999999776,48.6,1,7
2,2,2,1.46293000003789,0.359716178701057,1.62295499996981,48.6,1,8
2,1,2,2.63500499998918,0.07694550233202,1.34922500001267,43.74,0,9
2,2,2,1.54236500000115,0.333964596159865,2.07039000000805,48.6,1,10
2,2,1,1.52306999999564,0.054421768707482,1.31121500005247,48.6,0,11
2,1,2,1.48018500005128,0.646522357952093,1.61466500000097,54,0,12
2,1,2,3.35194500000216,0.567921419072163,1.85775500000454,60,0,13
2,2,2,0.850319999968633,0.706421105675679,2.01104499999201,66.6666666666667,1,14
2,1,1,1.06896000000415,0.587857705712986,1.65299999999115,66.6666666666667,1,15
2,2,1,1.58733000000939,0.143261780201538,1.43193999998039,60,0,16
2,2,2,1.35876999999164,0.680047194773705,1.20886499999324,66.6666666666667,1,17
2,1,1,1.01224999997066,0.055241085422599,1.02009000000544,66.6666666666667,1,18
2,1,1,1.33519000001252,0.542633048362482,1.07686999998987,60,1,19
2,2,2,1.26204000000143,0.670772188123344,1.46852500003297,60,1,20
2,2,2,1.25012499996228,0.819192899573534,2.93537000002107,54,1,21
2,1,1,1.2189350000117,0.652013963026548,1.70036999997683,54,1,22
2,1,1,1.32528000004822,0.738482566599558,2.47571999998763,48.6,1,23
2,2,2,1.20827499998268,0.447766369282945,1.96690500003751,48.6,1,24
2,2,1,1.62274500000058,0.075254687644644,1.25433500000509,43.74,0,25
2,1,2,1.1836900000344,0.583506566984215,1.473004999978,48.6,0,26
2,2,2,1.20198999997228,0.270936226550899,2.08240499999374,54,1,27
2,1,1,2.89662000001408,0.470331849568705,2.45540999999503,54,1,28
2,2,2,1.06893499998841,0.494714259257686,1.46467499999562,48.6,1,29
2,1,2,1.73976500000572,0.143261780201538,1.27782999997726,48.6,0,30
2,2,1,1.24541999999201,0.651198471423724,1.51831999997376,54,0,31
2,1,1,1.23480999999447,0.728449013477441,1.321409999975,60,1,32
2,1,1,1.84591999999247,0.654310317022598,1.18666000000667,60,1,33
2,2,2,1.17683000001125,0.719265310846113,1.32233500003349,54,1,34
2,1,1,1.24862999998732,0.671227079111977,1.45523500000127,54,1,35
2,2,2,1.08798499999102,0.752314783651481,1.86001000000397,48.6,1,36
2,2,1,1.12687000003643,0.40833120813482,1.18358999997145,48.6,0,37
2,1,1,1.85824999999022,0.766394669793692,2.35767500003567,54,1,38
2,2,2,1.17199999996228,0.704238709035908,1.05632000003243,54,1,39
2,1,1,1.68128999997862,0.151866381257611,1.1767000000109,48.6,1,40
2,1,1,1.27689999999711,0.062242359614712,1.26443000003928,48.6,1,41
2,2,2,1.01049999997485,0.760548315702532,1.51539000001503,43.74,1,42
2,1,2,1.10086000000592,0.764662565933112,1.07319999998435,43.74,0,43
2,2,2,0.968585000024177,0.742150464711407,1.1331900000223,48.6,1,44
2,2,1,1.25757999997586,0.690080428027971,1.28737000003457,48.6,0,45
2,1,1,1.32025499996962,0.040311728133826,1.04010500002187,54,1,46
2,2,2,2.88567500002682,0.492751489893772,2.00377999996999,54,1,47
2,1,2,1.08337000000756,0.574273569693137,1.65408000000753,48.6,0,48
2,1,2,1.86734999995679,0.122797608024035,1.33619000000181,54,0,49
2,2,2,1.04589000000851,0.732581965409585,1.35479499999201,60,1,50
2,1,1,1.04869500000495,0.613591983436285,1.22754499997245,60,1,51
2,2,2,1.00308000005316,0.805750542783216,1.38324499997543,54,1,52
2,1,2,0.955269999976736,0.782512983571806,0.894810000027064,54,0,53
2,2,1,0.978079999971669,0.478131069098037,1.15484000003198,60,0,54
2,1,1,0.931255000003148,0.569124888955425,1.56150499999058,66.6666666666667,1,55
2,2,2,1.34136000002036,0.083275784198566,1.16967999999179,66.6666666666667,1,56
2,2,2,1.07151500001783,0.804285887737252,1.25706999999238,60,1,57
2,1,1,2.83559499995317,0.755230870989249,1.4957300000242,60,1,58
2,2,2,0.950789999973495,0.904342172299387,1.63510499999393,54,1,59
2,1,1,1.05090999999084,0.690774623780363,0.999505000014324,54,1,60
2,2,1,0.828264999960084,0.566226603508211,0.921710000024177,48.6,0,61
2,1,1,1.34464000002481,0.117519172911627,2.14066999999341,54,1,62
2,2,2,0.900850000034552,0.659892770150064,1.30746999999974,54,1,63
2,1,2,1.14195000001928,0.210884353741496,1.3845100000035,48.6,0,64
2,1,1,1.35171999997692,0.782737997587638,2.12443999998504,54,1,65
2,2,2,0.867295000003651,0.769417938189943,2.14886499999557,54,1,66
2,1,1,0.792585000046529,0.625338460598264,1.71574499999406,48.6,1,67
2,2,1,1.85775500000454,0,1.15711500000907,48.6,0,68
2,2,2,0.851744999992661,0.790926291183701,1.35116500000004,54,1,69
2,1,2,0.827685000025667,0.780911303225467,1.5335849999683,54,0,70
2,2,2,1.23843500000658,0.984610507788885,1.65055500000017,60,1,71
2,1,1,1.3439800000051,0.058139955138696,1.16471500002081,60,1,72
2,1,2,1.25988999998663,0.410969590123744,2.32503500004532,54,0,73
2,2,2,1.35278499999549,0.797002233424247,1.1313599999994,60,1,74
2,1,2,3.3424750000122,0.147755229432569,1.2877800000133,60,0,75
2,2,2,1.13294499996118,0.881443821753399,1.85367000004044,66.6666666666667,1,76
2,2,2,1.06919999996899,0.900069001182955,1.89244500000495,66.6666666666667,1,77
2,1,1,0.975594999967143,0.713799667829198,1.04947500000708,60,1,78
2,2,1,2.47933999996167,0.408121271600451,1.75826500001131,60,0,79
2,1,1,1.06216000003042,0.75862532868065,1.35634499997832,66.6666666666667,1,80
2,2,2,2.00352000002749,0.931412925745369,1.28419499995653,66.6666666666667,1,81
2,1,1,0.924845000030473,0.859384779224588,1.25823999999557,60,1,82
2,2,2,0.912814999988768,0.94958869991285,3.2888849999872,60,1,83
2,1,1,1.37735500000417,0.122099892437421,1.34636000002502,54,1,84
2,2,2,1.10128000000259,0.829741668270124,1.16053499997361,54,1,85
2,1,1,0.890475000021979,0.603119462566711,1.34959499997785,48.6,1,86
2,2,1,1.51803500001552,0.130354906503717,1.30292499996722,48.6,0,87
2,1,2,1.06836000003386,0.146398525516589,1.52613499999279,54,0,88
2,1,2,0.88718499999959,0.861759900021091,1.46590000001015,60,0,89
2,2,2,1.01955999998609,0.834085609307006,1.16498000000138,66.6666666666667,1,90
2,1,1,0.934274999948684,0.791297906854743,1.09988000005251,66.6666666666667,1,91
2,2,1,1.78514500003075,0.204081632653061,1.57965500000864,60,0,92
2,1,1,1.37480499997037,0.189642160812243,1.54357000003802,66.6666666666667,1,93
2,2,2,1.00102999998489,0.784411385653808,1.04422500001965,66.6666666666667,1,94
2,1,2,1.13377499999478,0.714528634187755,0.96667500003241,60,0,95
2,2,2,0.947025000001304,0.728316222779979,0.993239999981597,66.6666666666667,1,96
3,1,1,1.28897500000038,0.898337044033178,1.87838499999998,48.6,1,1
3,2,1,2.35429999999996,0.208587519811958,2.18931500000053,48.6,0,2
3,2,2,1.11908499999935,0.47262936251796,2.20592500000022,54,1,3
3,1,2,2.61254499999995,0.042196877669869,2.24615500000073,54,0,4
3,2,2,1.14363000000047,0.28619991921691,1.72752499999935,60,1,5
3,1,2,1.20869500000027,0.274111371992434,3.39843999999992,60,0,6
3,1,2,2.10423499999981,0.188806033829902,2.35843000000023,66.6666666666667,0,7
3,2,2,1.07575499999986,0.558351296873751,1.54421000000002,74.0740740740741,1,8
3,1,1,1.02080500000011,0.587604337172577,2.22933999999988,74.0740740740741,1,9
3,2,1,1.84435499999928,0.222531945632538,2.07851500000016,66.6666666666667,0,10
3,2,2,0.943900000000227,0.547945702029175,1.63047999999981,74.0740740740741,1,11
3,1,2,1.24638500000039,0.437251853206199,2.76591499999995,74.0740740740741,0,12
3,1,2,1.10419499999989,0.563349188259554,3.1739150000003,82.3045267489712,0,13
3,2,2,0.868384999999776,0.691662351703526,1.61418000000049,91.4494741655236,1,14
3,2,2,1.29505500000052,0.547040741702188,1.41457499999978,91.4494741655236,1,15
3,1,1,1.22235999999975,0.357824977813801,1.86430999999994,82.3045267489712,1,16
3,2,2,1.03930999999924,0.911915675597869,2.12690500000003,82.3045267489712,1,17
3,1,2,1.18829499999993,0.801717276610056,1.41495500000019,74.0740740740741,0,18
3,1,1,1.69510499999981,0.389409595701185,1.46217000000068,82.3045267489712,1,19
3,2,2,0.788234999999986,0.814684753084831,1.50250499999948,82.3045267489712,1,20
3,2,2,0.805135000000533,0.881737443936472,2.08636500000011,74.0740740740741,1,21
3,1,2,1.755005,0.531196063859323,2.11293000000023,74.0740740740741,0,22
3,1,1,0.97126500000013,0.732661254051492,1.94164999999973,82.3045267489712,1,23
3,2,1,2.06895500000066,0.191861621772586,1.85146499999973,82.3045267489712,0,24
3,2,2,0.818169999999576,0.973804913366128,1.98968000000058,91.4494741655236,1,25
3,1,2,1.0366299999996,0.796632874104686,2.12608000000002,91.4494741655236,0,26
3,2,2,0.734800000000221,1,1.70882499999966,101.610526850582,1,27
3,1,1,0.921164999999746,0.857859893792287,2.12613500000042,101.610526850582,1,28
3,1,1,0.800255000000121,0.905953911480777,1.60541999999987,91.4494741655236,1,29
3,2,2,0.830330000000715,0.978766961385661,1.62062999999942,91.4494741655236,1,30
3,2,2,0.853459999999381,0.936183948783583,1.6140350000005,82.3045267489712,1,31
3,1,1,1.13693999999936,0.783162874883571,1.54026000000071,82.3045267489712,1,32
3,1,1,0.971190000000177,0.916970998321112,1.83840999999939,74.0740740740741,1,33
3,2,2,1.04748500000004,0.902838591426127,1.64659500000015,74.0740740740741,1,34
3,2,2,0.850239999999758,0.946980389364047,1.49172999999975,66.6666666666667,1,35
3,1,1,1.04525000000012,0.958973692937343,2.02833000000013,66.6666666666667,1,36
3,2,2,0.917560000000754,0.860630689229157,1.40534499999922,60,1,37
3,1,1,1.00500499999995,0.825449928711017,1.43203999999969,60,1,38
3,2,2,0.910590000000375,0.889409551912857,1.47351499999972,54,1,39
3,1,1,1.97828000000026,0.234310646955894,1.42269499999925,54,1,40
3,1,1,0.971149999999383,0.666923871562067,1.33438999999996,48.6,1,41
3,2,2,2.70326000000018,0,1.74986499999982,48.6,1,42
3,1,1,1.28948000000039,0.328841791111828,1.36720999999944,43.74,1,43
3,2,2,2.35823499999969,0.176943109484167,2.08006500000012,43.74,1,44
3,2,2,0.971050000000105,0.547711196558719,1.2299099999991,39.366,1,45
3,1,1,1.01206,0.428935743923342,1.34284999999998,39.366,1,46
3,1,2,3.70955500000034,0.131369311166617,1.59015499999985,35.4294,0,47
3,2,1,2.34646499999962,0,1.59827000000043,39.366,0,48
3,2,2,1.65896499999962,0,1.20658999999979,43.74,1,49
3,1,1,0.985004999999597,0.825163136206483,1.74944500000036,43.74,1,50
3,1,1,1.01762500000041,0.599855459262921,1.57367999999947,39.366,1,51
3,2,1,0.932020000000193,0.514618019949781,1.46057000000018,39.366,0,52
3,1,2,1.00258000000031,0.143261780201538,1.62341500000004,43.74,0,53
3,2,1,1.1136649999998,0.334788834871889,1.74997499999974,48.6,0,54
3,1,1,0.990934999999765,0.395633127269749,1.79871499999991,54,1,55
3,2,2,0.846505000000412,0.675790351334589,1.56506999999966,54,1,56
3,1,2,1.22480500000075,0,1.75016499999946,48.6,0,57
3,2,1,1.5735199999999,0,1.15805000000005,54,0,58
3,1,2,0.966300000000047,0,1.57977500000014,60,0,59
3,2,2,1.98721499999921,0,1.49331500000064,66.6666666666667,1,60
3,2,2,1.41937500000041,0.715256981290964,1.24623499999964,66.6666666666667,1,61
3,1,1,0.877015000000014,0.663487727287734,1.37682499999937,60,1,62
3,2,1,1.12069499999966,0.344143573580828,1.71847000000067,60,0,63
3,1,1,0.974324999999197,0.346986014350875,1.49377000000008,66.6666666666667,1,64
3,2,2,1.82060499999986,0.819625724728869,2.67076999999967,66.6666666666667,1,65
3,1,1,0.889785000000265,0.955397881393772,1.24684999999963,60,1,66
3,1,1,0.855094999999972,0.916970998321112,1.31034999999974,60,1,67
3,2,2,1.0058200000003,0.696638330245043,1.44680999999947,54,1,68
3,1,1,0.951460000000312,0.707482993197278,1.37429000000062,54,1,69
3,2,2,1.27412999999977,0.615058800603627,2.8058250000003,48.6,1,70
3,2,2,1.1153450000002,0.846932931230846,1.55771499999985,48.6,1,71
3,1,1,1.04459499999939,0.572237960599613,1.30327000000037,43.74,1,72
3,1,1,0.856409999999451,0.608805059500932,1.35892000000051,43.74,1,73
3,2,2,1.20676999999979,0.365210948294907,1.7826599999998,39.366,1,74
3,1,1,0.881710000000661,0.800369022031431,1.57329500000016,39.366,1,75
3,2,1,2.18854500000004,0.103641781387665,1.64821499999927,35.4294,0,76
3,2,1,1.51601000000024,0.052061888189039,1.42192500000063,39.366,0,77
3,1,1,1.20221000000043,0.813814436093907,1.39854500000004,43.74,1,78
3,2,2,0.785644999999902,0.520399441770672,1.53309500000067,43.74,1,79
3,1,2,1.02551000000036,0.583506566984215,1.30224999999977,39.366,0,80
3,1,1,1.82811500000022,0,1.51113499999978,43.74,1,81
3,2,1,1.65239000000013,0.225872931506602,1.22124499999976,43.74,0,82
3,1,2,0.940435000000405,0.336433059967579,1.44646499999997,48.6,0,83
3,2,2,0.937569999999949,0.640194859402812,1.2802299999994,54,1,84
3,1,2,1.33138000000059,0.346040370308325,1.43890500000003,54,0,85
3,2,1,0.953540000000503,0.604978211142732,1.48606999999983,60,0,86
3,2,1,1.64952499999991,0.01226876531961,1.39904000000015,66.6666666666667,0,87
3,1,1,0.86160000000021,0.871387279759203,1.27052499999991,74.0740740740741,1,88
3,2,2,1.34852499999944,0.783762369994536,1.5094150000005,74.0740740740741,1,89
3,1,1,1.07644000000064,0.818471091262013,1.45430499999935,66.6666666666667,1,90
3,2,2,0.880354999999283,1,1.43080999999982,66.6666666666667,1,91
3,1,1,0.841575000000419,0.954997508279538,1.51834999999939,60,1,92
3,2,2,1.02904000000039,0.928134021502197,1.23099999999977,60,1,93
3,1,1,0.852785000000033,0.961972619476938,1.57860999999952,54,1,94
3,1,1,0.898380000000587,0.944557344363977,1.99768999999925,54,1,95
3,2,2,0.906555000000517,0.910686489725739,1.55916999999946,48.6,1,96
4,1,2,1.36728499999992,0.223480599124796,5.3023300000001,60,0,1
4,2,1,19.60749,0.300103961798631,1.59555499999999,66.6666666666667,0,2
4,2,2,2.33281499999997,0.300626013959363,1.89049000000002,74.0740740740741,1,3
4,1,1,0.963664999999979,0.591395685201459,1.95123000000001,74.0740740740741,1,4
4,2,2,0.761075000000012,1,1.25871499999994,66.6666666666667,1,5
4,1,1,0.996029999999999,0.376338010968494,0.824640000000043,66.6666666666667,1,6
4,2,2,0.565000000000058,1,1.31713999999998,60,1,7
4,1,1,1.18135500000007,0.641346428798456,0.969289999999979,60,1,8
4,1,2,1.080375,0.501536873626405,1.28886999999997,54,0,9
4,2,2,0.614285000000003,1,1.29487499999994,60,1,10
4,2,2,0.76576999999996,0.705957815887964,1.26831000000006,60,1,11
4,1,2,1.70753000000003,0.468669268516166,1.38006000000006,54,0,12
4,2,2,0.537144999999902,1,1.04123500000004,60,1,13
4,1,1,1.60091500000001,0.537551006805441,0.825154999999999,60,1,14
4,1,1,1.26231500000006,0.459635097292096,0.980979999999952,54,1,15
4,2,2,0.561899999999907,1,0.9625,54,1,16
4,2,2,0.711059999999969,1,0.914600000000064,48.6,1,17
4,1,2,1.42329499999995,0.792980713754939,0.982420000000042,48.6,0,18
4,2,2,0.932339999999967,1,0.827859999999986,54,1,19
4,1,1,0.920774999999936,0.504689014362572,1.13218500000006,54,1,20
4,1,2,1.3132099999999,0.844686171331774,1.42262000000005,48.6,0,21
4,2,2,0.944074999999983,0.845880398214192,0.678935000000027,54,1,22
4,2,2,0.75985500000001,1,0.772695000000007,54,1,23
4,1,1,1.18841499999995,0.383771897495562,0.985075000000041,48.6,1,24
4,1,1,1.17725999999995,0.782762995768417,1.19861500000002,48.6,1,25
4,2,2,0.800190000000031,1,1.00486000000002,43.74,1,26
4,1,1,1.88676500000007,0.202007941649974,0.949179999999964,43.74,1,27
4,2,2,1.09487000000002,0.776743943277225,0.664639999999956,39.366,1,28
4,2,2,0.819355000000098,0.608527960352874,1.00511499999993,39.366,1,29
4,1,2,1.03911000000007,0.337253060914119,0.928419999999955,35.4294,0,30
4,1,2,0.834255000000005,0.618956505727949,0.982510000000038,39.366,0,31
4,2,2,0.778759999999893,0.773921528376171,1.00359000000005,43.74,1,32
4,1,1,1.68447500000003,0.453031714238409,1.00559499999997,43.74,1,33
4,2,2,0.526880000000005,1,1.12180000000005,39.366,1,34
4,1,1,1.077995,1,0.839970000000088,39.366,1,35
4,2,2,0.615524999999965,1,1.54510500000004,35.4294,1,36
4,2,1,1.28093000000005,0.55494422106135,0.874829999999958,35.4294,0,37
4,1,2,0.804865000000107,0.506971876685129,0.754199999999953,39.366,0,38
4,1,1,1.08306499999994,0.499342787548622,1.13913500000001,43.74,1,39
4,2,2,0.773079999999958,0.623166708041319,0.717034999999974,43.74,1,40
4,1,2,1.81128000000003,0.353788088393033,0.997844999999972,39.366,0,41
4,2,1,1.14769999999995,0.111313492411828,1.65773999999999,43.74,0,42
4,1,1,0.975975000000035,0.547945702029175,1.12045000000001,48.6,1,43
4,2,2,1.03175499999995,0.69985696051439,2.01650000000006,48.6,1,44
4,1,1,3.65979500000004,0.379891141590153,0.998919999999984,43.74,1,45
4,2,2,0.907385000000068,0.648717725593951,1.05200499999989,43.74,1,46
4,2,2,3.53481999999995,0.521201339792477,0.924544999999984,39.366,1,47
4,1,1,0.88652999999997,0.469009709435887,0.677065000000002,39.366,1,48
4,2,1,2.18064500000002,0.208587519811958,1.55867999999999,35.4294,0,49
4,1,2,1.31165499999997,0.434533202011508,1.16245500000002,39.366,0,50
4,2,2,0.968169999999984,0.542194096886007,0.865775000000023,43.74,1,51
4,1,1,1.31131000000006,0.1892940303601,1.12276999999996,43.74,1,52
4,1,1,1.12514499999996,0.40833120813482,1.02084499999997,39.366,1,53
4,2,2,0.881190000000061,0.731629940964791,1.98866499999998,39.366,1,54
4,2,2,0.688505000000005,1,0.903494999999995,35.4294,1,55
4,1,2,1.01557500000001,1,0.646779999999912,35.4294,0,56
4,2,2,1.50233500000002,0.428733375172789,0.956694999999949,39.366,1,57
4,1,1,1.10298499999999,0.443993383025569,1.32425000000006,39.366,1,58
4,1,2,0.837469999999972,0.703418859324298,0.704435000000114,35.4294,0,59
4,2,2,0.805539999999979,1,0.664369999999937,39.366,1,60
4,2,1,0.8134200000001,0.559373491187153,1.03531499999994,39.366,0,61
4,1,2,1.06715500000009,0.544352381220396,0.556114999999932,43.74,0,62
4,1,1,1.00396999999997,0.595010780382419,1.05535999999993,48.6,1,63
4,2,2,0.986239999999932,1,0.705180000000051,48.6,1,64
4,2,2,1.44344500000001,0.971813909267611,3.96934000000003,43.74,1,65
4,1,2,1.11533999999991,1,3.28066500000004,43.74,0,66
4,2,2,0.803615000000049,1,0.934189999999944,48.6,1,67
4,1,1,0.887609999999986,0.479768385058636,1.11698000000004,48.6,1,68
4,1,2,1.23186499999999,0.849710918010093,0.722169999999984,43.74,0,69
4,2,2,0.760395000000019,1,0.464159999999974,48.6,1,70
4,2,2,0.593900000000081,1,1.32970999999996,48.6,1,71
4,1,1,0.872530000000028,0.450580367008554,0.953380000000005,43.74,1,72
4,2,1,1.75063,0.387056927731984,0.673569999999891,43.74,0,73
4,1,1,0.908374999999942,0.846932931230846,1.34220500000007,48.6,1,74
4,1,2,0.963839999999967,0.724723191220088,0.824169999999984,48.6,0,75
4,2,2,0.64676999999996,1,0.691515000000072,54,1,76
4,1,1,0.92889499999996,1,1.01638500000007,54,1,77
4,2,2,0.610065000000061,1,0.481589999999967,48.6,1,78
4,1,1,1.07175999999989,0.630890705473642,1.15719500000001,48.6,1,79
4,2,2,0.934160000000033,0.713853686608498,0.903194999999949,43.74,1,80
4,1,1,0.786354999999981,1,0.737070000000007,43.74,1,81
4,2,2,0.903670000000042,0.606431010232074,0.795309999999939,39.366,1,82
4,1,1,1.17607500000007,0.61576064541228,0.653679999999993,39.366,1,83
4,2,2,0.609894999999902,1,0.618214999999967,35.4294,1,84
4,1,1,0.897775000000023,0.824589296144754,1.14211499999999,35.4294,1,85
4,2,1,0.880380000000063,0.454427967054444,1.06003999999998,31.88646,0,86
4,1,1,2.15884500000003,0.261318388503753,0.712509999999951,35.4294,1,87
4,2,2,0.577515000000014,1,0.567119999999937,35.4294,1,88
4,2,2,0.646674999999988,0.40833120813482,2.49184500000003,31.88646,1,89
4,1,1,1.02035000000003,0.497068867489464,0.878950000000012,31.88646,1,90
4,2,1,0.932809999999881,0.582837298127596,1.22683000000007,28.697814,0,91
4,1,2,0.531024999999965,0.712366926929436,1.79900000000012,31.88646,0,92
4,2,2,0.567100000000093,1,1.15943499999988,35.4294,1,93
4,1,1,0.922674999999872,1,0.551045000000042,35.4294,1,94
4,1,1,0.77676999999996,1,0.707250000000058,31.88646,1,95
4,2,2,0.631594999999972,1,0.438,31.88646,1,96
5,1,1,0.649,0.946619399981873,1.521,48.6,1,1
5,2,2,0.808,0.885456901893263,3.519,48.6,1,2
5,2,2,1.003,0.158388977217476,1.737,43.74,1,3
5,1,1,0.741,0.980107076137358,1.663,43.74,1,4
5,1,1,0.77,0.722399776122155,1.302,39.366,1,5
5,2,2,0.82,0.884353741496598,1.851,39.366,1,6
5,2,2,2.171,0.673724449948675,1.336,35.4294,1,7
5,1,1,1.319,0,2.307,35.4294,1,8
5,2,2,0.888,0.666780990040986,1.452,31.88646,1,9
5,1,2,1.27,0.280280858233577,1.656,31.88646,0,10
5,2,2,0.806,0.606585397589344,2.685,35.4294,1,11
5,1,1,0.82,0.57294946601175,1.485,35.4294,1,12
5,2,2,0.737,0.917887559429911,1.436,31.88646,1,13
5,1,1,0.788,1,2.752,31.88646,1,14
5,2,2,1.002,0.433811413674088,1.339,28.697814,1,15
5,1,1,0.835,0.631010314045748,1.235,28.697814,1,16
5,1,1,0.804,0.949842835890878,1.472,25.8280326,1,17
5,2,2,0.969,0.899558595030378,1.621,25.8280326,1,18
5,2,2,1.087,0.175783358602186,1.252,23.24522934,1,19
5,1,1,0.96,0,1.513,23.24522934,1,20
5,2,2,0.952,0.655876178006773,1.936,20.920706406,1,21
5,1,2,1.353,0,3.876,20.920706406,0,22
5,2,2,1.722,0.15930928319065,1.7,23.24522934,1,23
5,1,1,0.903,0.853340914594308,2.976,23.24522934,1,24
5,1,1,0.788,1,1.786,20.920706406,1,25
5,2,2,0.938,0.41113668221775,1.471,20.920706406,1,26
5,1,1,0.721,0.942022252434211,1.204,18.8286357654,1,27
5,2,1,2.773,0,1.753,18.8286357654,0,28
5,2,2,0.874,0.729722775974642,1.401,20.920706406,1,29
5,1,2,2.054,0.281427649782657,3.521,20.920706406,0,30
5,1,1,1.089,0.781937699018809,2.52,23.24522934,1,31
5,2,2,2.01,0,1.33,23.24522934,1,32
5,2,2,1.12,0.838433900422147,1.855,20.920706406,1,33
5,1,1,1.123,1,1.806,20.920706406,1,34
5,2,2,0.919,1,1.086,18.8286357654,1,35
5,1,1,1.007,1,1.485,18.8286357654,1,36
5,2,2,1.07,0.092107701213204,1.535,16.94577218886,1,37
5,1,2,2.403,0,1.488,16.94577218886,0,38
5,1,1,0.787,1,1.203,18.8286357654,1,39
5,2,2,1.003,1,1.108,18.8286357654,1,40
5,2,1,2.003,0,1.455,16.94577218886,0,41
5,1,2,1.538,0.299319727891156,1.669,18.8286357654,0,42
5,1,2,1.038,0.960966895229202,2.268,20.920706406,0,43
5,2,2,1.17,0.934144881792552,2.187,23.24522934,1,44
5,2,2,0.82,1,1.252,23.24522934,1,45
5,1,1,0.853,0.535575744983101,1.452,20.920706406,1,46
5,2,2,1.403,0.354160665513138,1.736,20.920706406,1,47
5,1,1,1.588,0.206209295528367,2.652,18.8286357654,1,48
5,1,2,1.238,0,1.387,18.8286357654,0,49
5,2,2,1.119,0.633517837449886,1.385,20.920706406,1,50
5,1,2,1.42,0.883271944661994,1.704,20.920706406,0,51
5,2,2,0.838,1,1.302,23.24522934,1,52
5,1,1,0.858,0.517847840486437,1.315,23.24522934,1,53
5,2,1,1.888,0.076734862470326,1.968,20.920706406,0,54
5,1,1,2.72,0,1.351,23.24522934,1,55
5,2,2,1.053,1,1.136,23.24522934,1,56
5,1,2,2.086,1,1.319,20.920706406,0,57
5,2,2,0.901,1,1.225,23.24522934,1,58
5,2,1,1.31,0.155533499312398,1.25,23.24522934,0,59
5,1,1,1.056,0.563381952013364,3.365,25.8280326,1,60
5,2,2,1.019,0.35304209438388,2.603,25.8280326,1,61
5,1,1,0.987,1,1.141,23.24522934,1,62
5,2,2,0.884,0.743613374559992,2.037,23.24522934,1,63
5,1,1,0.905,0.986578953881911,2.103,20.920706406,1,64
5,2,2,1.021,0.612367459563759,1.707,20.920706406,1,65
5,1,1,0.769,0.97977735016123,2.788,18.8286357654,1,66
5,1,1,0.754,1,1.426,18.8286357654,1,67
5,2,2,0.903,0.831453070796127,1.878,16.94577218886,1,68
5,2,2,0.87,0.574047676336746,2.118,16.94577218886,1,69
5,1,1,0.72,1,1.123,15.251194969974,1,70
5,2,2,0.774,0.966507952962133,1.499,15.251194969974,1,71
5,1,2,2.105,0.075784471836574,1.334,13.7260754729766,0,72
5,1,1,0.937,0.108935449296894,1.403,15.251194969974,1,73
5,2,2,0.87,1,1.385,15.251194969974,1,74
5,1,2,1.568,0.277867920981393,1.177,13.7260754729766,0,75
5,2,2,1.191,0,1.401,15.251194969974,1,76
5,2,1,2.257,0.36127911057548,1.517,15.251194969974,0,77
5,1,1,1.355,0.680300218781279,3.152,16.94577218886,1,78
5,2,2,0.871,1,1.067,16.94577218886,1,79
5,1,1,1.458,0.497972182371738,2.368,15.251194969974,1,80
5,2,2,1.321,0.151630759481814,1.37,15.251194969974,1,81
5,1,1,1.074,0.496634823118695,1.581,13.7260754729766,1,82
5,1,2,1.188,0.217943689963976,1.641,13.7260754729766,0,83
5,2,2,1.037,0.757675142496485,1.121,15.251194969974,1,84
5,2,2,1.174,0.552219851670465,1.434,15.251194969974,1,85
5,1,1,1.27,0.032040273907244,1.569,13.7260754729766,1,86
5,2,2,1.117,0.79468518037343,1.337,13.7260754729766,1,87
5,1,2,1.074,0.353927837558088,1.584,12.3534679256789,0,88
5,2,1,1.124,0.047740486069685,1.504,13.7260754729766,0,89
5,1,2,1.484,1,1.189,15.251194969974,0,90
5,1,2,0.853,0.84690955376833,2.84,16.94577218886,0,91
5,2,2,0.839,0.896179172406243,2.586,18.8286357654,1,92
5,2,2,1.003,0.278966421712312,2.169,18.8286357654,1,93
5,1,1,0.805,1,1.419,16.94577218886,1,94
5,1,2,1.692,0.018841691483057,1.547,16.94577218886,0,95
5,2,2,1.037,0.871569771672446,1.653,18.8286357654,1,96
6,2,2,0.599,0.679006166559943,1.737,48.6,1,1
6,1,1,0.668,0.822266549712555,1.143,48.6,1,2
6,2,2,0.656,1,1.043,43.74,1,3
6,1,1,0.731,1,0.73,43.74,1,4
6,2,2,0.583,1,0.82,39.366,1,5
6,1,1,1.504,0.253456099690598,0.698,39.366,1,6
6,1,1,0.631,0.663918045669416,1.192,35.4294,1,7
6,2,2,1.063,0.79416675787871,0.785,35.4294,1,8
6,2,2,0.557,0.593378327225016,1.021,31.88646,1,9
6,1,1,0.94,0.500098973772536,1.688,31.88646,1,10
6,2,2,0.639,0.806506395886776,0.675,28.697814,1,11
6,1,1,0.84,0.849710918010093,1.261,28.697814,1,12
6,2,1,2.478,0.198772232094958,0.941,25.8280326,0,13
6,1,2,1.428,0.754406038244106,2.088,28.697814,0,14
6,2,2,0.767,1,0.718,31.88646,1,15
6,1,1,0.548,0.074936198552137,0.554,31.88646,1,16
6,1,1,0.592,0.063030557148592,0.738,28.697814,1,17
6,2,2,0.697,1,0.688,28.697814,1,18
6,2,2,0.678,0.44233505217977,1.012,25.8280326,1,19
6,1,2,2.171,0,1.023,25.8280326,0,20
6,2,2,0.74,1,0.608,28.697814,1,21
6,1,1,0.454,0.239065818982808,0.842,28.697814,1,22
6,2,2,2.09,0.585415374698561,0.578,25.8280326,1,23
6,1,1,1.001,0,1.561,25.8280326,1,24
6,2,2,2.561,0,1.425,23.24522934,1,25
6,1,2,1.382,0.524572657763865,0.615,23.24522934,0,26
6,2,2,0.778,0.73027946274752,0.59,25.8280326,1,27
6,1,1,0.454,0.684729595958941,1.314,25.8280326,1,28
6,1,1,1.845,0.290172257492232,0.957,23.24522934,1,29
6,2,2,0.789,0.399699847118106,1.052,23.24522934,1,30
6,1,1,0.913,0.842434288159769,0.67,20.920706406,1,31
6,2,2,0.817,0.922045779076869,0.721,20.920706406,1,32
6,2,2,0.654,0.758086156796914,0.65,18.8286357654,1,33
6,1,1,0.587,0.196802387287617,0.841,18.8286357654,1,34
6,1,1,0.859,0.136800065184958,0.507,16.94577218886,1,35
6,2,2,0.724,0.481883073410549,0.569,16.94577218886,1,36
6,2,2,2.36,0.657554616603141,1.179,15.251194969974,1,37
6,1,1,2.453,0.030578895020162,0.788,15.251194969974,1,38
6,1,1,0.926,0.438606412145798,0.556,13.7260754729766,1,39
6,2,2,0.63,0.823727897284695,0.845,13.7260754729766,1,40
6,1,1,0.805,0.490526971374386,0.778,12.3534679256789,1,41
6,2,2,0.504,0.898337044033178,0.68,12.3534679256789,1,42
6,1,1,2.546,0,0.555,11.1181211331111,1,43
6,2,2,1.48,0.393135118465094,0.432,11.1181211331111,1,44
6,2,2,0.704,0.083275784198566,1.189,10.0063090197999,1,45
6,1,2,0.973,0.7234687868078,0.926,10.0063090197999,0,46
6,1,1,0.716,0.06846564036747,0.498,11.1181211331111,1,47
6,2,1,0.996,0.377895488680398,0.521,11.1181211331111,0,48
6,2,2,0.586,0.925256723379149,0.523,12.3534679256789,1,49
6,1,2,0.598,0.32697405849883,0.411,12.3534679256789,0,50
6,2,1,1.648,0,1.421,13.7260754729766,0,51
6,1,2,2.235,0.55225314000144,0.927,15.251194969974,0,52
6,2,2,0.643,0.652566856176515,0.565,16.94577218886,1,53
6,1,1,0.486,0.114300111175997,0.458,16.94577218886,1,54
6,1,2,0.989,0.504689014362572,0.638,15.251194969974,0,55
6,2,2,0.437,0.632921543214212,0.431,16.94577218886,1,56
6,1,1,0.559,0.087332303614811,0.417,16.94577218886,1,57
6,2,1,0.404,0.180397397837189,0.738,15.251194969974,0,58
6,1,2,1.104,0.681283462571794,0.499,16.94577218886,0,59
6,2,2,0.826,0.810398043842359,0.485,18.8286357654,1,60
6,2,1,0.488,0,0.378,18.8286357654,0,61
6,1,2,1.225,0,0.969,20.920706406,0,62
6,2,2,0.721,0.936805633597253,0.401,23.24522934,1,63
6,1,1,0.621,0.103547894915303,0.388,23.24522934,1,64
6,2,2,0.622,0.748532970356445,0.519,20.920706406,1,65
6,1,2,0.761,0.839093908885231,0.448,20.920706406,0,66
6,2,1,0.482,0.021678729557113,1.583,23.24522934,0,67
6,1,1,0.659,0,0.434,25.8280326,1,68
6,1,1,0.659,0,0.436,25.8280326,1,69
6,2,2,0.677,1,0.453,23.24522934,1,70
6,2,2,0.529,1,0.49,23.24522934,1,71
6,1,2,0.882,1,0.399,20.920706406,0,72
6,2,1,0.444,0,0.408,23.24522934,0,73
6,1,1,0.506,1,0.494,25.8280326,1,74
6,1,1,0.525,1,0.414,25.8280326,1,75
6,2,2,0.433,0.503723514405684,0.43,23.24522934,1,76
6,2,2,0.517,0.74277772196875,0.463,23.24522934,1,77
6,1,1,0.437,0.913756773265922,1.7,20.920706406,1,78
6,1,1,0.627,0.06846564036747,0.86,20.920706406,1,79
6,2,2,0.641,0.68777153760893,0.492,18.8286357654,1,80
6,1,1,1.514,0.191100345813158,0.933,18.8286357654,1,81
6,2,2,0.715,0.818278517495234,0.481,16.94577218886,1,82
6,2,2,0.74,0.965965527118867,0.501,16.94577218886,1,83
6,1,1,0.717,0.301876438875677,0.853,15.251194969974,1,84
6,1,2,0.962,0.711392373988413,0.415,15.251194969974,0,85
6,2,2,0.474,0.790009006257214,0.38,16.94577218886,1,86
6,1,1,1.352,0.629483917250882,0.6,16.94577218886,1,87
6,2,2,0.736,0.781161748789532,0.336,15.251194969974,1,88
6,1,2,0.737,0.647313392964985,0.387,15.251194969974,0,89
6,2,2,0.698,0.758804980994878,0.43,16.94577218886,1,90
6,1,1,0.533,0.172718734822944,0.693,16.94577218886,1,91
6,2,2,1.108,0.731709315917725,0.396,15.251194969974,1,92
6,2,2,0.984,0.797494486836869,0.38,15.251194969974,1,93
6,1,1,0.432,0.161369792857114,0.39,13.7260754729766,1,94
6,2,1,0.415,0.403439905113302,0.377,13.7260754729766,0,95
6,1,2,0.635,1,0.429,15.251194969974,0,96
7,1,1,1.49299999995856,0.763412380047939,4.63400000002002,48.6,1,1
7,2,2,1.20900000003166,0.606369246381407,1.84299999999348,48.6,1,2
7,2,2,1.94900000002235,0.348636513420093,1.73499999998603,43.74,1,3
7,1,1,1.4210000000312,0.336095004464814,1.82499999995343,43.74,1,4
7,1,1,1.3190000000177,0.762824962972404,1.71100000001024,39.366,1,5
7,2,2,2.49499999999534,0.273944862096337,2.11699999996927,39.366,1,6
7,1,1,1.07799999997951,0.712366926929436,1.32199999998556,35.4294,1,7
7,2,2,1.40200000000186,0.158312158111274,2.01000000000931,35.4294,1,8
7,1,1,1.15499999996973,0.645935894646167,1.62200000003213,31.88646,1,9
7,2,2,1.41700000001583,0.058139955138696,2.65399999998044,31.88646,1,10
7,2,1,1.11900000000605,0.417531845622284,1.50599999999395,28.697814,0,11
7,1,1,1.62400000001071,0.27913095018424,2.66899999999441,31.88646,1,12
7,1,2,1.1260000000475,0.597171360733192,1.89699999999721,31.88646,0,13
7,2,1,1.69300000002841,0.030578895020162,1.70699999999488,35.4294,0,14
7,1,2,1.33699999999953,0.340567020528975,1.96700000000419,39.366,0,15
7,2,1,1.34499999997206,0.125570335468691,1.70000000001164,43.74,0,16
7,2,1,1.22999999998137,0.252637873571391,1.99300000001676,48.6,0,17
7,1,1,1.12300000002142,0.612367459563759,2.46299999998882,54,1,18
7,2,2,1.15700000000652,0.92248025601128,1.77799999999115,54,1,19
7,1,1,1.20200000004843,0.91176210571178,1.3979999999865,48.6,1,20
7,2,2,1.17499999998836,0.235229747798374,1.15000000002328,48.6,1,21
7,1,1,0.930999999982305,0.565148943197697,1.20000000001164,43.74,1,22
7,2,2,1.05099999997765,0.171248881105175,1.49900000001071,43.74,1,23
7,1,1,0.902000000001863,0.530921388539558,1.00200000003679,39.366,1,24
7,1,1,1.60300000000279,0.374865240556202,1.23499999998603,39.366,1,25
7,2,2,1.07399999996414,0.625850340136054,1.17700000002515,35.4294,1,26
7,1,1,1.69100000004983,0.722987895330466,1.78299999999581,35.4294,1,27
7,2,2,1.09200000000419,0.278801829042496,1.23499999998603,31.88646,1,28
7,1,1,1.0109999999986,0.564658554974069,1.42800000001444,31.88646,1,29
7,2,1,1.27600000001257,0.307408999819671,1.49199999996927,28.697814,0,30
7,1,2,1.77700000000186,0.201336343963905,2.47599999996601,31.88646,0,31
7,2,2,1.13900000002468,0.381129045215012,1.55900000000838,35.4294,1,32
7,1,1,1.29300000000512,0.538298745644025,1.76899999997113,35.4294,1,33
7,2,2,1.09400000004098,0.388844164072629,1.14299999998184,31.88646,1,34
7,2,1,1.11900000000605,0.7364587010643,1.09399999998277,31.88646,0,35
7,1,1,1.02799999999115,0.511089252719197,1.14999999996508,35.4294,1,36
7,2,2,1.15400000003865,0.613010581946712,1.44399999995949,35.4294,1,37
7,1,1,0.949000000022352,0.490380828291169,1.54199999995762,31.88646,1,38
7,2,2,0.938000000023749,0.360544217687074,1.49499999999534,31.88646,1,39
7,1,1,0.994000000006054,0.199719137741882,1.64699999999721,28.697814,1,40
7,2,2,1.57299999997485,0.450892210177667,1.22899999999208,28.697814,1,41
7,1,1,0.922000000020489,0.547174884788146,1.24499999999534,25.8280326,1,42
7,2,1,1.64500000001863,0.184805294661014,1.73999999999069,25.8280326,0,43
7,1,2,1.3070000000298,0.257522148831623,1.4660000000149,28.697814,0,44
7,2,1,1.03700000001118,0.028430997442369,1.49699999997392,31.88646,0,45
7,1,1,1.01500000001397,0.294743456763956,1.45899999997346,35.4294,1,46
7,1,2,1.08899999997811,0.172278498555114,1.11000000004424,35.4294,0,47
7,2,1,1.10700000001816,0.3132803976664,1.35899999999674,39.366,0,48
7,1,1,0.931000000040513,0.646786124337419,1.6809999999823,43.74,1,49
7,2,2,1.01699999999255,0.542329188829687,1.14900000003399,43.74,1,50
7,1,1,1.08799999998882,0.593598291304726,1.25099999998929,39.366,1,51
7,2,2,0.965000000025611,0.477422710207067,1.55199999996694,39.366,1,52
7,2,1,0.951999999990221,0.273944862096337,1.03100000001723,35.4294,0,53
7,1,1,1.17000000004191,0.527167718489455,1.39100000000326,39.366,1,54
7,1,1,1.08199999999488,0.223480599124796,2.14999999996508,39.366,1,55
7,2,2,1.01800000004005,0.711798572764049,1.36300000001211,35.4294,1,56
7,2,2,1.1710000000312,0.685400340420376,1.15700000000652,35.4294,1,57
7,1,1,1.00500000000466,0.449604799178313,1.64699999999721,31.88646,1,58
7,1,2,1.61699999996927,0.172278498555114,1.125,31.88646,0,59
7,2,2,1.71599999995669,0.476825569415876,1.13400000002002,35.4294,1,60
7,2,1,1.33699999999953,0.190753737013312,1.13699999998789,35.4294,0,61
7,1,1,1.15999999997439,0.696114481269161,1.12699999997858,39.366,1,62
7,2,2,0.98599999997532,0.607942637414531,1.08500000002095,39.366,1,63
7,1,1,1.8859999999986,0.205744978920243,1.35899999999674,35.4294,1,64
7,1,1,1.26499999995576,0.606369246381407,1.28700000001118,35.4294,1,65
7,2,2,0.89000000001397,0.83394349131588,1.50099999998929,31.88646,1,66
7,2,2,1.63000000000466,0.524364616883767,1.15799999999581,31.88646,1,67
7,1,1,1.17200000002049,0.310481825348194,1.18999999994412,28.697814,1,68
7,2,2,1.36500000004889,0.963165729216027,2.08299999998417,28.697814,1,69
7,1,1,1.53600000002189,0.293048145404103,1.25199999997858,25.8280326,1,70
7,1,2,1.32800000003772,0.370015695917571,1.05499999999302,25.8280326,0,71
7,2,1,1.44099999999162,0.112765907864706,1.27799999999115,28.697814,0,72
7,2,2,1.26799999998184,0.56374225303829,1.07700000004843,31.88646,1,73
7,1,1,1.04000000003725,0.016390474975777,1.2609999999986,31.88646,1,74
7,1,2,1.04300000000512,0.38975725526703,1.58899999997811,28.697814,0,75
7,2,2,1.09000000002561,0.505260483779667,1.48599999997532,31.88646,1,76
7,1,1,1.03299999999581,0.219224037610102,1.12099999998463,31.88646,1,77
7,2,2,0.90400000003865,0.642054247134344,1.17399999999907,28.697814,1,78
7,2,1,1.25199999997858,0.124879845634754,1.50199999997858,28.697814,0,79
7,1,2,0.903999999980442,0.356112131180741,1.05100000003586,31.88646,0,80
7,2,2,0.97199999995064,0.912968124520687,1.34000000002561,35.4294,1,81
7,1,1,1.41899999999441,0.372221610780569,1.17700000002515,35.4294,1,82
7,2,2,0.975000000034925,0.516305118190871,1.08699999999953,31.88646,1,83
7,1,1,1.1359999999986,1,1.44899999996414,31.88646,1,84
7,2,2,0.834000000031665,0.485097025898998,3.98499999998603,28.697814,1,85
7,1,1,0.932000000029802,0.66823720058715,1.32299999997485,28.697814,1,86
7,1,1,1.30600000004051,0.404962569395598,1.14100000000326,25.8280326,1,87
7,2,2,0.849999999976717,0.627323854120763,1.02100000000792,25.8280326,1,88
7,2,1,1.16499999997905,0.292198012389645,1.1820000000298,23.24522934,0,89
7,1,2,0.853000000002794,0.511230768928509,1.26899999997113,25.8280326,0,90
7,2,1,0.781000000017229,0.350140705632474,1.17499999998836,28.697814,0,91
7,1,2,0.880000000004657,0.54502545633186,1.10699999995995,31.88646,0,92
7,2,1,0.87400000001071,0.346040370308325,1.05900000000838,35.4294,0,93
7,1,1,1.2039999999688,0.397306327377015,1.25099999998929,39.366,1,94
7,2,2,0.787000000011176,0.716119407764059,1.4320000000298,39.366,1,95
7,1,1,0.777000000001863,0.522141464481629,1.27100000000792,35.4294,1,96
8,1,1,1.14865999999986,0.391275605236832,2.43768999999974,74.0740740740741,1,1
8,2,1,1.40704500000083,0,1.38188999999966,66.6666666666667,0,2
8,1,1,0.936354999999807,1,1.70348000000013,74.0740740740741,1,3
8,2,2,1.04926500000057,0.995150872309757,1.31033000000025,74.0740740740741,1,4
8,2,2,0.945525000000081,0.842481254884348,1.25440999999957,66.6666666666667,1,5
8,1,1,0.886254999999452,0.429582843167657,1.1983250000003,66.6666666666667,1,6
8,2,2,1.51759000000037,0,1.17238999999972,60,1,7
8,1,1,0.922639999999781,0.800393552952097,1.53090500000055,60,1,8
8,1,1,0.897474999999744,0.242443598870919,1.35162500000026,54,1,9
8,2,1,1.40187500000047,0.18740778486907,2.0655399999996,54,0,10
8,2,2,0.906664999999513,0.641198886216267,1.22641000000021,60,1,11
8,1,1,0.905109999999695,0.401360544217687,1.1696750000001,60,1,12
8,2,2,0.933524999999441,0.535814443701998,1.0997950000001,54,1,13
8,1,1,0.773329999999987,0.837891418341595,0.898194999999774,54,1,14
8,1,1,0.854370000000024,0.793277365661147,0.903750000000407,48.6,1,15
8,2,2,0.951334999999759,0.689663632726799,1.49951500000042,48.6,1,16
8,2,1,1.1474049999998,0.414883020211418,1.55072500000009,43.74,0,17
8,1,1,0.857259999999776,0.348306857311148,1.48152500000014,48.6,1,18
8,2,2,1.04240500000026,0.563644007345154,1.54111499999999,48.6,1,19
8,1,1,0.815795000000391,0.676920144163352,1.10157499999972,43.74,1,20
8,2,2,1.31783499999973,0.463043470861373,1.49988500000024,43.74,1,21
8,1,1,0.802340000000084,0.325741227191687,1.23520999999996,39.366,1,22
8,2,2,1.0091650000005,0.536121218749886,1.27503499999968,39.366,1,23
8,1,1,0.94650500000082,0.646023891936012,1.22418999999994,35.4294,1,24
8,2,2,0.867655000000028,0.434372882601263,0.882994999999879,35.4294,1,25
8,1,1,1.42504499999993,0.415877801316491,1.09407999999984,31.88646,1,26
8,2,2,0.918974999999627,0.526614949612151,0.942209999999963,31.88646,1,27
8,1,1,0.846859999999637,0.568962376791565,0.953785000000615,28.697814,1,28
8,2,1,0.934444999999832,0.410342545276516,0.724444999999832,28.697814,0,29
8,1,1,0.865534999999916,0.47783291125492,0.90273000000068,31.88646,1,30
8,1,1,0.801975000000326,0.503508763005153,1.02442499999958,31.88646,1,31
8,2,1,1.26821500000008,0.473493414557725,0.752870000000112,28.697814,0,32
8,2,1,1.67034000000055,0.1892940303601,1.16158999999985,31.88646,0,33
8,1,1,0.740109999999637,0.705112341705267,0.976445000000298,35.4294,1,34
8,1,1,0.924259999999776,0.587604337172577,1.29295000000019,35.4294,1,35
8,2,2,0.808049999999581,0.798625692951194,1.04167000000062,31.88646,1,36
8,1,1,0.791570000000298,0.533868305602497,0.992925000000512,31.88646,1,37
8,2,2,0.8526949999996,0.654310317022598,0.914759999999776,28.697814,1,38
8,2,1,1.1982649999999,0.468707104643742,0.843425000000047,28.697814,0,39
8,1,1,0.833535000000848,0.311093894440894,0.722959999999963,31.88646,1,40
8,2,2,1.12552999999933,0.581975901569339,0.739710000000894,31.88646,1,41
8,1,1,0.834844999999274,0.605596768199683,0.964025000000373,28.697814,1,42
8,1,1,0.815564999999944,0.517322317442807,0.705480000000447,28.697814,1,43
8,2,2,1.12036499999976,0.486899962505203,0.885420000000624,25.8280326,1,44
8,1,1,0.799530000000261,0.661965426319434,1.43381500000041,25.8280326,1,45
8,2,2,0.8679300000004,0.530921388539558,0.703464999999618,23.24522934,1,46
8,1,1,1.434625,0.411512455289233,0.782919999999693,23.24522934,1,47
8,2,1,0.822460000000428,0.378295230620266,0.660284999999916,20.920706406,0,48
8,1,1,1.15248500000057,0.651781050822915,1.08521500000008,23.24522934,1,49
8,2,2,0.860719999999506,0.631817188870027,1.07935000000009,23.24522934,1,50
8,1,1,1.12512500000047,0.620413013674912,0.8860699999996,20.920706406,1,51
8,2,1,1.36520999999996,0.630890705473642,0.936024999999907,20.920706406,0,52
8,1,1,0.968049999999581,0.310022230669203,1.11572500000056,23.24522934,1,53
8,2,1,1.21702000000025,0.499342787548622,0.784545000000391,23.24522934,0,54
8,2,2,0.958340000000084,0.536121218749886,0.88439000000013,25.8280326,1,55
8,1,1,1.08488500000024,0.219990077635226,1.16624499999941,25.8280326,1,56
8,1,1,1.0029299999997,0.684757554498123,1.11304500000016,23.24522934,1,57
8,2,1,1.16040999999945,0.371457365209137,1.07461500000046,23.24522934,0,58
8,1,1,1.42660000000079,0.276987050998897,0.975064999999478,25.8280326,1,59
8,2,2,0.87475,0.878049764735822,1.54295499999984,25.8280326,1,60
8,2,2,0.917470000000205,0.796140169006313,1.015625,23.24522934,1,61
8,1,1,1.01462499999977,0.439361998932778,0.869560000000056,23.24522934,1,62
8,2,2,1.74152000000048,0.847470460559963,0.976719999999739,20.920706406,1,63
8,1,1,1.06399499999941,0.665780112496283,1.35232499999995,20.920706406,1,64
8,2,2,1.76523999999976,0.429623262584197,1.34544500000076,18.8286357654,1,65
8,1,1,1.56645499999914,0.402422433397326,1.05580000000005,18.8286357654,1,66
8,2,2,0.849310000000522,0.222721873266514,0.70690000000014,16.94577218886,1,67
8,1,1,1.05377500000014,0.569124888955425,1.05484499999974,16.94577218886,1,68
8,1,1,1.32927499999921,0.735984917535709,0.931835000000428,15.251194969974,1,69
8,2,2,1.1939700000002,0.815361119795968,1.24047999999952,15.251194969974,1,70
8,2,2,1.41458500000043,0.760369010138864,1.10738500000024,13.7260754729766,1,71
8,1,1,1.13443999999971,0.334788834871889,1.21422500000079,13.7260754729766,1,72
8,2,2,1.37579999999981,0.585510683772744,0.912445000000065,12.3534679256789,1,73
8,1,2,1.3620950000002,0.721195558198892,0.962139999999665,12.3534679256789,0,74
8,2,1,1.8724300000004,0.198975361262615,1.16023999999999,13.7260754729766,0,75
8,1,2,1.55753000000003,0.825163136206483,1.0088600000001,15.251194969974,0,76
8,2,2,1.05017000000039,0.534995698150205,0.672714999999618,16.94577218886,1,77
8,1,1,1.48761999999988,0.61831840711289,0.618949999999953,16.94577218886,1,78
8,1,2,1.30342999999993,0.586082276522322,0.667545000000158,15.251194969974,0,79
8,2,2,1.27556999999983,0.50139322805697,1.16706499999971,16.94577218886,1,80
8,1,2,2.09339500000002,0.16694687174791,1.22559499999974,16.94577218886,0,81
8,2,1,2.01494000000018,0.330995231762394,1.0871649999998,18.8286357654,0,82
8,2,2,1.66698999999976,0.40618608908792,1.04280999999982,20.920706406,1,83
8,1,2,1.08352000000025,0.355369616968722,1.15305999999959,20.920706406,0,84
8,1,2,1.07887999999989,0.387056927731984,1.00637999999989,23.24522934,0,85
8,2,1,1.77045999999973,0.351172181098375,1.04615000000014,25.8280326,0,86
8,1,1,1.05423000000068,0.413844899661626,0.667329999999376,28.697814,1,87
8,2,2,0.722175000000745,0.348306857311148,0.695280000000028,28.697814,1,88
8,1,1,1.29839499999979,0.685875122622324,1.33584499999974,25.8280326,1,89
8,2,2,1.52747999999975,0.285768272163901,1.1053350000002,25.8280326,1,90
8,1,1,1.19139499999979,0.809159308284823,0.923265000000363,23.24522934,1,91
8,2,2,1.15171500000008,0.594383341558712,0.882370000000112,23.24522934,1,92
8,2,2,1.13443000000017,0.497791621289224,0.634404999999795,20.920706406,1,93
8,1,1,0.919670000000158,0.413886461649255,1.24846499999985,20.920706406,1,94
8,2,1,0.967955000000075,0.551053754034011,0.671975000000093,18.8286357654,0,95
8,1,1,0.816880000000354,0.823081344026161,0.907760000000009,20.920706406,1,96
9,2,2,0.58690999999817,0.747364103966149,1.29993499999546,48.6,1,1
9,1,1,0.53087499999674,0.74975215218894,0.903620000004594,48.6,1,2
9,2,2,0.520900000003166,0.961658429023162,0.843865000002552,43.74,1,3
9,1,1,1.27393500000471,0.375758327960433,1.26777500000026,43.74,1,4
9,2,2,0.516350000005332,0.714717524316703,0.759254999997211,39.366,1,5
9,1,1,0.622989999996207,0.728316222779979,0.739540000002307,39.366,1,6
9,1,1,1.13635500000237,0.183744323378443,1.62359499999729,35.4294,1,7
9,2,2,0.521594999998342,0.741496598639455,0.699384999999893,35.4294,1,8
9,2,2,0.548560000002908,0.83711254995206,1.41570499999943,31.88646,1,9
9,1,1,0.749380000001111,0.38451829777726,1.12365999999747,31.88646,1,10
9,2,2,0.554449999995995,0.428611919524282,0.959504999998899,28.697814,1,11
9,1,1,0.661325000000943,0.218264202448625,0.959580000002461,28.697814,1,12
9,2,2,0.499994999998307,0.572593801753392,0.695630000001984,25.8280326,1,13
9,1,1,0.783394999998563,0.53795896616037,0.987520000002405,25.8280326,1,14
9,1,2,0.543624999998428,0.070210336916541,1.00746000000072,23.24522934,0,15
9,2,2,0.561030000004394,0.748714656289949,1.03938000000198,25.8280326,1,16
9,2,2,0.569360000001325,0.402889010071607,1.96340000000055,25.8280326,1,17
9,1,1,0.700375000000349,0.3654841276808,1.24003000000084,23.24522934,1,18
9,1,1,0.814794999998412,0.155998403217534,0.859580000003916,23.24522934,1,19
9,2,2,0.539255000003322,0.755205106433156,0.843739999996615,20.920706406,1,20
9,2,2,0.755030000000261,0.218712442610022,1.03199500000483,20.920706406,1,21
9,1,1,1.00277500000084,0.001450363507458,0.803664999999455,18.8286357654,1,22
9,2,2,0.617979999995441,0.300156194698365,0.695840000000317,18.8286357654,1,23
9,1,1,0.789839999997639,0.226061139128061,0.695240000000922,16.94577218886,1,24
9,2,2,0.713044999996782,0.24495762758474,0.779560000002675,16.94577218886,1,25
9,1,1,0.821384999995644,0.333333333333333,0.819400000000314,15.251194969974,1,26
9,2,2,0.658849999999802,0.088535392540067,0.691450000005716,15.251194969974,1,27
9,1,1,0.780020000005607,0.3605901799205,0.859704999995301,13.7260754729766,1,28
9,2,2,0.545995000000403,0.395246265321499,0.703845000003639,13.7260754729766,1,29
9,1,1,0.573264999999083,0.055474554246438,1.09161999999924,12.3534679256789,1,30
9,2,1,0.737675000003946,0.44233505217977,1.02008999999816,12.3534679256789,0,31
9,1,1,0.75571000000491,0.510239511510584,0.751509999994596,13.7260754729766,1,32
9,1,1,0.753889999999956,0.435734181631698,0.943850000003295,13.7260754729766,1,33
9,2,1,0.631244999996852,0.3605901799205,0.675459999998566,12.3534679256789,0,34
9,2,1,0.810559999998077,0,0.707394999997632,13.7260754729766,0,35
9,1,2,0.612585000002582,0.461322539079578,0.571765000000596,15.251194969974,0,36
9,1,1,0.608084999999846,0.449331352185588,0.639615000000049,16.94577218886,1,37
9,2,2,0.643199999998615,0.511089252719197,0.591834999999264,16.94577218886,1,38
9,1,1,0.630735000006098,0.382540220806792,0.631405000000086,15.251194969974,1,39
9,2,2,0.497284999997646,0.505688755385855,0.591834999999264,15.251194969974,1,40
9,2,2,0.540909999996074,0.52394834039961,0.603575000001001,13.7260754729766,1,41
9,1,1,0.560109999998531,0.422137409329146,0.671519999996235,13.7260754729766,1,42
9,2,1,0.802965000002587,0.163340882583044,0.627155000001949,12.3534679256789,0,43
9,1,1,0.745455000003858,0.035187106507515,0.539794999996957,13.7260754729766,1,44
9,2,2,0.589019999999437,0.306586031541739,0.627659999998286,13.7260754729766,1,45
9,1,1,0.88837500000227,0.10204081632653,0.595479999996314,12.3534679256789,1,46
9,1,2,0.675860000003013,0.122797608024035,0.491479999996955,12.3534679256789,0,47
9,2,1,0.815429999995104,0,0.587635000003502,13.7260754729766,0,48
9,1,1,0.71472999999969,0.421809686243459,0.94376999999804,15.251194969974,1,49
9,2,2,0.726714999997057,0.190545598771233,0.751790000002075,15.251194969974,1,50
9,1,1,0.851490000000922,0.389887569112668,0.663480000002892,13.7260754729766,1,51
9,2,1,0.902444999999716,0.38451829777726,0.70376500000566,13.7260754729766,0,52
9,2,2,0.573989999997139,0.504689014362572,0.52355499999976,15.251194969974,1,53
9,1,1,0.641094999999041,0.485980742769339,0.543205000001763,15.251194969974,1,54
9,2,1,0.82050000000163,0.546940117268482,0.575454999998328,13.7260754729766,0,55
9,1,1,0.676080000004731,0.57294946601175,0.711524999998801,15.251194969974,1,56
9,1,2,0.57182499999908,0.130354906503717,0.531954999998561,15.251194969974,0,57
9,2,1,0.71112500000163,0.397306327377015,0.775614999998652,16.94577218886,0,58
9,2,1,0.851194999995641,0.483030167497222,0.607525000006717,18.8286357654,0,59
9,1,2,0.600015000003623,0,1.07574499999464,20.920706406,0,60
9,1,1,0.780659999996715,0.57903305446203,0.527545000004466,23.24522934,1,61
9,2,2,0.919909999996889,0.510522881370698,0.507485000001907,23.24522934,1,62
9,2,1,0.958384999998088,0.632921543214212,0.523984999999811,20.920706406,0,63
9,1,1,0.794600000001083,0.606955797549576,0.527689999995346,23.24522934,1,64
9,2,1,0.867635000002338,0.496743361825478,1.1394949999958,23.24522934,0,65
9,1,1,0.672615000003134,0.510204081632653,0.571479999998701,25.8280326,1,66
9,1,1,0.795949999999721,0.639721930474116,0.639490000001388,25.8280326,1,67
9,2,2,0.673855000000913,0.639455782312925,0.567654999998922,23.24522934,1,68
9,2,2,0.54146999999648,0.673469387755102,0.635164999999688,23.24522934,1,69
9,1,1,0.6880799999999,0.634113674053557,1.08783499999845,20.920706406,1,70
9,2,2,0.664769999995769,0.211145900170277,1.35955000000104,20.920706406,1,71
9,1,1,0.814860000005865,0.580282028077187,1.01581499999884,18.8286357654,1,72
9,1,1,0.678090000001248,0.687074829931972,0.875395000002754,18.8286357654,1,73
9,2,1,0.750794999999925,0.654948631378462,0.931624999997439,16.94577218886,0,74
9,2,2,0.683485000001383,0.197346931974149,1.31167999999889,18.8286357654,1,75
9,1,1,0.77086500000587,0.682966299755863,0.8278599999976,18.8286357654,1,76
9,1,1,0.8512400000036,0.605720418276697,0.815589999998338,16.94577218886,1,77
9,2,2,0.695299999999406,0.285498271875677,0.727754999999888,16.94577218886,1,78
9,1,2,0.59823999999935,0.118937161971344,1.24354999999923,15.251194969974,0,79
9,2,2,0.643749999995634,0.437929527577999,1.28766999999789,16.94577218886,1,80
9,1,1,0.795095000001311,0.637797710514405,1.08748999999807,16.94577218886,1,81
9,2,1,0.689539999999397,0.430027299902783,0.939815000005183,15.251194969974,0,82
9,1,1,0.792414999996254,0.116450592551645,1.21974500000215,16.94577218886,1,83
9,2,2,0.879670000002079,0.501536873626405,0.907415000001492,16.94577218886,1,84
9,1,1,0.871390000000247,0.617405908623048,0.823750000003201,15.251194969974,1,85
9,2,2,0.571094999999332,0.531470627295034,1.02759000000515,15.251194969974,1,86
9,1,2,0.826854999999341,0.606924937875094,0.867830000002868,13.7260754729766,0,87
9,2,1,0.902739999997721,0.671482843626961,0.931530000001658,15.251194969974,0,88
9,2,2,0.588790000001609,0.751901118228973,1.20773500000359,16.94577218886,1,89
9,1,1,0.644359999998414,0.416002024450091,1.20754000000306,16.94577218886,1,90
9,2,1,0.866075000005367,0.631727577618491,0.859449999996286,15.251194969974,0,91
9,1,1,0.868239999996149,0.739532093270261,0.835534999998345,16.94577218886,1,92
9,1,2,1.09560999999667,0.459635097292096,1.24341999999888,16.94577218886,0,93
9,2,2,1.01658499999758,0.548648741283678,0.916444999995292,18.8286357654,1,94
9,1,1,0.739184999998542,0.266212146350283,1.25134499999689,18.8286357654,1,95
9,2,2,0.994774999999208,0.455318311210356,0.935790000003297,16.94577218886,1,96
10,2,1,1.19672999999602,1,1.59178000000247,60,0,1
10,1,1,0.772600000003877,1,0.710894999996526,66.6666666666667,1,2
10,1,1,0.744504999995115,0.998095270543227,0.860144999998738,66.6666666666667,1,3
10,2,2,0.919444999999541,0.990770963944022,0.818325000000186,60,1,4
10,1,1,0.855869999999413,0.967571172499895,1.1145749999996,60,1,5
10,2,1,2.97350999999617,0.654919628169356,1.34277999999904,54,0,6
10,1,1,0.834179999998014,0.986087164128893,0.968975000003411,60,1,7
10,2,1,0.803879999999481,0.905821533199626,1.0561699999962,60,0,8
10,2,2,0.814179999993939,0.880381561666076,0.849070000003849,66.6666666666667,1,9
10,1,1,0.721695000000182,1,1.87453999999707,66.6666666666667,1,10
10,2,2,0.975129999998899,0.557030130481609,1.03463999999803,60,1,11
10,1,1,0.97821500000282,1,1.77807999999641,60,1,12
10,1,1,0.760115000004589,1,0.737535000000207,54,1,13
10,2,1,1.05500500000198,0.559933418143624,0.988174999998591,54,0,14
10,2,1,1.43159000000014,0.714879397033501,1.39297000000079,60,0,15
10,1,1,1.21110499999486,1,1.81261500000255,66.6666666666667,1,16
10,1,1,0.781490000001213,1,2.21570000000065,66.6666666666667,1,17
10,2,2,0.944219999997586,0.603119462566711,0.879005000002508,60,1,18
10,1,1,0.937859999998182,1,1.30075500000385,60,1,19
10,2,1,0.839899999999034,0.779557722163309,1.55357999999978,54,0,20
10,2,1,2.16341999999713,0.542329188829687,0.968610000003537,60,0,21
10,1,1,0.722529999999097,1,1.15052499999729,66.6666666666667,1,22
10,1,1,1.69082499999786,0.527133183795653,0.918585000006715,66.6666666666667,1,23
10,2,2,1.29020999999921,0.372221610780569,1.16456000000471,60,1,24
10,2,2,0.979070000001229,1,1.61101000000053,60,1,25
10,1,1,0.772020000003977,1,1.49477499999921,54,1,26
10,1,1,0.806394999999611,0.974219259226852,0.784090000001015,54,1,27
10,2,2,1.06784499999776,0.545865875214849,0.770015000001877,48.6,1,28
10,2,2,0.868379999999888,0.379891141590153,0.793935000001511,48.6,1,29
10,1,1,0.752605000001495,0.811004679591307,1.33699000000342,43.74,1,30
10,2,2,0.871749999998428,0.966320220189113,0.829649999999674,43.74,1,31
10,1,1,0.854095000002417,1,0.76900499999465,39.366,1,32
10,2,2,1.01229500000045,0.3767389511273,1.17132500000298,39.366,1,33
10,1,1,0.827740000000631,0.993034327797767,1.96757000000071,35.4294,1,34
10,2,1,1.55751499999315,0.404962569395598,1.0474250000043,35.4294,0,35
10,1,1,0.936280000001716,0.943301189606479,1.17955000000075,39.366,1,36
10,1,1,0.774404999996477,1,0.843390000001818,39.366,1,37
10,2,2,1.06924499999877,0.876416602977666,1.05504999999539,35.4294,1,38
10,1,1,0.820614999996906,0.897603425038327,1.47538999999961,35.4294,1,39
10,2,1,1.07004500000039,0.75182353466933,1.08183000000281,31.88646,0,40
10,2,2,1.05654499999946,0.80996102694955,1.21520500000042,35.4294,1,41
10,1,1,0.842069999998785,0.889924973786122,2.23346499999752,35.4294,1,42
10,1,1,0.862394999996468,0.991219917506106,1.04359000000113,31.88646,1,43
10,2,2,0.942969999996421,0.358748405600701,0.987095000004047,31.88646,1,44
10,2,1,1.00417000000016,0.782837986260333,1.08200000000215,28.697814,0,45
10,1,1,0.767045000000508,0.973639131966524,0.807079999998678,31.88646,1,46
10,2,1,0.726010000005772,0.855174146127526,0.791404999996303,31.88646,0,47
10,1,1,1.01172499999666,0.9533101226119,1.23777500000142,35.4294,1,48
10,2,1,0.835769999997865,0.1442305829389,1.93420500000502,35.4294,0,49
10,1,1,0.818820000000414,0.952887870182724,1.25082000000111,39.366,1,50
10,2,2,0.853284999997413,0.734799339757915,0.952660000002652,39.366,1,51
10,1,1,0.889660000000731,0.960547572908157,1.6657600000035,35.4294,1,52
10,1,1,0.839915000004112,1,1.19671999999991,35.4294,1,53
10,2,2,1.25360499999806,0.450580367008554,0.999855000001844,31.88646,1,54
10,1,1,0.94117499999993,0.637679142036599,0.921484999998938,31.88646,1,55
10,2,2,1.15342999999848,0.246565218540454,0.916539999998349,28.697814,1,56
10,2,1,0.885760000004666,0.409212069803359,0.834644999995362,28.697814,0,57
10,1,1,0.814164999996137,0.765044931738931,1.07595500000025,31.88646,1,58
10,2,1,1.33779499999946,0.339704703427706,0.880105000003823,31.88646,0,59
10,1,1,0.789124999995693,0.968508462686769,1.61439000000246,35.4294,1,60
10,2,2,1.30647999999928,0.303071472559792,0.973770000004151,35.4294,1,61
10,1,2,1.35553999999684,0,1.73300500000187,31.88646,0,62
10,2,2,1.45042500000272,0,1.65047500000219,35.4294,1,63
10,1,1,1.31883499999822,0.793499792913956,1.3058050000036,35.4294,1,64
10,2,2,1.3506750000015,0.021678729557113,1.08620499999961,31.88646,1,65
10,1,1,0.93739999999525,0.778729555040492,1.40383500000462,31.88646,1,66
10,1,2,1.12791500000458,0.016535707671564,1.13291999999637,28.697814,0,67
10,2,1,0.992584999999963,0,0.928789999998116,31.88646,0,68
10,2,1,1.55327500000567,0.406859968730256,0.933594999994966,35.4294,0,69
10,1,1,0.851730000002135,0.937384121974378,1.7228449999966,39.366,1,70
10,2,2,1.08613000000332,0.273611642585414,0.960109999999986,39.366,1,71
10,1,2,2.04012000000512,0.142938116157823,0.764219999997295,35.4294,0,72
10,2,2,1.85508000000118,0.55970291402933,1.34941499999695,39.366,1,73
10,1,1,1.26242999999522,1,1.3469000000041,39.366,1,74
10,2,1,0.825830000001588,0.963312162741432,1.38364999999612,35.4294,0,75
10,1,1,1.74844999999914,0.627413977689709,0.788814999999886,39.366,1,76
10,2,1,1.10344999999506,0.281809225442547,0.713885000004666,39.366,0,77
10,1,1,1.00828999999794,1,1.40758500000084,43.74,1,78
10,2,2,1.09453999999823,0.468063571785767,1.08435499999905,43.74,1,79
10,1,1,0.80538499999966,0.983768769178784,1.56749000000127,39.366,1,80
10,1,1,1.0947050000031,0.958973692937343,1.15913999999617,39.366,1,81
10,2,1,1.46835999999894,0.222215179999965,0.664644999997225,35.4294,0,82
10,1,1,0.986745000001974,0.515462109518906,0.906934999999008,39.366,1,83
10,2,2,0.860799999994924,1,1.00530000000435,39.366,1,84
10,1,1,0.920395000001066,1,1.31326999999862,35.4294,1,85
10,2,1,1.02766500000143,0.692521438531088,0.747599999995087,35.4294,0,86
10,2,2,0.999235000003013,0.79468518037343,1.12165999999701,39.366,1,87
10,1,1,0.721870000001159,0.916490578394383,1.03270000000345,39.366,1,88
10,1,1,0.783190000001923,0.950350930611441,0.864040000000386,35.4294,1,89
10,2,2,0.84624499999336,0.799460929029811,0.94262500000326,35.4294,1,90
10,2,2,1.22819500000332,0.871501341052466,0.993409999995492,31.88646,1,91
10,1,2,1.64428500000201,0.924454892922731,0.932304999994813,31.88646,0,92
10,1,2,1.30094000000111,0.560591585136528,0.904600000001607,35.4294,0,93
10,2,1,2.37209499999881,0.306586031541739,1.0678899999985,39.366,0,94
10,1,2,1.92914000000025,1,0.967140000000712,43.74,0,95
10,2,1,1.15893499999936,0.204014932897468,0.950125000003027,48.6,0,96
11,2,2,1.14338500000304,0.614936674282586,2.38749499997357,48.6,1,1
11,1,1,0.859074999985751,0.737536922862162,2.94139500003075,48.6,1,2
11,2,1,1.64607499999693,0.094751689749292,1.43279500002973,43.74,0,3
11,1,1,1.01389000000199,0.867272495481966,2.17622500000289,48.6,1,4
11,2,2,2.3532600000035,0,1.53422000003047,48.6,1,5
11,1,1,1.56512500002282,0.077471220961927,1.72840500000166,43.74,1,6
11,1,2,1.80942000000505,0,1.63506000000052,43.74,0,7
11,2,2,0.954694999963976,0.636344003443611,1.23193000000902,48.6,1,8
11,1,1,1.20636000001105,0.064486403457526,1.24254499998642,48.6,1,9
11,2,2,0.941185000003316,0.393566639556906,1.15507000003709,43.74,1,10
11,1,1,0.921239999996033,0.75821456031779,2.6687099999981,43.74,1,11
11,2,2,1.00497999996878,0.20461476977203,1.04697000002488,39.366,1,12
11,2,2,0.927445000037551,0.329430066876456,1.00767999998061,39.366,1,13
11,1,1,0.933909999963362,0.578263380110097,1.34639000002062,35.4294,1,14
11,1,1,1.02948000002652,0.293419557682284,1.06452499999432,35.4294,1,15
11,2,2,1.09612000000197,0.149264089164406,1.06459500000346,31.88646,1,16
11,1,1,1.19740500004264,0.125138987803975,1.03844999999274,31.88646,1,17
11,2,1,1.12910499999998,0,1.0975600000238,28.697814,0,18
11,1,1,0.896665000007488,0.498333151997179,1.01550000003772,31.88646,1,19
11,2,2,0.813655000005383,0.529202124366175,1.33598499995423,31.88646,1,20
11,2,2,0.847354999976233,0.487744461233049,1.04480000003241,28.697814,1,21
11,1,2,0.932449999963865,0.110310123345964,0.94183000002522,28.697814,0,22
11,1,1,0.957924999995157,0.276104328984022,1.05353999999352,31.88646,1,23
11,2,1,1.56242999999085,0,0.944394999998622,31.88646,0,24
11,1,1,0.979564999986906,0.749155739491483,1.51814000000013,35.4294,1,25
11,2,2,0.894005000009201,0.488441238537152,1.03285999997752,35.4294,1,26
11,1,1,0.851534999965224,0.465140216911682,0.933960000053048,31.88646,1,27
11,2,1,1.28158499998972,0,1.41301499999827,31.88646,0,28
11,2,1,1.20217000000412,0.074829931972789,0.964169999992009,35.4294,0,29
11,1,1,1.60874999995576,0,1.54758000001311,39.366,1,30
11,1,1,1.12971999996807,0.03609450936008,1.64727499999572,39.366,1,31
11,2,2,1.82632999995258,0,1.05162000004202,35.4294,1,32
11,2,2,0.996870000031777,0.695424707557115,1.76581499999156,35.4294,1,33
11,1,1,1.51208999997471,0,1.27850500005297,31.88646,1,34
11,1,1,0.836164999986067,0.807115516776571,0.94995000003837,31.88646,1,35
11,2,2,0.831225000030827,0.911103695611663,1.27715499995975,28.697814,1,36
11,1,1,0.936669999966398,0.209901827550045,1.02140999998664,28.697814,1,37
11,2,2,0.847415000025649,0.58959724186743,1.05494499998167,25.8280326,1,38
11,1,1,1.27700499998173,0.077471220961927,1.10834500001511,25.8280326,1,39
11,2,2,1.0158400000073,0,1.33074000000488,23.24522934,1,40
11,2,2,0.83545499999309,0.637797710514405,1.69683000002988,23.24522934,1,41
11,1,2,0.9404649999924,0.299319727891156,0.861039999988861,20.920706406,0,42
11,2,2,1.31234999996377,0.033620704368338,1.16598500002874,23.24522934,1,43
11,1,1,1.1119549999712,0.173597370057496,1.04238000005716,23.24522934,1,44
11,1,2,0.825989999982994,0.097655367750526,0.974474999995437,20.920706406,0,45
11,2,2,0.923209999979008,0.049552865628992,1.04565000004368,23.24522934,1,46
11,1,2,0.952734999998938,0.178026569117571,0.900384999986272,23.24522934,0,47
11,2,2,0.842520000005607,0.431841952666478,0.979285000008531,25.8280326,1,48
11,1,1,1.11758499999996,0.720552621890315,1.27221500000451,25.8280326,1,49
11,2,2,0.819405000016559,0.839400190636808,1.16120999999112,23.24522934,1,50
11,2,2,0.827084999997169,0.47484341739602,1.12579499999993,23.24522934,1,51
11,1,1,0.719364999968093,0.685009138861295,0.95167500001844,20.920706406,1,52
11,1,1,1.40305000002263,0,0.963690000004135,20.920706406,1,53
11,2,2,0.806310000014491,0.727891156462585,1.13097500003641,18.8286357654,1,54
11,1,2,1.42677000002004,0,1.13213499996345,18.8286357654,0,55
11,2,2,1.14882000000216,0.374552295777045,0.847060000000056,20.920706406,1,56
11,1,1,1.34869999997318,0,1.11560499999905,20.920706406,1,57
11,2,1,1.12980000005336,0.204814485419881,2.08313499996439,18.8286357654,0,58
11,1,1,1.16398499999195,0.088435374149659,1.11785000003874,20.920706406,1,59
11,2,2,0.816414999950211,0.088435374149659,1.02727000002051,20.920706406,1,60
11,1,1,0.898660000006203,0.1442305829389,1.14166500000283,18.8286357654,1,61
11,2,2,1.04256999999052,0.108935449296894,1.02514500002144,18.8286357654,1,62
11,2,2,1.06426499999361,0,1.12846000003628,16.94577218886,1,63
11,1,2,0.931404999981169,0,0.942580000031739,16.94577218886,0,64
11,2,2,0.721699999994598,0.899381003864578,1.23216000001412,18.8286357654,1,65
11,1,1,0.764204999955837,0.840718467860325,1.84017999999924,18.8286357654,1,66
11,2,2,0.678284999972675,0.85092239013421,1.23518999997759,16.94577218886,1,67
11,1,1,0.727935000031721,0.606585397589344,1.36760999995749,16.94577218886,1,68
11,2,2,0.797045000013895,0.7364587010643,1.17158000002382,15.251194969974,1,69
11,1,1,0.960554999997839,0.605565852488439,1.07990000001155,15.251194969974,1,70
11,2,2,1.33389000000898,0.108014815164432,1.36206000001403,13.7260754729766,1,71
11,1,2,1.17624499998055,0.010015000369008,0.914014999987558,13.7260754729766,0,72
11,1,1,1.06467000005068,0.217366048840101,0.941074999980628,15.251194969974,1,73
11,2,2,1.21478000003844,0,1.00576999998884,15.251194969974,1,74
11,1,1,0.896279999986291,0.408834729875929,0.890835000027437,13.7260754729766,1,75
11,2,2,1.31553999998141,0.015808214825722,1.18914999999106,13.7260754729766,1,76
11,1,2,1.1604599999846,0,1.05188500002259,12.3534679256789,0,77
11,2,2,1.08788999996614,0.027210884353741,1.34188000002177,13.7260754729766,1,78
11,2,2,0.936125000007451,0,1.47065999999177,13.7260754729766,1,79
11,1,2,0.862335000012536,0.035187106507515,0.983294999983627,12.3534679256789,0,80
11,2,1,1.25017999997362,0.011070863931765,0.894020000007004,13.7260754729766,0,81
11,1,2,0.841054999968037,0.006957248609151,0.971575000032317,15.251194969974,0,82
11,1,2,0.916550000023562,0,0.973794999998063,16.94577218886,0,83
11,2,2,1.15965499996673,0,0.822180000017397,18.8286357654,1,84
11,1,2,0.996675000002142,0.210949758474716,0.754570000048261,18.8286357654,0,85
11,2,2,0.922339999990072,0.292995060670512,0.888319999969099,20.920706406,1,86
11,2,1,1.01029000000563,0.016390474975777,1.03467999998247,20.920706406,0,87
11,1,2,0.873339999991003,0,0.859174999990501,23.24522934,0,88
11,2,1,0.990130000049248,0.029239600553381,0.910089999961201,25.8280326,0,89
11,1,2,0.836134999990463,0,1.07394500001101,28.697814,0,90
11,2,2,0.951839999994263,0,0.869104999990668,31.88646,1,91
11,1,1,1.54693500004942,0,0.855229999986477,31.88646,1,92
11,1,1,1.04753999999957,0.377006072776674,0.982290000014473,28.697814,1,93
11,2,2,0.948320000024978,0.137378638422394,0.782305000000633,28.697814,1,94
11,2,1,1.22437999997055,0,0.949324999994133,25.8280326,0,95
11,1,1,1.30372000002535,0,1.02896999998484,28.697814,1,96
12,1,1,1.02391499999794,0.867730521096479,1.85283499999787,48.6,1,1
12,2,2,1.26124500000151,0.757983420802549,1.94054500001948,48.6,1,2
12,2,1,1.13854499999434,0.543172910774351,1.46774500000174,43.74,0,3
12,1,1,1.80082999999286,0.383771897495562,1.30554500001017,48.6,1,4
12,2,2,1.37133499997435,0.325741227191687,1.13066500000423,48.6,1,5
12,1,1,1.29599499999313,0.078623409470744,1.53725000002305,43.74,1,6
12,1,1,1.48733499998343,0.305193844900003,1.71354000002611,43.74,1,7
12,2,2,1.14075000002049,0.070101712142837,1.27799999999115,39.366,1,8
12,1,1,0.991625000024214,0.2628611578571,0.963544999976875,39.366,1,9
12,2,2,2.17279000001145,0.519107393599677,1.45420999999624,35.4294,1,10
12,1,1,1.51812499997322,0.334546559442795,1.40741500002332,35.4294,1,11
12,2,1,1.04445999997552,0.051705437361565,0.973745000024792,31.88646,0,12
12,1,2,2.2535799999896,0.548782572499202,1.54904499999247,35.4294,0,13
12,2,2,2.46975000001839,0,1.01582999998936,39.366,1,14
12,2,2,2.12871000001905,0,1.47266499997932,39.366,1,15
12,1,2,2.01616999998805,0,1.58766499999911,35.4294,0,16
12,2,2,1.03895499999635,1,1.86642000000575,39.366,1,17
12,1,1,0.773710000008577,0.779532637114693,0.862499999988358,39.366,1,18
12,1,2,1.33574999999837,0.25781100197625,0.802835000009509,35.4294,0,19
12,2,2,3.13625499999034,0.944259405089522,1.58499500001199,39.366,1,20
12,1,1,2.31270999999833,0.429946515238663,1.07428999998956,39.366,1,21
12,2,2,2.04003999999259,0.666780990040986,1.20095999998739,35.4294,1,22
12,1,2,1.18529500000295,0.317521750086765,1.09966999999597,35.4294,0,23
12,2,2,2.88966499999515,0.500854271683461,1.2436699999962,39.366,1,24
12,1,2,2.25546000001486,0.074510820526128,0.844955000007758,39.366,0,25
12,2,2,1.73649999999907,0.390408506048054,0.914380000001984,43.74,1,26
12,2,2,1.82896000001347,0.06846564036747,1.09666499999003,43.74,1,27
12,1,2,1.71054000000004,0.304728820397169,0.800125000008848,39.366,0,28
12,1,2,1.60370999999577,0.340901950954041,1.12045499999658,43.74,0,29
12,2,1,2.30116999999154,0.013753257594848,1.10316500000772,48.6,0,30
12,1,1,2.06878999999026,0.467305605346698,0.833790000004228,54,1,31
12,2,2,1.78512000001501,0.083275784198566,1.48624999998719,54,1,32
12,1,2,2.56891499998164,0.858414666284304,1.3009149999998,48.6,0,33
12,2,2,1.50454000002355,0.953732212448671,0.998164999997243,54,1,34
12,2,2,1.13420500000939,0.844123682214075,0.761499999993248,54,1,35
12,1,1,1.28050000002258,0.871866251032401,0.861459999985527,48.6,1,36
12,2,2,1.37700000000768,1,1.09491499999422,48.6,1,37
12,1,1,1.83337500001653,0.855475494582449,1.41674499999499,43.74,1,38
12,2,2,1.54654000001028,0.770862515084651,0.899999999994179,43.74,1,39
12,1,1,1.75204000002122,0.084500339688005,0.865624999976717,39.366,1,40
12,1,1,1.53637499999604,0.719265310846113,0.998124999983702,39.366,1,41
12,2,2,1.33687500000815,0.670772188123344,1.50941500000772,35.4294,1,42
12,2,2,1.23462499998277,0.786131575022224,0.985039999999572,35.4294,1,43
12,1,1,1.52496000000974,0,0.903584999992745,31.88646,1,44
12,2,1,1.51013000000967,0,1.02340999999433,31.88646,0,45
12,1,2,1.63558500001091,0.096787958555218,1.45408500000485,35.4294,0,46
12,1,2,1.6682950000104,0,0.891830000007758,39.366,0,47
12,2,1,2.56400000001304,0.298062052329219,1.55353999999352,43.74,0,48
12,2,1,2.10354499999085,0.790529738056553,1.16683000000194,48.6,0,49
12,1,1,2.00278999999864,1,1.16633499998716,54,1,50
12,2,2,1.75049999999464,0.848474624867856,0.868164999992587,54,1,51
12,1,1,1.27391499999794,0.999230385504726,1.61371000000509,48.6,1,52
12,1,2,1.57508499998949,0,1.98687500000233,48.6,0,53
12,2,2,1.58908499998506,0.981795404513336,1.23362500002258,54,1,54
12,1,1,2.0001700000139,1,1.1676649999863,54,1,55
12,2,1,2.50104000000283,0,1.252290000004,48.6,0,56
12,2,2,1.47591500001727,0.58744593719673,1.00891999999294,54,1,57
12,1,1,1.44542000000365,1,1.47316500000306,54,1,58
12,1,1,1.55141500002355,1,1.66533499999787,48.6,1,59
12,2,2,1.89412499999162,0.076207376708906,1.02296000000206,48.6,1,60
12,2,1,1.41883000000962,0.775913239855903,1.23746000000392,43.74,0,61
12,1,1,1.30257999998867,0.986087164128893,1.08738000001176,48.6,1,62
12,2,1,1.38608500000555,0.989361727569113,1.52078999998048,48.6,0,63
12,1,1,1.26250000001164,1,1.26582999998936,54,1,64
12,2,1,1.69167000000016,0.9533101226119,1.04886999999871,54,0,65
12,1,1,1.39625499999966,0.998906182097907,1.17320499999914,60,1,66
12,1,1,1.138334999996,1,1.45371000000159,60,1,67
12,2,1,0.927579999988666,0.971315602323755,1.37875000000349,54,0,68
12,1,1,1.2096700000111,1,1.19637499999953,60,1,69
12,2,1,1.49695999998949,0.922914555825027,1.80516499999794,60,0,70
12,1,1,1.2035400000168,1,1.11866499998723,66.6666666666667,1,71
12,2,1,1.47279500000877,0.896001003533623,1.48895499997889,66.6666666666667,0,72
12,1,1,1.10016500001075,0.99533384977633,1.23403999998118,74.0740740740741,1,73
12,2,1,1.05191499998909,1,1.29975000000559,74.0740740740741,0,74
12,2,1,1.02641500000027,0.992708355420813,1.10837500001071,82.3045267489712,0,75
12,1,1,0.954460000008112,1,1.84828999999445,91.4494741655236,1,76
12,1,1,0.819250000000466,1,1.40883500000928,91.4494741655236,1,77
12,2,1,0.913789999991423,0.514723590399704,1.44112500001211,82.3045267489712,0,78
12,1,1,1.03246000001673,0.99612641245261,1.1750400000019,91.4494741655236,1,79
12,2,2,0.683919999981299,0.937576882603305,1.18399499999941,91.4494741655236,1,80
12,1,1,1.88649999999325,1,1.57125000000815,82.3045267489712,1,81
12,2,2,0.996790000004694,0.846348328927122,0.863125000003492,82.3045267489712,1,82
12,1,2,2.23441500001354,0.435374149659863,0.889874999993481,74.0740740740741,0,83
12,2,2,1.21875,1,1.29850000000442,82.3045267489712,1,84
12,2,2,1.85316500000772,0.923674154953252,1.28549999999814,82.3045267489712,1,85
12,1,1,1.10678999999072,1,1.06046000000788,74.0740740740741,1,86
12,2,2,1.1517950000125,1,1.78624499999569,74.0740740740741,1,87
12,1,1,1.06345499999588,0.992708355420813,1.16520499999751,66.6666666666667,1,88
12,1,1,2.40149499999825,0.22831218682187,0.717420000000857,66.6666666666667,1,89
12,2,2,1.23654000001261,0.895310310342021,1.48220999998739,60,1,90
12,1,1,1.00207999997656,1,1.16733500000555,60,1,91
12,2,2,2.00800000000163,0,0.728584999975283,54,1,92
12,1,1,1.26937500000349,0.827335863184058,0.999790000001667,54,1,93
12,2,1,1.72221499998705,0,0.889665000024252,48.6,0,94
12,2,2,0.985834999999497,0.953795511912197,1.18628999998327,54,1,95
12,1,2,2.78779000000213,0,1.01537499998813,54,0,96
13,2,2,1.335,0,1.726,66.6666666666667,1,1
13,1,2,1.871,0,1.008,66.6666666666667,0,2
13,1,2,1.123,0.55795520847476,3.017,74.0740740740741,0,3
13,2,2,1.549,0.52394834039961,1.043,82.3045267489712,1,4
13,1,1,1.78399999999997,0.558648216407987,1.928,82.3045267489712,1,5
13,2,2,0.97,0.531847969584348,1.012,74.0740740740741,1,6
13,1,1,1.167,0.864152396481458,2.602,74.0740740740741,1,7
13,2,2,0.983999999999971,0.795918367346938,1.387,66.6666666666667,1,8
13,2,2,1.279,0.622713484147449,2.117,66.6666666666667,1,9
13,1,1,1.08,0.966737360994777,3.458,60,1,10
13,1,1,1.276,0.912639346961919,2.306,60,1,11
13,2,2,1.231,0.578744522785094,1.582,54,1,12
13,2,1,1.99199999999997,0.517567613569646,2.878,54,0,13
13,1,1,1.641,0.968071159009201,1.646,60,1,14
13,2,2,1.705,0.953141241161841,2.416,60,1,15
13,1,1,0.994,0.953141241161841,2.284,54,1,16
13,2,2,1.139,0.959708449842367,2.054,54,1,17
13,1,1,1.347,1,2.71000000000003,48.6,1,18
13,2,2,2.094,0.310277618595398,1.705,48.6,1,19
13,1,1,1.418,1,1.78500000000003,43.74,1,20
13,1,1,1.513,0.225370574223792,1.907,43.74,1,21
13,2,2,2.48399999999997,0.215175438556211,0.92,39.366,1,22
13,1,1,1.252,0.946109564189259,2.24,39.366,1,23
13,2,2,1.57899999999997,0.946937926231335,1.392,35.4294,1,24
13,2,1,1.16200000000003,0.217943689963976,1.77599999999997,35.4294,0,25
13,1,2,1.523,0.69398815706106,1.4,39.366,0,26
13,2,2,2.234,0.797494486836869,2.682,43.74,1,27
13,1,1,1.105,0.544217687074829,1.57,43.74,1,28
13,2,2,1.365,0.945769541010276,2.038,39.366,1,29
13,1,1,0.947,1,2.699,39.366,1,30
13,1,2,1.07,0.954913200596175,5.838,35.4294,0,31
13,2,2,1.19199999999994,0.968404358372406,1.088,39.366,1,32
13,2,1,2.685,0,1.37,39.366,0,33
13,1,1,1.66,0,1.48500000000006,43.74,1,34
13,1,2,1.418,0.258733935867903,1.428,43.74,0,35
13,2,2,1.484,1,2.469,48.6,1,36
13,1,1,1.302,0.9932176461574,2.334,48.6,1,37
13,2,1,1.29600000000006,1,3.00699999999994,43.74,0,38
13,2,2,1.303,1,2.04500000000006,48.6,1,39
13,1,1,1.051,0.99718230558524,2.212,48.6,1,40
13,1,2,1.276,1,2.042,43.74,0,41
13,2,1,1.908,0.086627589026299,1.429,48.6,0,42
13,1,2,1.618,0.959267654480469,1.653,54,0,43
13,2,2,1.74400000000006,0.945578231292516,1.959,60,1,44
13,2,2,1.312,0.979921617190475,1.707,60,1,45
13,1,2,2.862,0.968071159009201,2.004,54,0,46
13,2,2,1.544,0.952571074046472,1.771,60,1,47
13,1,1,1.64699999999994,0.952402078640205,1.431,60,1,48
13,1,2,1.737,0.006957248609151,1.428,54,0,49
13,2,2,1.332,0.949165008521344,1.238,60,1,50
13,2,2,1.18399999999994,0.995232199260134,2.245,60,1,51
13,1,2,1.096,1,1.553,54,0,52
13,2,2,1.147,0.986722352227908,1.44,60,1,53
13,1,1,1.115,1,1.965,60,1,54
13,1,2,1.172,0.994500047355977,1.39600000000006,54,0,55
13,2,2,2.462,0.972726893901189,2.201,60,1,56
13,2,2,1.23,0.986476515344061,1.827,60,1,57
13,1,1,1.01,1,1.325,54,1,58
13,2,1,2.82599999999994,0,1.19,54,0,59
13,1,2,2.74399999999994,0.034013605442176,1.177,60,0,60
13,1,2,1.438,0.065266102595623,1.24,66.6666666666667,0,61
13,2,2,1.427,1,1.836,74.0740740740741,1,62
13,1,1,1.127,0.980333706597307,1.794,74.0740740740741,1,63
13,2,2,1.40500000000006,0.283332111773526,1.24899999999994,66.6666666666667,1,64
13,2,2,1.38599999999994,0,2.332,66.6666666666667,1,65
13,1,2,1.24699999999994,0,1.626,60,0,66
13,1,2,1.523,0.574047676336746,1.417,66.6666666666667,0,67
13,2,2,1.212,1,2.291,74.0740740740741,1,68
13,2,2,1.243,1,2.27700000000006,74.0740740740741,1,69
13,1,1,0.876,0.91638136165908,2.794,66.6666666666667,1,70
13,2,2,1.021,1,1.622,66.6666666666667,1,71
13,1,1,0.826000000000058,1,2.31399999999994,60,1,72
13,1,1,1.01799999999994,0.980148285077355,2.62800000000006,60,1,73
13,2,2,0.957,1,2.16099999999994,54,1,74
13,2,2,1.28499999999994,1,1.744,54,1,75
13,1,1,0.877,1,2.473,48.6,1,76
13,2,1,2.394,0,2.33600000000012,48.6,0,77
13,1,1,1.56400000000012,0.79505530671461,1.601,54,1,78
13,1,1,1.108,1,2.33700000000012,54,1,79
13,2,1,1.501,0.014195869124016,1.535,48.6,0,80
13,1,1,1.45999999999988,0.905137312364715,1.509,54,1,81
13,2,2,1.354,0.895533164794132,1.458,54,1,82
13,1,2,1.631,1,2.038,48.6,0,83
13,2,2,2.395,0.999068295306867,1.487,54,1,84
13,2,2,1.932,0.99301395726486,1.697,54,1,85
13,1,1,0.962,0.930701909466675,1.25400000000012,48.6,1,86
13,1,1,1.165,0.957755015845261,1.947,48.6,1,87
13,2,1,1.296,0.789512800823641,1.364,43.74,0,88
13,1,1,1.601,0,2.618,48.6,1,89
13,2,1,1.246,0,0.847,48.6,0,90
13,1,1,1.875,0,0.911999999999884,54,1,91
13,2,1,1.518,0,0.819,54,0,92
13,2,1,1.02499999999988,0,0.919,60,0,93
13,1,1,2.031,0,1.171,66.6666666666667,1,94
13,1,1,1.31699999999988,0,1.758,66.6666666666667,1,95
13,2,2,1.4,0,0.941000000000116,60,1,96
14,1,1,0.759065000000192,0.959855342473585,2.25107500000013,48.6,1,1
14,2,2,0.723624999999636,0.847353631179796,1.59867500000018,48.6,1,2
14,2,2,0.778820000000444,1,0.912239999999671,43.74,1,3
14,1,1,0.814804999999964,0.991403529109408,1.12586499999999,43.74,1,4
14,2,2,0.666769999999815,1,0.979530000000523,39.366,1,5
14,1,1,0.68587999999999,0.999129081827152,1.05839000000014,39.366,1,6
14,2,2,0.705624999999593,0.97328676473435,0.980059999999867,35.4294,1,7
14,1,1,0.708335000000268,0.97328676473435,0.585895000000164,35.4294,1,8
14,2,2,0.692124999999563,0.584366150470354,1.0471400000006,31.88646,1,9
14,1,1,0.688670000000464,0.949927534749911,0.833769999999276,31.88646,1,10
14,2,2,0.925460000000399,0.715149117030071,1.2835100000002,28.697814,1,11
14,1,1,0.926719999999477,1,0.833365000000413,28.697814,1,12
14,1,2,1.22259500000018,0.473606027712064,1.86848499999996,25.8280326,0,13
14,2,2,0.791339999999764,0.741836669308243,0.912135000000475,28.697814,1,14
14,1,1,0.663204999999827,0.921937132142756,1.18208500000037,28.697814,1,15
14,2,2,1.1350849999999,0.649097637132257,0.911974999999977,25.8280326,1,16
14,1,2,0.857624999999651,0.408121271600451,1.41841999999995,25.8280326,0,17
14,2,2,0.772614999999874,0.689330046186526,1.01300999999966,28.697814,1,18
14,1,1,0.685104999999545,0.306997703873889,0.912349999999598,28.697814,1,19
14,2,2,0.506190000000061,0.560854679574149,0.619729999999428,25.8280326,1,20
14,1,1,0.580734999999549,0.748403172013826,1.11477999999988,25.8280326,1,21
14,2,2,0.83054499999978,0.513067701224007,1.21582500000024,23.24522934,1,22
14,1,1,0.741265000000567,0.465938887668853,1.58713499999978,23.24522934,1,23
14,2,2,0.75082500000007,0.681620304795162,0.866785000000149,20.920706406,1,24
14,1,2,0.773785000000295,0.591395685201459,1.11456999999975,20.920706406,0,25
14,2,1,0.67806999999992,0.482882273518231,0.844449999999604,23.24522934,0,26
14,2,1,1.74630499999967,0.243523042752732,1.08089500000005,25.8280326,0,27
14,1,2,0.70335999999952,0.162887143595159,2.53194000000076,28.697814,0,28
14,1,1,1.16846999999962,0.054890365357124,1.29532000000018,31.88646,1,29
14,2,2,0.694900000000402,0.646991215073131,0.698494999999646,31.88646,1,30
14,2,1,0.681784999999771,0.55434710069763,1.18216500000018,28.697814,0,31
14,1,1,1.04682000000047,0.161369792857114,0.78855500000008,31.88646,1,32
14,2,2,0.601685000000551,0.473530954561866,0.9684499999994,31.88646,1,33
14,1,1,0.838365000000515,0.853155082748742,1.59800499999983,28.697814,1,34
14,2,2,1.06742000000033,0.594163611777538,0.743459999999672,28.697814,1,35
14,1,1,0.694354999999632,0.793302082410112,1.35112500000015,25.8280326,1,36
14,1,1,0.650059999999939,0.618956505727949,0.766055000000051,25.8280326,1,37
14,2,1,1.89127000000008,0.867180865434758,1.22748000000048,23.24522934,0,38
14,2,2,0.605994999999908,0.481549651383871,0.821979999999719,25.8280326,1,39
14,1,1,0.717964999999822,0.873916429471204,1.28290500000003,25.8280326,1,40
14,2,1,0.754920000000304,0.746740080584257,0.822200000000536,23.24522934,0,41
14,1,2,1.97643500000049,0.636462775054132,1.01354999999967,25.8280326,0,42
14,1,1,0.946669999999373,0.873916429471204,0.991115000000718,28.697814,1,43
14,2,1,0.957875000000058,0.738377545184808,0.731999999999971,28.697814,0,44
14,1,1,0.757289999999542,0.855382781670154,0.957215000000375,31.88646,1,45
14,2,2,0.719709999999381,0.838834672766109,1.30628500000059,31.88646,1,46
14,1,1,0.783550000000105,0.775711744073511,0.777294999999867,28.697814,1,47
14,2,1,1.81798000000071,0.654223234550617,1.03493999999957,28.697814,0,48
14,1,1,1.40066000000027,0.853689255903672,0.990934999999794,31.88646,1,49
14,2,2,0.598135000000184,0.547845209433921,0.945945000000385,31.88646,1,50
14,1,1,0.648340000000608,0.513349849788118,1.01328000000014,28.697814,1,51
14,2,1,0.775835000000428,0.779833612687192,0.743894999999553,28.697814,0,52
14,1,2,1.54985500000021,0.047740486069685,1.12606000000052,31.88646,0,53
14,2,1,0.680319999999483,0.194889567001534,1.21619999999984,35.4294,0,54
14,2,1,1.36057499999966,0.013753257594848,1.19373499999987,39.366,0,55
14,1,2,1.00114500000014,0.14025376934265,1.08042999999999,43.74,0,56
14,1,1,0.754224999999627,0.121312759713572,0.900889999999898,48.6,1,57
14,2,1,2.2181700000001,0,1.30583000000025,48.6,0,58
14,1,2,1.13933999999973,0,0.979599999999686,54,0,59
14,2,2,0.831905000000028,0,0.743300000000105,60,1,60
14,1,2,0.883439999999595,0,0.721160000000091,60,0,61
14,2,1,0.753670000000042,0.080909989161884,0.788295000000333,66.6666666666667,0,62
14,2,2,0.782659999999858,0,0.731455000000075,74.0740740740741,1,63
14,1,1,1.02324000000046,0,0.934629999999714,74.0740740740741,1,64
14,1,1,0.635430000000284,0.418315808806539,1.12590499999985,66.6666666666667,1,65
14,2,2,0.968065000000002,1,1.21569999999972,66.6666666666667,1,66
14,1,1,0.856230000000272,0.83394349131588,1.05834999999939,60,1,67
14,2,2,0.877844999999972,1,0.799689999999828,60,1,68
14,1,1,0.795409999999742,1,0.777265000000596,54,1,69
14,2,2,0.789555000000284,0.845107828007188,0.990869999999588,54,1,70
14,2,2,0.865974999999744,1,0.821710000000137,48.6,1,71
14,1,1,1.00287000000023,0.787027801885272,0.923739999999292,48.6,1,72
14,1,1,0.961229999999865,0.844194010883575,0.799755000000005,43.74,1,73
14,2,2,1.90981499999994,0.209901827550045,0.754574999999953,43.74,1,74
14,1,1,0.966424999999581,0.564625850340136,0.935155000000144,39.366,1,75
14,2,2,0.739955000000016,0.860353954058545,1.12632500000019,39.366,1,76
14,1,1,0.968785000000033,0.268468475043019,0.79949000000034,35.4294,1,77
14,2,2,0.967030000000726,0.84306815016406,0.967794999999576,35.4294,1,78
14,1,1,1.16934500000026,0.185440231619419,1.01328999999986,31.88646,1,79
14,2,2,0.89970999999973,0.726614710675943,0.777210000000196,31.88646,1,80
14,1,2,1.01800499999989,0.385482662284288,0.732315000000177,28.697814,0,81
14,2,2,0.673214999999793,0.659344926177302,1.08110500000021,31.88646,1,82
14,2,1,0.96818000000075,0.198094260847392,0.754934999999939,31.88646,0,83
14,1,1,0.758300000000396,0,1.02490500000026,35.4294,1,84
14,2,2,0.686494999999937,0,0.844520000000542,35.4294,1,85
14,1,1,0.697524999999558,0,0.686964999999909,31.88646,1,86
14,1,2,0.583660000000265,0.010619240444605,0.687065000000061,31.88646,0,87
14,2,1,1.1044899999997,0,0.97978000000061,35.4294,0,88
14,1,1,1.35074499999976,0.009256324999985,0.800234999999695,39.366,1,89
14,2,1,1.79771499999973,0,0.765815000000643,39.366,0,90
14,1,1,1.43846000000025,0,0.709104999999923,43.74,1,91
14,2,2,0.866984999999637,0.04664473846509,0.743215000000433,43.74,1,92
14,1,2,0.997030000000435,0.138120767728753,1.08064500000002,39.366,0,93
14,2,1,0.763365000000689,0,0.822839999999851,43.74,0,94
14,2,2,0.885164999999688,0.14358507852282,0.766100000000792,48.6,1,95
14,1,1,1.24672499999998,0,0.675965000000317,48.6,1,96
15,1,1,0.826034999918193,1,1.34889000002295,48.6,1,1
15,2,1,1.40503500006162,1,0.986544999992475,48.6,0,2
15,2,2,0.67801499995403,1,0.700109999976121,54,1,3
15,1,1,1.14030500000808,1,0.755480000050738,54,1,4
15,1,2,0.756300000008196,1,0.935799999977462,48.6,0,5
15,2,2,0.673695000004955,1,0.836100000073202,54,1,6
15,1,1,0.737770000007004,1,0.952129999990575,54,1,7
15,2,2,0.760185000021011,1,0.604414999950677,48.6,1,8
15,2,2,0.860970000037923,1,0.808025000034831,48.6,1,9
15,1,1,0.921919999993406,1,0.785265000071377,43.74,1,10
15,2,2,0.640294999931939,1,0.719080000068061,43.74,1,11
15,1,2,0.957454999908805,1,0.607520000077784,39.366,0,12
15,1,1,0.575105000054464,1,0.599769999971613,43.74,1,13
15,2,2,0.722629999974743,1,0.669585000025108,43.74,1,14
15,2,2,0.727139999973588,1,0.532040000078268,39.366,1,15
15,1,1,0.673769999993965,1,0.623655000003055,39.366,1,16
15,2,2,1.09675999998581,0.815804364065548,3.36198000004515,35.4294,1,17
15,1,1,0.658720000064932,0.653257723283239,1.29921999992803,35.4294,1,18
15,1,2,2.28807999996934,1,0.733325000037439,31.88646,0,19
15,2,2,0.760089999996126,1,0.750230000005104,35.4294,1,20
15,1,1,0.678899999940768,1,0.802205000072718,35.4294,1,21
15,2,2,0.725174999912269,1,0.55257000005804,31.88646,1,22
15,2,1,0.881934999953955,0.884037433837797,0.500030000112019,31.88646,0,23
15,1,2,0.909219999914058,0.636140862024906,0.649350000079721,35.4294,0,24
15,2,2,0.707094999961555,0.756429651434474,1.18469000002369,39.366,1,25
15,1,1,1.05394500005059,0.750466285753944,0.76961499999743,39.366,1,26
15,1,2,0.673624999937601,0.777125311946512,0.653225000016391,35.4294,0,27
15,2,1,2.07933500001673,0.208453184069473,0.781770000001416,39.366,0,28
15,2,2,0.70918000000529,0.985188274654254,1.13356500002556,43.74,1,29
15,1,1,0.681024999939837,1,1.05962000007275,43.74,1,30
15,1,2,0.814209999982268,1,0.575539999990724,39.366,0,31
15,2,2,0.741410000016913,1,0.557644999935292,43.74,1,32
15,2,2,1.0937200000044,1,1.6376450000098,43.74,1,33
15,1,1,0.801334999967366,1,3.30999000009615,39.366,1,34
15,1,1,0.837570000090636,1,1.21898499992676,39.366,1,35
15,2,2,0.841035000048578,1,0.649309999891557,35.4294,1,36
15,2,2,0.72707000002265,1,0.646959999925457,35.4294,1,37
15,1,1,0.709470000001602,1,0.514960000058636,31.88646,1,38
15,2,2,0.540770000079647,1,0.466109999921173,31.88646,1,39
15,1,1,0.676095000002533,1,0.514614999992773,28.697814,1,40
15,1,1,0.986619999981485,0.625108304784535,1.01845000009052,28.697814,1,41
15,2,2,0.772899999981746,1,0.701505000004545,25.8280326,1,42
15,1,1,1.79385000001639,0.175882101520153,1.08504499995615,25.8280326,1,43
15,2,2,0.905629999935627,0.443297455515556,1.10262000001967,23.24522934,1,44
15,1,1,0.754900000058115,0.701298873458984,1.26806999999098,23.24522934,1,45
15,2,2,0.843485000077635,0.609794393529463,0.866904999944381,20.920706406,1,46
15,1,1,0.848219999927096,0.562416749912205,2.42713500000536,20.920706406,1,47
15,2,2,0.622289999970235,0.869235048094026,0.884545000037178,18.8286357654,1,48
15,2,2,0.73999500006903,0,3.47547999990638,18.8286357654,1,49
15,1,1,2.05861000006553,1,0.696830000029877,16.94577218886,1,50
15,2,2,0.606920000049286,0.935213404612421,0.685399999958463,16.94577218886,1,51
15,1,2,0.909954999922775,1,0.847280000103638,15.251194969974,0,52
15,2,2,0.658070000004955,1,0.585169999976642,16.94577218886,1,53
15,1,2,2.35600499995053,0.199689417692529,1.61608499998692,16.94577218886,0,54
15,2,2,0.822814999963157,0.55846216153777,0.920320000033826,18.8286357654,1,55
15,1,2,0.707664999994449,0.692836031173625,0.821490000002086,18.8286357654,0,56
15,2,2,1.15945999999531,0.23200673945225,0.770030000014231,20.920706406,1,57
15,1,2,0.73862000007648,0.730108783209161,1.24082999990787,20.920706406,0,58
15,1,2,0.691980000003241,0.192756327518828,0.599589999997988,23.24522934,0,59
15,2,2,0.689880000078119,0.806120254549414,0.78429999994114,25.8280326,1,60
15,2,2,0.641089999931864,0.90254115713319,0.715250000008382,25.8280326,1,61
15,1,2,0.721965000033379,0.83029725314279,0.818169999984093,23.24522934,0,62
15,1,2,0.679089999990538,0.551425785278083,1.41210499999579,25.8280326,0,63
15,2,2,0.642465000040829,0.725447250648159,0.822449999977835,28.697814,1,64
15,2,2,0.844700000016019,0.668452839941083,0.6999599999981,28.697814,1,65
15,1,1,0.822080000070855,0.620078263066571,0.768019999959506,25.8280326,1,66
15,2,2,0.677785000065342,0.659805140239707,0.698504999978468,25.8280326,1,67
15,1,2,0.657925000065006,0.838461252442331,0.685180000029504,23.24522934,0,68
15,2,2,0.693769999896176,0.790389912910141,0.786750000086613,25.8280326,1,69
15,1,2,0.725044999970123,0.732898020056054,0.716235000058077,25.8280326,0,70
15,1,2,0.790720000048168,0.707748529966601,0.889629999990575,28.697814,0,71
15,2,2,1.07921499991789,0.778608027938211,1.08546000008937,31.88646,1,72
15,2,2,0.775125000043772,0.814243891381789,1.01717999996617,31.88646,1,73
15,1,2,1.00696999998763,0.793696473438678,0.833510000025854,28.697814,0,74
15,2,2,0.724780000047758,0.803683746259338,0.883589999983087,31.88646,1,75
15,1,2,0.705375000019558,0.860952528474317,0.900825000018813,31.88646,0,76
15,1,2,0.677600000053644,0.638395021744956,0.683474999968894,35.4294,0,77
15,2,2,0.722964999964461,0.647370785418625,0.701540000038221,39.366,1,78
15,2,2,0.676444999990053,0.784001060888588,1.08272499998566,39.366,1,79
15,1,1,1.07362999999896,0.686348516798367,0.733409999986179,35.4294,1,80
15,1,1,0.762065000017174,1,1.19207499991171,35.4294,1,81
15,2,2,1.38903500000015,0.262585034010135,1.23651000007521,31.88646,1,82
15,2,2,0.690335000050254,1,0.733754999935627,31.88646,1,83
15,1,1,0.623699999996461,0.948528314984774,0.587780000059865,28.697814,1,84
15,1,2,0.611434999969788,1,0.932750000036322,28.697814,0,85
15,2,2,0.555290000047535,1,0.571349999983795,31.88646,1,86
15,1,1,0.803134999936447,0.905494045782352,0.737659999984317,31.88646,1,87
15,2,2,0.673719999962486,0.887744100880157,0.634435000014491,28.697814,1,88
15,1,1,0.698315000045113,0.710941538045905,0.753640000009909,28.697814,1,89
15,2,2,0.676430000108667,0.990574184620875,0.81520999991335,25.8280326,1,90
15,2,2,0.745430000009947,0.762353732394557,0.718525000032969,25.8280326,1,91
15,1,1,0.638329999987036,0.66719127801783,0.586725000059232,23.24522934,1,92
15,2,2,1.04131500003859,0.806559039352841,0.598215000005439,23.24522934,1,93
15,1,1,0.723490000003949,0.806559039352841,0.817385000060312,20.920706406,1,94
15,1,2,0.695750000071712,1,1.14760999998543,20.920706406,0,95
15,2,1,0.772824999992736,0.74938294193952,0.934379999991506,23.24522934,0,96
16,2,2,0.827,0.266042419786359,1.361,48.6,1,1
16,1,1,0.821,0.872481739236074,1.939,48.6,1,2
16,2,2,0.803,0.96588205343561,1.766,43.74,1,3
16,1,1,0.985,0.884916726381597,1.186,43.74,1,4
16,1,1,1.484,0,1.759,39.366,1,5
16,2,2,0.817,0.895310310342021,1.336,39.366,1,6
16,2,1,3.269,0,1.626,35.4294,0,7
16,1,1,0.954,0.883429777722237,1.124,39.366,1,8
16,2,2,1.307,0,1.733,39.366,1,9
16,1,1,0.969,0,1.328,35.4294,1,10
16,2,2,0.867,0.239065818982808,1.869,35.4294,1,11
16,1,1,0.828,0.620261423803001,0.87,31.88646,1,12
16,1,1,1.352,0,1.338,31.88646,1,13
16,2,2,1.073,0,1.369,28.697814,1,14
16,1,1,0.908,0.298271913928529,1.33,28.697814,1,15
16,2,2,0.826,0.253164070144976,1.169,25.8280326,1,16
16,2,2,1.073,0.729192267706469,2.143,25.8280326,1,17
16,1,1,2.51,0,1.278,23.24522934,1,18
16,2,2,1.214,0.0585999033328,5.648,23.24522934,1,19
16,1,1,1.218,0.138367708960467,1.187,20.920706406,1,20
16,1,2,0.925,0.155378370296366,0.973,20.920706406,0,21
16,2,2,2.129,0.357640087807249,0.95,23.24522934,1,22
16,1,1,1.495,0,1.5,23.24522934,1,23
16,2,2,2.217,0,1.101,20.920706406,1,24
16,2,1,1.114,0.149976098639875,1.075,20.920706406,0,25
16,1,1,1.242,0,1.31,23.24522934,1,26
16,2,2,0.855,0.414965986394557,1.353,23.24522934,1,27
16,1,1,1.225,0.098231906757406,1.04,20.920706406,1,28
16,1,1,1.172,0.152493787021665,1.187,20.920706406,1,29
16,2,2,0.669,0.632682897146558,0.941,18.8286357654,1,30
16,1,2,1.161,0.01360544217687,1.447,18.8286357654,0,31
16,2,1,1.425,0,1.099,20.920706406,0,32
16,2,1,1.724,0,1.523,23.24522934,0,33
16,1,1,1.342,0.109669540044497,0.998,25.8280326,1,34
16,2,2,0.855,0.847096558011012,0.893,25.8280326,1,35
16,1,1,1.4,0,0.918,23.24522934,1,36
16,1,1,1.095,0,1.274,23.24522934,1,37
16,2,2,1.483,0.153510488582203,1.525,20.920706406,1,38
16,1,1,0.863,0.610649782994381,0.969,20.920706406,1,39
16,2,2,1.434,0.24704026886822,1.053,18.8286357654,1,40
16,2,1,1.109,0.140335487027192,0.816,18.8286357654,0,41
16,1,1,1.307,0.001770691329723,1.05,20.920706406,1,42
16,2,2,0.788,0.104765642492534,1.21,20.920706406,1,43
16,1,2,1.099,0.36511985585291,0.702,18.8286357654,0,44
16,1,1,1.147,0,0.973,20.920706406,1,45
16,2,2,0.882,0.109669540044497,0.871,20.920706406,1,46
16,1,1,0.806,0.316565823262667,1.834,18.8286357654,1,47
16,2,1,1.755,0.200596069696988,1.703,18.8286357654,0,48
16,1,1,0.93,0.614967207707952,1.534,20.920706406,1,49
16,2,2,0.798,0.704621034144078,0.905,20.920706406,1,50
16,1,1,0.816,0.263032214698674,1.59,18.8286357654,1,51
16,2,2,1.375,0.149659863945578,1.019,18.8286357654,1,52
16,2,2,1.157,0.296168783680613,0.951,16.94577218886,1,53
16,1,1,1.167,0.006957248609151,1.248,16.94577218886,1,54
16,2,1,1.095,0.254563854938191,1.327,15.251194969974,0,55
16,1,2,0.792,0.218264202448625,1.779,16.94577218886,0,56
16,2,1,0.858,0.170732804669826,1.12,18.8286357654,0,57
16,1,2,1.282,0.393997813794526,1.102,20.920706406,0,58
16,2,1,1.082,0.307973919068867,0.876,23.24522934,0,59
16,1,1,0.912,0.343335194155255,1.647,25.8280326,1,60
16,1,2,1.065,0.409212069803359,1.192,25.8280326,0,61
16,2,1,0.859,0.107275868174833,1.19,28.697814,0,62
16,2,2,0.808,0.692521438531088,1.166,31.88646,1,63
16,1,1,1.228,0.204014932897468,0.994,31.88646,1,64
16,2,2,0.897,0.718191081466583,3.07,28.697814,1,65
16,1,1,0.834,0.407617097255616,0.961,28.697814,1,66
16,1,2,1.236,0.682069213804209,0.75,25.8280326,0,67
16,2,2,1.016,0.539588364842691,1.12,28.697814,1,68
16,1,1,0.729,0.193997779677277,0.853,28.697814,1,69
16,2,1,0.954,0.582837298127596,1.134,25.8280326,0,70
16,2,2,0.771,0.651460685029673,1.616,28.697814,1,71
16,1,1,0.836,0.188457024813222,1.232,28.697814,1,72
16,2,1,1.74,0.15429019956247,1.524,25.8280326,0,73
16,1,2,1.058,0.452099058614591,1.35,28.697814,0,74
16,2,1,1.193,0.288512622108508,0.966,31.88646,0,75
16,1,1,0.899,0.795449947219981,0.924,35.4294,1,76
16,1,1,1.558,0.126688608927332,1.263,35.4294,1,77
16,2,2,0.765,0.763540029036967,5.864,31.88646,1,78
16,1,1,0.875,0.69398815706106,1.471,31.88646,1,79
16,2,2,0.858,0.481697860926485,0.926,28.697814,1,80
16,1,1,1.081,0.920893556973707,1.857,28.697814,1,81
16,2,2,1.24,0.489539850160114,1.116,25.8280326,1,82
16,2,1,0.958,0.569449802052159,0.976,25.8280326,0,83
16,1,1,0.801,0.580282028077187,0.755,28.697814,1,84
16,2,2,0.784,0.94840194947146,1.769,28.697814,1,85
16,1,1,0.766,0.959519559126783,1.497,25.8280326,1,86
16,2,1,1.995,0.295905183580873,1.332,25.8280326,0,87
16,1,1,1.078,0.879816080161422,1.034,28.697814,1,88
