"Subj_idx","Run","Block","Trial","Difficulty_col","Difficulty_let","Number_blues","Number_os","Stimulus_col","Stimulus_let","Response_col","Response_let","Accuracy_col","Accuracy_let","Confidence_col","Confidence_let","RT_confidence_col","RT_confidence_let","Firstchoice","Location_firstchoice","Location_secondchoice","RT_firstchoice","RT_secondchoice"
1,1,1,1,90,60,31,35,2,2,1,2,0,1,65.0195,51.5104,1.214,2.1304,1,1,4,1.1116,0.43849
1,1,1,2,60,90,42,17,1,2,1,2,1,1,86.3411,58.0208,2.0149,3.2312,1,3,4,0.90668,0.28155
1,1,1,3,90,60,49,35,1,2,1,2,1,1,95.4557,50.3711,1.1976,2.4306,1,3,2,0.72427,0.34878
1,1,1,4,90,90,31,17,2,2,1,2,0,1,97.7344,51.1849,1.1308,2.0472,1,1,4,1.2726,0.46693
1,1,1,5,90,90,49,63,1,1,1,1,1,1,99.6875,56.0677,1.2806,5.6289,1,1,2,0.64577,0.47963
1,1,1,6,60,60,38,45,2,1,1,1,0,1,80.4818,57.0443,0.91526,1.8317,1,1,2,0.7628,0.21646
1,1,1,7,60,90,38,17,2,2,1,2,0,1,82.2721,51.6732,0.76497,2.2479,1,3,4,0.76284,0.51031
1,1,1,8,60,90,38,63,2,1,1,1,0,1,100,99.1992,1.0476,2.3305,1,2,4,0.83055,0.3058
1,1,1,9,90,60,31,35,2,2,2,1,1,0,50.0456,49.8828,1.5483,2.4147,1,4,1,2.7877,0.4101
1,1,1,10,90,90,49,63,1,1,1,1,1,1,79.1797,52.6497,1.264,2.7802,1,2,1,1.0979,0.46578
1,1,1,11,60,60,38,35,2,2,1,2,0,1,50.2083,51.1849,1.0976,1.6475,1,4,3,1.0749,0.33948
1,1,1,12,90,60,49,35,1,2,1,1,1,0,75.1107,51.1849,1.1808,2.2137,1,1,4,0.70877,0.52526
1,1,1,13,60,60,38,35,2,2,1,1,0,0,80.6445,52.9753,3.0143,5.4302,1,2,4,0.89605,0.49005
1,1,1,14,60,60,42,45,1,1,1,1,1,1,77.0638,51.5104,0.93061,1.797,1,2,4,0.66616,0.61896
1,1,1,15,60,60,38,35,2,2,1,1,0,0,49.7201,50.3711,1.3646,2.5476,1,1,3,1.9781,0.49498
1,1,1,16,90,90,49,17,1,2,1,2,1,1,81.1328,65.6706,0.8975,2.4305,1,2,4,0.74257,0.42848
1,1,1,17,60,60,42,45,1,1,1,1,1,1,72.832,51.3477,1.3977,2.4307,1,3,1,1.4449,0.37395
1,1,1,18,90,60,49,45,1,1,1,1,1,1,68.112,52.8125,1.715,2.4648,1,2,3,0.83405,0.53174
1,1,1,19,60,90,38,17,2,2,2,2,1,1,51.0221,50.6966,1.1142,1.6808,1,1,4,1.5917,0.50578
1,1,1,20,90,90,49,63,1,1,1,1,1,1,69.7396,83.5742,2.9292,1.5132,2,2,3,0.73777,0.19938
1,1,1,21,90,60,31,35,2,2,2,1,1,0,81.1328,60.2995,1.5482,2.798,1,2,3,0.72585,0.25405
1,1,1,22,60,90,42,63,1,1,1,1,1,1,78.6914,91.875,1.8302,0.83067,1,2,1,0.79289,0.5398
1,1,1,23,60,90,38,63,2,1,1,1,0,1,70.8789,68.6003,2.9644,3.7642,1,3,2,2.0007,0.29117
1,1,1,24,90,90,49,63,1,1,1,1,1,1,99.362,99.362,2.7458,1.6462,1,1,4,0.77532,0.47694
1,1,1,25,60,60,42,45,1,1,1,1,1,1,78.2031,50.5339,0.98195,2.3317,1,1,3,1.3565,0.46561
1,1,2,1,60,90,38,17,2,2,1,2,0,1,65.0195,58.9974,1.465,2.7979,1,2,1,0.79894,0.35381
1,1,2,2,60,60,42,35,1,2,1,1,1,0,64.8568,52.1615,1.1819,2.3482,1,3,4,0.96428,0.4521
1,1,2,3,60,60,42,35,1,2,1,2,1,1,69.9023,50.5339,0.86442,1.6642,1,4,3,1.5303,1.5904
1,1,2,4,60,90,38,17,2,2,1,2,0,1,70.7161,53.3008,1.6971,2.5302,1,4,2,0.75414,0.57595
1,1,2,5,90,60,49,45,1,1,1,1,1,1,83.737,58.3464,0.81531,1.7317,1,1,4,0.78927,0.46521
1,1,2,6,60,90,38,63,2,1,1,1,0,1,82.2721,67.6237,1.4971,2.5468,1,2,3,0.91819,0.45505
1,1,2,7,60,90,38,17,2,2,1,2,0,1,75.2734,74.2969,1.314,2.197,1,1,4,1.4914,0.2696
1,1,2,8,60,60,38,45,2,1,1,1,0,1,76.25,49.7201,0.94864,3.431,1,2,4,2.1793,0.59244
1,1,2,9,90,60,31,35,2,2,2,2,1,1,58.5091,50.6966,2.5646,3.7809,1,4,2,0.79262,0.26923
1,1,2,10,90,60,49,45,1,1,1,1,1,1,74.6224,50.0456,0.93108,1.7808,1,4,2,1.1144,0.63497
1,1,2,11,90,60,31,35,2,2,2,2,1,1,81.4583,52.8125,0.89854,2.3982,2,4,3,0.94799,0.44995
1,1,2,12,60,60,42,35,1,2,2,1,0,0,63.7174,50.0456,1.447,2.3967,1,2,1,0.8479,0.60163
1,1,2,13,60,60,38,35,2,2,2,2,1,1,50.5339,49.8828,1.2471,3.3464,1,4,3,1.1162,0.7083
1,1,2,14,90,90,49,63,1,1,1,1,1,1,87.806,81.1328,1.6144,3.1637,1,4,3,0.67626,0.43511
1,1,2,15,60,60,38,35,2,2,1,1,0,0,71.6927,51.1849,0.9151,1.8648,1,2,3,1.0533,0.4292
1,1,2,16,90,90,49,17,1,2,1,2,1,1,64.043,49.3945,0.71407,1.7305,1,2,4,0.91706,0.23513
1,1,2,17,90,60,49,45,1,1,1,2,1,0,61.7643,50.2083,0.83059,2.0469,1,4,3,1.0983,0.48164
1,1,2,18,60,90,42,63,1,1,1,1,1,1,81.6211,73.1576,1.0985,3.4144,1,3,1,0.72276,0.57013
1,1,2,19,60,90,38,17,2,2,1,2,0,1,67.7865,56.3932,0.83097,1.7307,1,2,3,0.71931,0.39075
1,1,2,20,90,60,49,45,1,1,1,1,1,1,73.6458,51.3477,0.98195,3.0145,1,1,2,2.5493,0.604
1,1,2,21,60,90,38,17,2,2,1,2,0,1,73.9714,51.1849,1.465,2.7146,1,1,2,0.91026,0.43803
1,1,2,22,90,90,49,63,1,1,1,1,1,1,82.9232,73.6458,1.3473,2.297,1,4,3,0.8214,0.41885
1,1,2,23,90,60,31,45,2,1,2,2,1,0,52.6497,51.6732,0.9473,1.7803,1,1,3,1.769,0.41519
1,1,2,24,60,90,42,63,1,1,1,1,1,1,68.763,72.3438,0.99837,1.9647,2,1,4,0.88529,0.5234
1,1,2,25,90,90,49,63,1,1,1,1,1,1,77.3893,76.4128,1.0302,2.0799,1,4,2,0.98668,0.23873
1,1,3,1,60,60,38,35,2,2,2,2,1,1,51.8359,51.6732,1.4639,2.2304,1,3,4,1.6413,0.5415
1,1,3,2,60,90,42,17,1,2,1,2,1,1,68.4375,52.9753,1.2963,2.3126,1,4,1,0.94164,0.41789
1,1,3,3,90,60,49,35,1,2,1,2,1,1,61.9271,49.8828,1.8482,2.7812,2,1,4,1.7651,0.53995
1,1,3,4,90,60,31,35,2,2,2,2,1,1,66.8099,53.138,1.0476,1.9974,1,1,4,0.78807,0.32852
1,1,3,5,60,60,42,45,1,1,1,1,1,1,59.4857,56.3932,1.3801,2.3298,1,3,4,0.86698,0.51555
1,1,3,6,60,90,38,63,2,1,1,1,0,1,68.4375,67.6237,1.1484,2.3813,1,2,4,1.1276,0.67849
1,1,3,7,90,90,31,17,2,2,2,2,1,1,58.6719,50.0456,1.0477,1.8807,1,1,3,1.9302,0.4104
1,1,3,8,90,60,31,45,2,1,2,2,1,0,57.5326,50.3711,0.98079,2.0471,1,4,3,0.78283,0.62762
1,1,3,9,90,60,31,35,2,2,2,2,1,1,66.4844,50.5339,0.86388,2.0302,1,2,1,1.1369,0.51212
1,1,3,10,60,90,42,63,1,1,1,1,1,1,69.2513,67.2982,1.3484,3.0644,1,4,2,1.1072,0.23556
1,1,3,11,60,60,38,35,2,2,1,1,0,0,68.6003,49.7201,4.4129,2.9468,1,2,3,1.5653,0.32993
1,1,3,12,90,90,49,17,1,2,1,2,1,1,73.3203,51.5104,1.1974,2.3637,2,2,3,0.84084,0.48121
1,1,3,13,60,60,38,35,2,2,1,2,0,1,72.5065,51.3477,0.88086,1.8973,1,2,4,0.95945,0.48255
1,1,3,14,60,60,42,45,1,1,1,1,1,1,74.9479,53.9518,1.0474,1.9804,2,4,3,1.335,0.50882
1,1,3,15,60,60,38,35,2,2,1,1,0,0,58.0208,50.0456,1.9969,1.2639,1,3,1,1.6048,0.45508
1,1,3,16,60,90,42,17,1,2,1,2,1,1,68.4375,49.8828,2.2146,3.3642,1,2,3,0.65347,0.46481
1,1,3,17,60,90,42,63,1,1,1,1,1,1,68.2747,62.5781,0.84862,2.1482,1,4,1,0.75208,0.334
1,1,3,18,90,90,49,63,1,1,1,1,1,1,79.3424,65.5078,1.1809,2.3639,1,3,2,0.81586,0.44116
1,1,3,19,60,60,38,35,2,2,1,1,0,0,74.7852,50.2083,0.84858,1.7317,1,2,4,1.217,0.29972
1,1,3,20,60,90,42,63,1,1,1,1,1,1,75.2734,69.2513,0.96431,3.6799,1,2,3,0.78977,0.41112
1,1,3,21,90,90,31,17,2,2,2,2,1,1,51.1849,50.2083,1.2804,3.363,1,3,4,1.5718,0.46246
1,1,3,22,60,90,42,63,1,1,1,1,1,1,65.3451,51.9987,1.8472,2.6969,1,3,2,0.67425,0.41894
1,1,3,23,60,90,38,63,2,1,1,1,0,1,74.4596,60.9505,0.79871,2.1316,1,1,4,0.75407,0.38411
1,1,3,24,90,90,49,63,1,1,1,1,1,1,74.2969,71.2044,1.0638,2.73,1,4,1,0.83804,0.44086
1,1,3,25,60,60,42,45,1,1,1,1,1,1,69.4141,50.8594,0.73067,1.8138,1,4,1,1.5757,0.34978
1,1,4,1,60,90,38,17,2,2,1,2,0,1,50.3711,50.2083,1.6305,4.1629,1,3,4,3.0176,0.45261
1,1,4,2,60,60,42,35,1,2,1,1,1,0,53.7891,49.5573,0.89724,2.6133,1,2,1,1.245,0.45365
1,1,4,3,60,60,42,35,1,2,1,1,1,0,49.8828,50.3711,1.114,2.447,1,2,3,0.97999,0.33475
1,1,4,4,60,60,38,35,2,2,2,2,1,1,63.0664,49.8828,1.4648,2.398,1,3,2,1.0161,0.37132
1,1,4,5,60,60,42,45,1,1,2,2,0,0,57.8581,49.8828,0.68089,2.1471,1,1,3,1.608,0.49162
1,1,4,6,60,60,38,45,2,1,1,1,0,1,69.5768,49.2318,0.64788,2.3972,1,1,2,0.74382,0.21228
1,1,4,7,90,90,31,17,2,2,2,2,1,1,67.2982,49.7201,0.98184,1.9649,1,2,3,0.91089,0.49432
1,1,4,8,90,90,31,63,2,1,2,1,1,1,57.0443,52.487,0.86416,1.7139,1,3,1,1.0625,0.53619
1,1,4,9,90,60,31,35,2,2,2,2,1,1,80.6445,50.3711,1.4971,2.9133,1,4,1,1.2238,0.51623
1,1,4,10,90,60,49,45,1,1,1,1,1,1,64.3685,51.3477,0.93191,1.9316,1,1,3,0.79981,0.291
1,1,4,11,60,90,38,17,2,2,1,2,0,1,69.2513,51.0221,1.0319,1.965,1,4,2,0.92446,0.17737
1,1,4,12,90,90,49,17,1,2,1,2,1,1,78.2031,61.1133,1.4477,2.5141,1,3,2,0.67463,0.25113
1,1,4,13,90,90,31,17,2,2,2,2,1,1,57.0443,54.2773,0.64742,1.4805,1,1,3,0.88244,0.41916
1,1,4,14,90,60,49,45,1,1,1,1,1,1,72.181,54.9284,1.4651,2.3148,1,2,3,0.66327,0.48689
1,1,4,15,60,60,38,35,2,2,1,2,0,1,56.7188,51.1849,0.78149,1.7145,1,2,4,0.72795,0.98922
1,1,4,16,60,90,42,17,1,2,1,2,1,1,59.4857,79.9935,2.7468,1.4973,2,1,4,1.5317,0.23963
1,1,4,17,60,60,42,45,1,1,1,1,1,1,64.5312,50.0456,0.8819,1.715,2,3,4,1.4663,0.2349
1,1,4,18,60,60,42,45,1,1,1,1,1,1,63.2292,60.7878,1.3317,2.2481,1,3,4,0.94598,0.53454
1,1,4,19,60,60,38,35,2,2,2,2,1,1,57.3698,50.5339,0.76441,1.5476,1,2,1,1.0052,0.24225
1,1,4,20,90,90,49,63,1,1,1,1,1,1,81.2956,64.3685,1.3465,2.3295,1,4,1,0.84865,0.4359
1,1,4,21,90,60,31,35,2,2,2,2,1,1,52.8125,50.3711,1.1484,2.398,1,2,1,1.9608,1.5404
1,1,4,22,60,60,42,45,1,1,1,1,1,1,58.5091,50.0456,1.148,2.0144,1,4,2,1.192,0.57247
1,1,4,23,90,60,31,45,2,1,2,1,1,1,56.8815,49.7201,1.414,2.2305,1,3,4,1.1028,0.26057
1,1,4,24,90,90,49,63,1,1,1,1,1,1,65.9961,58.1836,1.0984,1.8649,1,3,2,0.82225,0.43128
1,1,4,25,60,60,42,45,1,1,1,1,1,1,69.7396,59.1602,1.2318,2.1981,1,3,2,0.84951,0.62623
1,2,1,1,60,60,42,35,1,2,1,2,1,1,71.6927,50.8594,2.5813,4.1808,1,3,2,0.73539,0.5336
1,2,1,2,60,90,42,17,1,2,1,2,1,1,55.4167,70.3906,2.3137,1.2975,1,2,3,1.6174,0.40364
1,2,1,3,60,90,38,17,2,2,1,2,0,1,50.2083,85.5273,1.1472,2.4968,1,1,4,1.3774,0.43849
1,2,1,4,90,90,49,17,1,2,1,2,1,1,50.2083,78.6914,1.2317,2.0648,2,4,2,1.1731,0.53022
1,2,1,5,90,90,31,17,2,2,2,2,1,1,60.1367,79.0169,0.74864,1.615,1,3,4,1.3078,0.46933
1,2,1,6,60,60,38,45,2,1,2,1,1,1,62.2526,50.6966,0.81402,1.6138,1,1,3,1.5404,0.40261
1,2,1,7,60,90,38,63,2,1,1,1,0,1,51.3477,63.5547,3.2796,1.397,2,4,1,1.2478,0.49172
1,2,1,8,60,60,42,45,1,1,1,1,1,1,54.4401,50.0456,0.76529,1.7816,1,3,1,1.5931,0.18068
1,2,1,9,60,90,42,17,1,2,1,2,1,1,52.9753,49.7201,0.9977,2.1474,1,3,4,1.0515,0.40346
1,2,1,10,90,90,49,17,1,2,1,2,1,1,59.6484,57.0443,0.79811,1.6645,1,4,1,1.0324,0.55507
1,2,1,11,90,60,49,45,1,1,1,1,1,1,63.3919,50.2083,0.93149,1.5978,2,2,1,1.0068,0.22476
1,2,1,12,90,90,31,17,2,2,2,2,1,1,65.5078,54.7656,0.93192,2.548,1,1,3,0.94519,0.45569
1,2,1,13,60,60,38,35,2,2,2,2,1,1,67.2982,52.6497,0.86531,1.6317,1,3,2,0.738,0.31914
1,2,1,14,90,90,49,17,1,2,2,2,0,1,50.2083,65.1823,1.0141,2.7302,2,4,2,1.9669,0.28336
1,2,1,15,90,60,49,45,1,1,1,1,1,1,73.8086,65.0195,1.715,0.54881,1,3,4,0.70368,0.51897
1,2,1,16,90,60,49,45,1,1,1,2,1,0,55.0911,63.2292,2.1976,1.0814,1,4,1,0.93644,0.42236
1,2,1,17,90,90,31,63,2,1,1,1,0,1,50.5339,73.9714,1.847,1.1307,2,2,3,1.3149,0.37797
1,2,1,18,90,60,31,45,2,1,2,2,1,0,57.6953,51.3477,0.84739,1.6138,1,4,3,1.154,0.26169
1,2,1,19,60,60,42,45,1,1,1,1,1,1,62.5781,51.0221,1.0319,1.665,1,4,1,0.85255,0.54209
1,2,1,20,60,60,38,35,2,2,2,2,1,1,53.4635,50.3711,0.83203,1.5985,1,4,2,0.9729,0.64743
1,2,1,21,90,60,49,45,1,1,1,1,1,1,50.0456,50.0456,1.4476,2.0641,1,4,3,1.0636,0.4485
1,2,1,22,90,60,49,45,1,1,1,1,1,1,63.3919,52.8125,0.66391,1.4804,1,4,3,0.67968,0.49585
1,2,1,23,90,60,49,35,1,2,1,1,1,0,64.2057,49.5573,1.715,1.0486,1,3,2,0.90728,0.44254
1,2,1,24,60,90,42,17,1,2,1,2,1,1,67.7865,51.3477,0.7478,1.7974,1,4,2,0.70713,0.26011
1,2,1,25,60,60,38,45,2,1,1,1,0,1,67.7865,53.138,0.73015,2.5129,1,4,3,0.73549,0.51927
1,2,2,1,90,60,49,35,1,2,1,1,1,0,74.2969,54.1146,1.0141,1.7305,1,3,2,0.97149,0.34375
1,2,2,2,90,60,49,35,1,2,1,1,1,0,72.0182,53.138,0.91404,1.6472,1,4,3,0.66405,0.31536
1,2,2,3,90,60,31,35,2,2,2,2,1,1,50.2083,51.0221,0.91533,2.0317,1,2,3,0.84168,0.31606
1,2,2,4,60,90,42,17,1,2,1,2,1,1,66.9727,49.8828,1.314,2.1638,1,3,2,0.66224,0.43354
1,2,2,5,60,60,38,35,2,2,2,1,1,0,50.0456,49.7201,0.94735,1.7637,1,2,1,1.0607,0.57608
1,2,2,6,90,90,31,63,2,1,2,1,1,1,61.9271,51.1849,2.3147,3.4144,1,2,1,0.92097,0.21393
1,2,2,7,90,60,31,45,2,1,2,1,1,1,49.7201,49.3945,1.0311,1.7809,1,4,2,1.2567,0.47464
1,2,2,8,60,60,42,45,1,1,1,1,1,1,49.7201,50.2083,1.8316,0.96533,1,4,3,0.71255,0.4319
1,2,2,9,90,90,49,17,1,2,1,2,1,1,49.8828,50.2083,3.0799,2.247,1,2,3,1.3124,0.29397
1,2,2,10,60,60,42,35,1,2,1,2,1,1,52.1615,50.3711,1.2807,2.1971,1,3,1,0.84994,0.35542
1,2,2,11,90,60,49,45,1,1,1,2,1,0,66.8099,49.8828,1.2318,2.1816,1,4,3,0.75276,0.51822
1,2,2,12,60,60,38,35,2,2,1,2,0,1,49.7201,50.2083,1.0306,1.5472,1,1,3,1.3,0.43463
1,2,2,13,90,90,31,17,2,2,2,2,1,1,49.8828,56.7188,1.947,1.031,1,3,4,1.1239,0.4602
1,2,2,14,90,90,49,17,1,2,1,2,1,1,61.7643,50.0456,1.0986,2.0149,1,2,3,1.149,0.44746
1,2,2,15,60,90,42,63,1,1,1,1,1,1,55.7422,50.5339,0.81385,1.4303,1,3,2,0.72982,0.54595
1,2,2,16,90,60,49,45,1,1,1,2,1,0,58.0208,49.7201,0.83085,1.664,1,4,3,0.68876,0.30585
1,2,2,17,90,60,31,45,2,1,2,1,1,1,55.4167,50.5339,1.3141,2.297,2,4,3,0.79516,0.49655
1,2,2,18,60,60,38,45,2,1,2,1,1,1,57.3698,49.2318,0.98197,1.7816,1,4,1,0.75862,0.35811
1,2,2,19,60,60,42,45,1,1,1,1,1,1,50.0456,61.276,1.5978,0.76488,2,1,4,1.849,0.21091
1,2,2,20,60,60,38,35,2,2,2,2,1,1,61.6016,50.6966,0.84725,1.8802,1,2,4,0.77219,0.55365
1,2,2,21,60,90,42,63,1,1,1,1,1,1,50.3711,60.1367,1.2985,0.68224,1,3,1,1.298,0.32124
1,2,2,22,90,90,49,63,1,1,1,1,1,1,50.3711,67.1354,1.647,0.71417,1,1,3,0.89645,0.48038
1,2,2,23,90,90,49,17,1,2,1,2,1,1,53.9518,61.4388,3.1801,1.2976,1,3,1,0.94311,0.6683
1,2,2,24,60,90,42,17,1,2,1,2,1,1,54.6029,63.2292,1.8635,0.9973,1,1,2,0.74329,0.42918
1,2,2,25,90,60,31,45,2,1,2,1,1,1,69.7396,50.3711,0.89859,1.9316,1,2,1,0.7154,0.46581
1,2,3,1,60,90,42,17,1,2,1,2,1,1,49.8828,49.8828,16.4426,17.4589,2,3,1,1.1457,0.53368
1,2,3,2,90,90,49,17,1,2,1,2,1,1,58.6719,50.2083,1.4975,2.5639,2,3,2,0.68979,0.55223
1,2,3,3,60,90,38,17,2,2,2,2,1,1,50.2083,50.2083,1.1485,1.9482,1,2,3,3.6967,0.32949
1,2,3,4,60,60,42,35,1,2,2,2,0,1,49.8828,53.4635,0.98103,1.814,2,3,2,1.7517,0.37274
1,2,3,5,90,60,31,35,2,2,1,2,0,1,49.8828,50.5339,1.5471,2.3302,1,1,4,0.70425,0.46404
1,2,3,6,90,60,31,45,2,1,2,2,1,0,53.3008,50.2083,1.0486,1.815,1,2,4,0.90113,0.48511
1,2,3,7,60,60,38,45,2,1,1,1,0,1,55.4167,49.3945,0.73199,1.865,1,1,4,0.79855,0.49752
1,2,3,8,60,90,42,63,1,1,1,1,1,1,65.6706,56.2305,1.2641,2.0638,1,2,3,0.67676,0.52289
1,2,3,9,60,90,42,17,1,2,1,2,1,1,63.7174,54.9284,1.7134,2.5632,1,3,1,0.90194,0.33137
1,2,3,10,90,60,49,35,1,2,1,2,1,1,65.3451,53.138,0.8989,1.9149,1,2,1,0.82204,0.54424
1,2,3,11,60,60,42,45,1,1,1,1,1,1,67.4609,55.2539,0.8808,1.7472,1,3,2,0.76201,0.48014
1,2,3,12,60,60,38,35,2,2,2,2,1,1,59.6484,50.0456,0.96339,1.8964,1,2,1,1.0252,0.46045
1,2,3,13,90,60,31,35,2,2,2,2,1,1,67.2982,50.5339,0.96518,1.6483,1,3,2,1.0359,0.51685
1,2,3,14,60,60,42,35,1,2,1,1,1,0,65.3451,49.5573,1.0305,2.8799,1,4,3,0.94943,0.41311
1,2,3,15,60,90,42,63,1,1,1,1,1,1,50.8594,63.8802,1.4473,0.56437,1,1,3,2.2229,0.4178
1,2,3,16,60,90,42,63,1,1,2,1,0,1,50.5339,56.3932,1.9481,1.2151,2,1,2,1.2881,1.3098
1,2,3,17,90,90,31,63,2,1,2,1,1,1,59.1602,49.7201,1.2485,2.0817,1,2,4,0.70713,0.48078
1,2,3,18,60,90,38,63,2,1,1,1,0,1,50.0456,57.3698,0.84746,3.28,1,4,2,1.1524,0.82109
1,2,3,19,90,60,49,45,1,1,1,2,1,0,58.0208,50.0456,0.93051,1.6303,1,3,1,0.91706,0.38813
1,2,3,20,60,60,38,35,2,2,1,2,0,1,59.3229,50.5339,1.065,2.0147,1,2,4,1.1176,0.51092
1,2,3,21,90,90,49,63,1,1,1,1,1,1,59.6484,49.7201,0.99821,1.9645,1,2,1,0.68115,0.42738
1,2,3,22,60,90,42,63,1,1,1,1,1,1,49.8828,61.1133,1.9468,0.83056,2,1,4,1.6195,0.6142
1,2,3,23,60,90,42,17,1,2,1,2,1,1,54.4401,61.1133,3.8795,1.8803,1,3,4,1.0686,0.26091
1,2,3,24,60,90,42,17,1,2,1,2,1,1,60.9505,49.8828,0.76522,1.6983,1,4,2,1.1134,0.3927
1,2,3,25,60,60,38,45,2,1,1,2,0,0,53.4635,50.0456,0.73132,1.6644,1,4,1,1.4743,0.1721
1,2,4,1,60,60,42,35,1,2,2,2,0,1,57.207,50.0456,0.74876,1.4818,1,1,2,0.90013,0.43542
1,2,4,2,60,60,42,35,1,2,2,2,0,1,50.2083,54.2773,0.89736,2.1803,2,4,1,1.059,0.22737
1,2,4,3,60,60,38,35,2,2,1,2,0,1,49.7201,50.2083,0.91398,1.6471,1,2,1,2.5012,0.49318
1,2,4,4,60,60,42,35,1,2,2,2,0,1,53.3008,49.8828,1.0485,1.665,1,2,4,0.78977,0.4091
1,2,4,5,60,60,38,35,2,2,2,2,1,1,49.7201,49.8828,1.1305,2.0802,1,1,4,3.5637,0.46599
1,2,4,6,60,60,38,45,2,1,1,1,0,1,50.2083,50.2083,1.3808,2.497,1,2,4,1.0221,0.51204
1,2,4,7,60,60,38,45,2,1,1,1,0,1,53.6263,54.1146,1.0152,1.6483,1,4,2,0.95304,0.58063
1,2,4,8,90,60,49,45,1,1,1,1,1,1,62.9036,54.7656,1.0151,1.765,1,4,3,0.93438,0.59578
1,2,4,9,90,60,49,35,1,2,1,1,1,0,71.3672,56.0677,0.98068,1.9138,1,3,2,1.1978,0.46784
1,2,4,10,90,90,49,17,1,2,1,2,1,1,69.2513,59.6484,0.94762,1.6307,1,1,2,0.76511,0.48449
1,2,4,11,90,60,49,45,1,1,1,1,1,1,72.5065,57.3698,0.91527,1.715,1,4,1,0.88287,0.47399
1,2,4,12,60,90,38,17,2,2,1,2,0,1,53.6263,61.1133,2.1641,1.2312,2,4,3,1.1753,0.25228
1,2,4,13,60,90,38,17,2,2,1,2,0,1,49.5573,50.3711,1.3641,2.3138,1,4,3,0.89038,0.60092
1,2,4,14,90,90,49,17,1,2,1,2,1,1,66.9727,62.0898,0.99842,1.7482,1,2,1,0.80989,0.39772
1,2,4,15,90,90,49,63,1,1,1,1,1,1,75.1107,73.4831,0.93121,1.7143,1,2,3,0.61444,0.48896
1,2,4,16,90,60,49,45,1,1,1,1,1,1,74.9479,50.3711,1.1474,2.297,1,2,1,0.88787,0.48724
1,2,4,17,60,60,38,45,2,1,1,1,0,1,50.2083,50.5339,1.0639,1.6304,1,3,2,1.2115,0.52925
1,2,4,18,90,60,31,45,2,1,2,2,1,0,68.6003,49.2318,0.94781,1.8642,1,3,4,0.75867,0.45047
1,2,4,19,90,60,49,45,1,1,1,1,1,1,67.7865,49.7201,1.4632,2.4296,1,3,2,0.65589,0.49707
1,2,4,20,90,60,31,35,2,2,2,2,1,1,58.8346,49.7201,0.81332,1.4965,1,3,1,0.93434,0.41909
1,2,4,21,90,60,49,45,1,1,1,1,1,1,66.1589,52.3242,0.86499,1.6979,1,2,4,0.71518,0.46694
1,2,4,22,60,90,42,63,1,1,1,1,1,1,54.2773,67.6237,2.464,1.5977,2,3,4,1.0321,0.48287
1,2,4,23,90,60,49,35,1,2,1,2,1,1,61.6016,51.1849,1.7475,2.6805,1,2,4,0.84236,0.28339
1,2,4,24,60,60,42,35,1,2,1,1,1,0,51.1849,56.556,1.0141,1.6306,2,1,4,1.277,0.42953
1,2,4,25,60,90,38,63,2,1,1,1,0,1,62.9036,57.8581,1.2651,2.3149,1,4,3,0.70225,0.41396
1,3,1,1,60,60,38,35,2,2,1,2,0,1,50.2083,51.0221,1.615,2.4147,1,4,1,3.7845,0.52383
1,3,1,2,90,90,49,63,1,1,1,1,1,1,55.7422,61.4388,2.8296,2.1632,1,2,4,0.61281,0.27881
1,3,1,3,90,60,31,35,2,2,2,1,1,0,69.9023,49.8828,0.96336,1.7632,1,2,3,0.62377,0.48012
1,3,1,4,90,60,31,45,2,1,2,2,1,0,74.1341,49.8828,0.88197,1.7817,1,4,3,0.66704,0.50186
1,3,1,5,60,90,38,17,2,2,1,2,0,1,68.9258,52.8125,1.1143,1.7474,2,4,1,0.78997,0.39417
1,3,1,6,90,90,31,17,2,2,2,2,1,1,67.1354,50.8594,0.81523,1.5484,1,1,4,1.7942,0.22868
1,3,1,7,60,60,42,35,1,2,1,1,1,0,50.2083,50.0456,1.9469,1.3971,1,4,3,0.90712,0.52037
1,3,1,8,90,60,31,45,2,1,2,2,1,0,76.25,50.5339,1.1806,2.7134,1,4,2,0.77974,0.48009
1,3,1,9,60,60,38,35,2,2,2,2,1,1,69.0885,50.0456,0.8143,2.4305,1,1,2,0.8593,0.52392
1,3,1,10,90,60,31,35,2,2,2,2,1,1,63.3919,49.5573,0.89763,1.814,1,3,2,0.96866,0.65242
1,3,1,11,60,60,42,35,1,2,2,2,0,1,49.7201,50.0456,1.4151,0.7654,1,2,1,1.1935,0.42157
1,3,1,12,90,90,31,63,2,1,1,1,0,1,52.3242,51.0221,1.7144,2.3642,1,2,3,0.6072,0.37118
1,3,1,13,90,90,49,17,1,2,1,2,1,1,50.2083,63.7174,1.7472,0.91425,1,1,3,1.7207,0.48107
1,3,1,14,90,60,31,35,2,2,2,2,1,1,59.3229,50.3711,1.5971,2.4968,1,1,2,0.83851,0.47338
1,3,1,15,60,60,38,45,2,1,1,1,0,1,50.0456,50.5339,0.83199,1.3486,1,2,3,0.59876,0.37939
1,3,1,16,90,60,31,45,2,1,2,2,1,0,56.7188,50.0456,0.9321,2.0816,1,1,4,0.82804,0.46167
1,3,1,17,60,90,42,17,1,2,2,2,0,1,54.6029,63.5547,2.5471,1.3644,1,2,4,0.82079,0.51107
1,3,1,18,60,60,42,35,1,2,2,2,0,1,51.8359,50.3711,0.79683,2.8128,1,1,4,2.545,0.4891
1,3,1,19,60,90,42,17,1,2,1,2,1,1,57.6953,49.7201,2.2138,3.1802,1,1,4,1.0074,0.50819
1,3,1,20,60,60,38,45,2,1,2,1,1,1,55.7422,50.0456,0.91389,2.6632,1,4,3,0.70173,0.44598
1,3,1,21,60,60,42,45,1,1,1,2,1,0,49.5573,50.6966,0.7983,1.365,1,3,2,1.2933,0.62793
1,3,1,22,60,60,38,45,2,1,1,1,0,1,50.2083,50.0456,0.882,1.915,1,2,3,1.0921,0.45221
1,3,1,23,60,90,42,17,1,2,2,2,0,1,50.0456,59.6484,1.997,1.0641,1,4,2,1.0916,0.50628
1,3,1,24,60,90,38,17,2,2,2,2,1,1,50.0456,57.8581,2.1472,1.231,1,3,2,1.2778,0.8771
1,3,1,25,60,90,38,63,2,1,1,1,0,1,50.6966,50.0456,3.3143,4.1639,1,3,1,1.1258,0.45171
1,3,2,1,90,60,31,35,2,2,2,1,1,0,55.2539,50.3711,0.9819,1.765,1,3,2,2.2369,0.52621
1,3,2,2,60,60,42,45,1,1,2,2,0,0,50.0456,50.3711,0.98081,1.4306,1,1,4,0.92887,0.4559
1,3,2,3,60,90,38,17,2,2,1,2,0,1,56.7188,50.2083,0.78088,1.6973,1,1,4,1.0652,0.45035
1,3,2,4,90,60,31,45,2,1,2,2,1,0,56.0677,49.5573,1.1485,3.0478,1,1,4,1.3919,1.1972
1,3,2,5,90,90,31,17,2,2,1,1,0,0,53.6263,49.8828,1.0808,1.8139,1,2,3,0.76603,0.46032
1,3,2,6,60,90,38,17,2,2,1,2,0,1,50.5339,60.7878,2.014,1.1144,2,3,1,1.429,0.4945
1,3,2,7,90,60,49,35,1,2,1,2,1,1,54.2773,49.2318,0.93179,1.6483,1,4,3,0.83736,0.46945
1,3,2,8,60,60,38,45,2,1,1,1,0,1,49.5573,50.2083,0.79767,3.0969,1,1,2,1.621,0.25413
1,3,2,9,90,90,31,17,2,2,2,2,1,1,60.1367,52.1615,0.66439,1.4975,1,1,4,0.97933,0.50588
1,3,2,10,90,60,31,35,2,2,2,2,1,1,65.9961,53.7891,1.1474,1.9805,1,1,4,0.76454,0.45786
1,3,2,11,90,90,49,17,1,2,1,2,1,1,51.5104,59.1602,2.3148,1.1652,2,2,1,0.86048,0.42174
1,3,2,12,90,90,31,63,2,1,2,1,1,1,64.043,52.9753,1.0806,1.9303,1,4,2,0.99469,0.49782
1,3,2,13,60,90,42,17,1,2,1,2,1,1,52.487,53.138,1.1645,2.0809,1,2,4,1.1404,0.52444
1,3,2,14,90,60,31,35,2,2,2,2,1,1,63.2292,53.4635,0.84723,1.6803,2,2,3,0.81573,0.42449
1,3,2,15,60,90,38,63,2,1,2,1,1,1,53.6263,64.8568,2.4469,1.5473,1,2,3,2.0886,0.34567
1,3,2,16,90,90,31,63,2,1,2,1,1,1,51.6732,61.4388,2.1814,1.1985,1,2,3,0.89273,0.53242
1,3,2,17,60,90,42,17,1,2,1,2,1,1,49.8828,58.9974,2.5634,1.0142,1,1,4,1.043,0.48449
1,3,2,18,90,90,49,17,1,2,1,2,1,1,54.6029,50.2083,0.84857,1.5484,1,4,2,0.76945,0.34796
1,3,2,19,90,90,49,17,1,2,1,2,1,1,65.6706,53.7891,0.86522,1.715,1,2,3,0.65326,0.46252
1,3,2,20,90,90,31,63,2,1,2,1,1,1,51.9987,60.4622,1.4645,0.76481,2,2,3,1.3675,0.50753
1,3,2,21,60,60,42,45,1,1,1,1,1,1,49.5573,49.3945,1.0641,1.6306,1,3,2,1.3564,0.4088
1,3,2,22,90,60,31,45,2,1,2,1,1,1,54.9284,49.8828,1.0484,2.3147,1,1,4,1.1709,0.43851
1,3,2,23,90,90,49,17,1,2,1,2,1,1,52.1615,49.3945,1.0819,1.9483,1,4,2,0.73341,0.51498
1,3,2,24,90,90,31,17,2,2,2,2,1,1,65.6706,52.6497,1.2136,1.9801,1,2,1,0.65944,0.45854
1,3,2,25,60,60,38,45,2,1,2,2,1,0,59.974,50.3711,1.0641,2.0139,1,3,2,0.84167,0.42971
1,3,3,1,60,60,38,35,2,2,1,2,0,1,62.7409,52.487,1.181,2.2973,1,2,1,0.69189,0.54126
1,3,3,2,90,60,49,45,1,1,1,1,1,1,73.9714,53.6263,1.1985,2.2648,1,2,4,0.71244,0.44817
1,3,3,3,60,90,38,17,2,2,2,2,1,1,68.112,52.3242,1.3485,2.1481,1,4,2,0.73823,0.3589
1,3,3,4,60,60,38,45,2,1,1,2,0,0,49.8828,49.8828,1.131,1.8974,1,3,4,0.93616,0.40663
1,3,3,5,60,90,38,17,2,2,1,2,0,1,49.8828,60.625,2.298,0.88198,2,3,1,1.4109,0.75774
1,3,3,6,90,90,31,17,2,2,2,2,1,1,51.3477,59.8112,0.81536,1.5152,1,3,1,0.99348,0.46207
1,3,3,7,90,90,49,17,1,2,1,2,1,1,54.4401,53.9518,1.1141,1.6807,2,2,3,0.91285,0.36624
1,3,3,8,90,60,31,45,2,1,2,1,1,1,64.8568,61.9271,0.9805,1.8302,1,4,2,0.74839,0.47442
1,3,3,9,90,90,31,17,2,2,2,2,1,1,73.9714,67.2982,1.1307,2.1972,1,2,1,0.60263,0.4454
1,3,3,10,60,90,38,17,2,2,1,2,0,1,61.7643,71.5299,1.6804,0.91415,1,4,3,0.73243,0.40946
1,3,3,11,60,60,42,35,1,2,1,2,1,1,70.2279,49.3945,0.84873,1.4651,1,3,4,0.7149,0.41901
1,3,3,12,90,60,31,45,2,1,2,1,1,1,49.5573,49.2318,0.88065,2.0303,1,1,2,0.87687,0.42923
1,3,3,13,90,90,49,17,1,2,1,2,1,1,69.9023,66.6471,0.83036,1.5468,1,2,4,0.67107,0.6311
1,3,3,14,90,90,31,17,2,2,2,2,1,1,63.2292,61.4388,2.5647,1.4318,1,2,3,1.155,0.34423
1,3,3,15,60,90,38,63,2,1,2,1,1,1,62.7409,74.6224,2.2134,1.0972,1,2,4,1.2275,0.33494
1,3,3,16,90,90,31,63,2,1,2,1,1,1,74.7852,72.6693,1.2971,0.4641,1,3,1,0.78667,0.6316
1,3,3,17,60,60,42,35,1,2,1,2,1,1,50.3711,50.2083,0.79857,1.7648,1,2,1,2.908,0.16596
1,3,3,18,60,60,42,35,1,2,1,1,1,0,53.3008,50.0456,1.2484,2.2148,1,4,2,0.7992,0.58012
1,3,3,19,60,90,42,17,1,2,1,2,1,1,49.7201,61.4388,1.9969,1.0641,2,3,4,0.9978,0.76879
1,3,3,20,60,60,38,45,2,1,2,1,1,1,55.2539,49.7201,0.81424,1.5974,1,3,1,0.73985,0.46787
1,3,3,21,60,90,42,63,1,1,1,1,1,1,65.0195,53.4635,1.3649,2.1315,1,4,3,0.68495,0.48301
1,3,3,22,60,90,38,63,2,1,2,1,1,1,57.8581,49.5573,0.78113,2.0308,1,4,3,0.75861,0.24488
1,3,3,23,60,60,42,35,1,2,1,1,1,0,49.7201,50.2083,0.89738,1.5805,1,1,2,1.2217,0.45604
1,3,3,24,60,90,38,17,2,2,1,2,0,1,49.7201,60.2995,1.88,1.0472,1,3,1,0.9049,0.72723
1,3,3,25,90,90,31,63,2,1,2,2,1,0,70.8789,55.4167,0.79767,3.7133,1,2,1,0.68295,0.41923
1,3,4,1,60,90,38,17,2,2,2,2,1,1,51.0221,62.0898,1.8312,1.0817,1,4,2,0.84285,0.23873
1,3,4,2,60,60,42,45,1,1,2,2,0,0,49.8828,50.2083,0.84743,1.6639,2,4,1,0.87074,0.2541
1,3,4,3,90,60,31,35,2,2,2,2,1,1,54.6029,49.7201,0.76402,1.4805,1,1,3,0.67694,0.42005
1,3,4,4,90,90,31,63,2,1,2,1,1,1,65.9961,71.8555,2.3632,1.2471,1,3,1,0.72952,0.42287
1,3,4,5,60,90,38,17,2,2,2,2,1,1,54.1146,63.8802,1.9971,1.2475,1,3,4,1.0627,0.4141
1,3,4,6,90,60,31,35,2,2,2,2,1,1,58.1836,53.6263,0.74798,4.1134,1,3,2,0.76096,0.42276
1,3,4,7,60,90,42,17,1,2,1,2,1,1,51.0221,64.5312,3.3132,2.3803,1,2,1,1.3172,0.38709
1,3,4,8,60,90,38,63,2,1,2,1,1,1,50.6966,65.9961,1.7484,0.96535,2,2,1,1.0744,0.24158
1,3,4,9,60,60,38,35,2,2,2,1,1,0,55.5794,50.2083,1.08,2.213,1,4,1,0.83889,0.36968
1,3,4,10,90,90,31,17,2,2,2,2,1,1,50.0456,67.7865,2.1292,1.013,2,4,3,0.80019,0.44143
1,3,4,11,90,60,49,35,1,2,1,1,1,0,64.8568,49.8828,0.86502,2.4313,1,2,4,1.0109,0.48472
1,3,4,12,60,90,38,63,2,1,2,1,1,1,53.9518,54.9284,1.0642,1.714,2,2,1,0.78712,0.53728
1,3,4,13,60,60,42,35,1,2,1,2,1,1,49.5573,49.8828,1.1474,1.9805,1,4,1,1.084,0.54751
1,3,4,14,90,60,31,35,2,2,2,2,1,1,62.9036,54.9284,0.83116,1.7642,1,2,3,0.67036,0.40652
1,3,4,15,60,90,38,63,2,1,1,1,0,1,52.3242,66.4844,2.5966,1.2805,1,3,2,1.3373,0.50292
1,3,4,16,60,60,38,45,2,1,1,1,0,1,53.3008,67.4609,1.364,0.58105,1,3,2,0.94786,0.40918
1,3,4,17,90,90,49,17,1,2,1,2,1,1,70.0651,57.207,0.93068,2.1469,1,3,1,0.58209,0.48206
1,3,4,18,90,90,49,17,1,2,1,2,1,1,50.2083,49.3945,1.431,2.6804,1,2,4,1.1758,0.34791
1,3,4,19,60,90,42,17,1,2,1,2,1,1,49.3945,58.3464,2.0482,0.99865,2,1,3,1.2326,0.46769
1,3,4,20,90,60,31,45,2,1,2,1,1,1,71.5299,54.1146,1.0818,1.8149,1,4,1,0.61265,0.35906
1,3,4,21,90,90,49,63,1,1,1,1,1,1,67.4609,57.207,0.84761,1.5474,1,4,1,0.70933,0.42939
1,3,4,22,90,60,31,45,2,1,2,1,1,1,74.4596,54.4401,2.0298,3.0461,1,3,1,0.76918,0.50009
1,3,4,23,90,90,49,17,1,2,1,2,1,1,58.3464,54.7656,0.86533,1.6651,1,1,4,0.72412,0.49929
1,3,4,24,60,90,38,17,2,2,2,2,1,1,67.9492,53.9518,0.91495,1.7146,1,1,3,0.62883,0.49614
1,3,4,25,60,90,38,63,2,1,1,1,0,1,50.3711,51.1849,1.2473,3.3133,1,4,3,0.75683,0.9526
1,4,1,1,90,90,49,63,1,1,1,1,1,1,93.6654,81.2956,0.88104,2.5138,1,3,2,0.7329,0.48256
1,4,1,2,90,90,49,63,1,1,1,1,1,1,73.1576,72.9948,0.91357,1.8134,1,1,2,0.89303,0.49263
1,4,1,3,90,90,31,63,2,1,2,1,1,1,63.5547,75.2734,2.014,0.74783,1,4,2,1.0026,0.23563
1,4,1,4,60,60,42,35,1,2,2,2,0,1,63.0664,52.6497,0.91536,1.5484,1,2,3,0.76315,0.4238
1,4,1,5,60,90,42,63,1,1,2,1,0,1,54.4401,72.181,1.4637,0.68075,2,4,3,1.096,0.29803
1,4,1,6,60,60,42,45,1,1,1,1,1,1,63.3919,49.7201,0.79766,1.7307,1,4,2,0.72572,0.51546
1,4,1,7,90,60,49,45,1,1,1,1,1,1,71.6927,50.2083,0.99703,1.7635,1,3,1,0.60271,0.87072
1,4,1,8,90,90,49,17,1,2,1,2,1,1,62.5781,50.2083,1.6483,3.0812,1,3,4,1.1288,0.45572
1,4,1,9,60,90,38,17,2,2,2,2,1,1,62.2526,52.3242,0.84851,1.565,1,2,1,0.58452,0.38121
1,4,1,10,90,60,49,35,1,2,1,2,1,1,49.7201,49.5573,1.03,1.7465,1,4,2,1.8605,0.30962
1,4,1,11,60,90,38,63,2,1,1,1,0,1,50.5339,65.6706,1.7806,0.78104,2,2,3,0.92686,0.47048
1,4,1,12,60,60,42,35,1,2,1,2,1,1,49.8828,57.5326,1.8482,0.81536,2,3,1,1.83,0.42496
1,4,1,13,60,60,38,45,2,1,2,1,1,1,55.0911,50.0456,1.2307,2.1971,1,1,4,0.82524,0.45769
1,4,1,14,90,60,49,35,1,2,1,1,1,0,59.4857,54.6029,0.94727,1.6471,1,3,4,0.74966,0.47507
1,4,1,15,60,60,42,35,1,2,2,2,0,1,50.3711,50.0456,2.6311,1.7149,1,3,4,2.3381,0.53616
1,4,1,16,90,60,31,45,2,1,2,2,1,0,56.3932,50.0456,1.0152,1.8983,1,1,4,0.77256,0.37776
1,4,1,17,90,90,49,17,1,2,1,2,1,1,49.7201,56.3932,2.0136,1.0307,1,4,3,0.86412,0.41126
1,4,1,18,90,60,49,45,1,1,1,2,1,0,55.0911,50.2083,1.1641,2.3137,1,1,4,1.1454,0.37497
1,4,1,19,90,90,31,63,2,1,1,1,0,1,50.2083,50.0456,0.89841,1.7981,1,2,1,0.80909,0.49443
1,4,1,20,60,90,38,63,2,1,2,1,1,1,64.694,65.8333,1.547,0.88068,1,4,2,0.67971,0.43112
1,4,1,21,60,90,42,17,1,2,2,2,0,1,49.5573,57.207,2.1134,0.73071,2,3,2,1.1168,0.50703
1,4,1,22,60,90,38,17,2,2,2,2,1,1,52.6497,49.7201,0.79876,1.6151,1,1,3,0.94241,0.40531
1,4,1,23,90,60,31,45,2,1,1,1,0,1,49.8828,51.9987,1.9804,2.7802,2,1,3,1.1165,0.38135
1,4,1,24,60,90,42,17,1,2,1,2,1,1,49.7201,61.9271,2.6467,1.5139,2,1,4,1.2616,0.44809
1,4,1,25,90,90,31,63,2,1,2,1,1,1,59.3229,54.4401,0.7477,1.4142,1,4,3,0.76671,0.43624
1,4,2,1,60,60,42,45,1,1,1,1,1,1,49.7201,50.3711,3.0964,4.146,1,4,1,1.2712,0.27149
1,4,2,2,90,90,49,63,1,1,1,1,1,1,77.0638,62.2526,1.0651,2.0315,1,1,4,0.66866,0.30882
1,4,2,3,60,60,38,45,2,1,1,1,0,1,60.625,49.8828,0.7486,1.515,1,2,3,0.63772,0.43058
1,4,2,4,90,90,49,17,1,2,1,2,1,1,63.7174,52.6497,0.83182,1.9148,1,3,1,1.0869,0.46079
1,4,2,5,90,60,49,45,1,1,1,2,1,0,54.2773,49.8828,0.76477,1.7311,1,2,4,0.73794,0.27137
1,4,2,6,60,60,42,45,1,1,1,2,1,0,55.0911,49.8828,0.84747,2.197,1,4,2,0.80342,0.42318
1,4,2,7,60,90,42,63,1,1,2,1,0,1,49.7201,60.7878,2.5637,0.83102,2,3,4,0.86538,0.50811
1,4,2,8,60,60,42,35,1,2,1,1,1,0,61.276,49.8828,0.81465,1.7644,2,4,1,0.7227,0.44175
1,4,2,9,60,90,38,17,2,2,2,2,1,1,50.2083,67.1354,2.5652,1.3819,2,2,4,1.5378,0.34446
1,4,2,10,60,60,42,35,1,2,1,2,1,1,64.2057,50.5339,0.78066,1.5304,1,1,2,0.79768,0.42575
1,4,2,11,90,90,31,63,2,1,2,1,1,1,66.9727,50.6966,0.86395,1.6137,1,3,2,0.83797,0.43828
1,4,2,12,60,90,42,17,1,2,1,2,1,1,56.556,50.0456,0.76527,1.5484,1,1,3,0.89051,0.41889
1,4,2,13,60,60,38,45,2,1,2,1,1,1,51.8359,57.8581,0.69782,1.6809,2,2,4,1.4644,0.26685
1,4,2,14,60,60,42,35,1,2,2,2,0,1,56.2305,50.2083,0.58059,1.397,1,4,3,0.96039,0.28489
1,4,2,15,90,60,49,35,1,2,1,1,1,0,56.3932,49.5573,1.0474,1.8637,1,3,2,0.79795,0.2817
1,4,2,16,60,60,38,45,2,1,1,2,0,0,51.6732,50.2083,0.89782,1.6979,1,2,4,0.73751,0.52137
1,4,2,17,90,90,49,17,1,2,1,2,1,1,61.276,50.0456,1.0973,1.8804,1,2,4,0.86932,0.47621
1,4,2,18,90,90,49,63,1,1,1,1,1,1,60.2995,55.7422,0.89757,1.6807,1,3,4,1.2235,0.4439
1,4,2,19,90,60,31,45,2,1,2,1,1,1,49.3945,56.8815,1.8148,0.89895,1,1,2,0.91222,0.3017
1,4,2,20,60,60,38,45,2,1,1,1,0,1,50.0456,49.5573,0.78025,1.6967,2,4,1,1.5108,0.5024
1,4,2,21,60,90,42,17,1,2,1,2,1,1,50.3711,50.0456,1.1306,1.8637,2,2,3,0.74388,0.34207
1,4,2,22,90,90,31,17,2,2,2,2,1,1,62.7409,50.3711,0.89721,1.8802,1,1,4,0.61192,0.44585
1,4,2,23,60,90,38,63,2,1,1,1,0,1,56.8815,54.9284,0.94859,1.7983,1,3,1,0.7947,0.43162
1,4,2,24,60,90,42,17,1,2,2,2,0,1,49.5573,53.3008,1.5485,0.84868,2,2,4,1.786,0.46294
1,4,2,25,60,60,38,45,2,1,2,1,1,1,52.487,50.0456,0.73106,1.5642,1,4,1,0.85085,0.34034
1,4,3,1,90,90,49,63,1,1,1,1,1,1,50.0456,60.2995,2.2134,1.1305,2,2,3,1.9114,0.392
1,4,3,2,90,90,49,63,1,1,1,1,1,1,49.7201,58.8346,1.2818,0.51548,1,1,3,0.94306,0.42141
1,4,3,3,90,90,31,63,2,1,2,1,1,1,59.3229,58.9974,0.81429,1.5141,1,3,1,0.72807,0.62309
1,4,3,4,90,60,49,35,1,2,1,2,1,1,54.7656,57.0443,1.7966,1.1136,2,4,3,1.1284,0.70172
1,4,3,5,90,90,49,63,1,1,1,1,1,1,59.3229,56.3932,0.99815,1.6646,1,1,4,0.73121,0.36056
1,4,3,6,60,60,42,45,1,1,1,1,1,1,49.7201,49.7201,0.86525,1.5984,1,2,1,1.6231,0.3538
1,4,3,7,60,60,42,45,1,1,1,1,1,1,50.3711,50.6966,1.0488,1.6651,1,4,3,1.1874,0.30409
1,4,3,8,90,90,49,17,1,2,1,2,1,1,54.9284,52.8125,0.63111,1.3309,1,1,3,0.70411,0.39932
1,4,3,9,60,90,38,17,2,2,2,2,1,1,59.8112,50.3711,0.79764,2.8302,2,4,2,0.69535,0.43204
1,4,3,10,60,90,42,17,1,2,2,2,0,1,50.2083,59.6484,2.9977,2.1481,1,4,1,0.84263,0.45205
1,4,3,11,60,60,38,45,2,1,2,2,1,0,50.0456,49.8828,0.84765,1.5308,1,3,1,1.0107,0.43829
1,4,3,12,60,90,42,17,1,2,1,2,1,1,50.5339,51.3477,1.3472,1.7638,1,4,1,1.2026,0.45442
1,4,3,13,90,90,31,63,2,1,2,1,1,1,55.9049,50.6966,0.83188,1.6651,2,2,3,0.94039,0.35296
1,4,3,14,60,60,42,35,1,2,2,2,0,1,50.0456,57.5326,1.1472,2.1302,2,3,2,0.9872,0.47937
1,4,3,15,90,60,49,35,1,2,2,2,0,1,49.7201,54.4401,1.8314,0.94869,2,3,4,0.96436,0.48976
1,4,3,16,90,90,31,63,2,1,2,1,1,1,50.2083,63.0664,1.4478,0.53176,1,2,4,0.81256,0.29396
1,4,3,17,60,60,42,35,1,2,1,2,1,1,56.0677,50.5339,0.82849,1.9116,1,4,1,0.63642,0.39043
1,4,3,18,60,60,42,45,1,1,1,1,1,1,53.3008,60.7878,1.9814,1.1818,1,1,3,0.87814,0.4155
1,4,3,19,60,60,38,45,2,1,1,1,0,1,56.8815,49.7201,0.84647,1.6962,1,3,2,0.97056,0.77695
1,4,3,20,90,90,31,63,2,1,2,1,1,1,52.8125,52.1615,1.3141,2.2804,1,4,3,0.95345,0.43768
1,4,3,21,60,60,42,35,1,2,1,2,1,1,51.3477,50.6966,0.89788,1.3811,1,2,4,0.91618,0.32257
1,4,3,22,60,90,38,17,2,2,2,2,1,1,50.5339,56.0677,2.1463,1.2967,1,3,4,1.2202,0.4549
1,4,3,23,90,90,31,63,2,1,2,1,1,1,58.8346,52.8125,0.8477,1.5308,1,4,3,0.81024,0.47655
1,4,3,24,90,90,49,17,1,2,1,1,1,0,50.0456,49.8828,2.3305,1.3476,1,2,3,0.80204,0.49318
1,4,3,25,60,90,38,63,2,1,2,1,1,1,49.7201,60.625,1.797,0.69749,2,3,1,0.8829,0.4749
1,4,4,1,90,90,49,63,1,1,1,1,1,1,66.3216,75.9245,1.4473,3.1637,2,2,4,0.95316,0.4301
1,4,4,2,90,90,49,63,1,1,1,1,1,1,61.1133,70.2279,0.76533,1.4984,1,2,4,0.76136,0.41638
1,4,4,3,60,90,38,63,2,1,2,1,1,1,58.0208,76.901,2.6139,0.69806,1,2,1,0.96289,0.42408
1,4,4,4,90,90,49,17,1,2,1,2,1,1,54.9284,65.6706,2.6122,0.71308,1,4,3,0.96595,0.41835
1,4,4,5,90,60,49,45,1,1,1,1,1,1,50.2083,63.2292,1.9982,1.1319,2,4,3,0.8436,0.42132
1,4,4,6,60,60,42,45,1,1,1,1,1,1,63.5547,49.8828,0.68122,1.381,1,4,3,0.62498,0.58082
1,4,4,7,60,90,42,63,1,1,1,1,1,1,50.6966,62.0898,1.8302,0.74735,2,2,4,1.6529,0.44794
1,4,4,8,90,60,49,35,1,2,1,2,1,1,54.6029,50.3711,1.031,2.4469,1,4,3,0.67356,0.69208
1,4,4,9,90,60,31,35,2,2,2,2,1,1,53.9518,62.5781,2.5646,1.4651,1,2,1,0.6342,0.55652
1,4,4,10,60,60,42,35,1,2,2,1,0,0,50.5339,49.5573,1.2317,2.1983,1,3,1,1.8715,0.58381
1,4,4,11,90,90,31,63,2,1,2,1,1,1,51.6732,49.3945,1.9464,1.0635,2,4,1,0.77974,0.38562
1,4,4,12,90,90,49,17,1,2,1,2,1,1,65.9961,63.7174,0.78201,1.5985,1,4,3,0.6325,0.24911
1,4,4,13,60,60,38,45,2,1,2,1,1,1,50.0456,49.7201,2.0137,0.86416,1,4,3,1.2508,0.46233
1,4,4,14,60,90,42,17,1,2,1,2,1,1,50.2083,64.043,2.097,1.0309,1,4,1,0.77231,0.31946
1,4,4,15,60,60,42,35,1,2,1,2,1,1,60.7878,50.0456,0.83028,1.6301,1,2,1,0.69939,0.53694
1,4,4,16,90,60,31,45,2,1,2,1,1,1,60.1367,50.0456,1.0971,2.0135,1,3,1,0.93037,0.28106
1,4,4,17,60,90,42,17,1,2,1,2,1,1,49.5573,53.138,1.9817,1.1985,2,2,1,0.72726,0.51717
1,4,4,18,90,60,49,45,1,1,1,1,1,1,50.0456,58.5091,2.5638,1.331,1,1,3,1.6533,0.38286
1,4,4,19,60,90,38,63,2,1,2,2,1,0,62.0898,50.0456,1.8971,0.00042611,1,2,3,0.55133,0.42972
1,4,4,20,60,60,38,45,2,1,2,2,1,0,50.2083,50.2083,1.0309,1.7141,1,2,4,1.3485,1.1058
1,4,4,21,90,90,49,17,1,2,1,2,1,1,51.5104,62.5781,3.1625,0.98004,1,4,2,0.81611,0.46876
1,4,4,22,90,60,31,35,2,2,2,1,1,0,70.2279,61.276,0.96511,1.7982,1,4,2,0.63035,0.51954
1,4,4,23,90,90,31,63,2,1,2,1,1,1,70.2279,57.6953,0.94828,1.798,1,2,3,0.55367,0.24625
1,4,4,24,60,60,42,35,1,2,1,2,1,1,55.0911,49.5573,1.0807,1.7305,1,2,3,1.1036,0.44751
1,4,4,25,90,90,31,63,2,1,2,1,1,1,70.0651,68.2747,1.0476,1.914,1,3,1,0.61151,0.43013
2,1,1,1,60,90,39,61,2,1,1,2,0,0,100,54.7656,1.5127,3.4121,1,2,4,1.3733,0.56181
2,1,1,2,90,60,35,44,2,1,1,2,0,0,54.9284,54.6029,4.2918,2.4426,1,1,3,1.0396,0.43526
2,1,1,3,60,90,41,19,1,2,1,2,1,1,90.2474,90.4102,2.9787,0.81288,1,2,1,0.59161,0.22722
2,1,1,4,90,60,45,44,1,1,1,1,1,1,99.362,50.5339,3.2459,1.9298,1,1,3,0.77481,0.31382
2,1,1,5,90,60,45,44,1,1,1,2,1,0,100,99.6875,1.0964,2.4292,1,3,1,0.99048,0.45031
2,1,1,6,60,90,41,61,1,1,1,1,1,1,74.6224,100,0.86292,3.0288,2,4,3,1.2157,0.47239
2,1,1,7,90,60,35,36,2,2,2,1,1,0,49.5573,50.2083,1.3464,2.2961,2,3,1,1.7103,0.42975
2,1,1,8,90,60,45,44,1,1,1,2,1,0,100,50.2083,1.6137,3.3298,1,2,1,1.546,0.52739
2,1,1,9,60,90,41,61,1,1,1,2,1,0,99.8503,50.3711,2.2623,1.246,1,2,3,0.90607,0.424
2,1,1,10,60,60,39,44,2,1,1,1,0,1,99.6875,50.3711,1.9129,2.9626,1,1,2,1.4206,0.655
2,1,1,11,90,60,45,44,1,1,1,2,1,0,100,50.0456,0.96301,2.3625,1,4,1,1.0967,0.44049
2,1,1,12,60,90,41,19,1,2,1,1,1,0,100,50.0456,1.0962,2.1958,1,4,3,0.90947,0.50065
2,1,1,13,90,90,35,61,2,1,2,1,1,1,99.8503,99.6875,3.3118,2.0124,1,3,4,0.7262,0.27478
2,1,1,14,90,90,35,61,2,1,2,1,1,1,70.2279,100,2.4628,1.2966,2,4,2,1.0287,0.47329
2,1,1,15,90,60,35,44,2,1,1,2,0,0,50.3711,49.8828,1.1466,1.9297,2,3,2,2.9291,0.37429
2,1,1,16,90,60,45,44,1,1,1,2,1,0,89.9219,90.0846,2.8459,1.5298,2,3,1,0.87046,0.43114
2,1,1,17,60,60,41,36,1,2,1,1,1,0,98.8737,50.6966,3.0123,1.2463,1,3,2,0.79102,0.5235
2,1,1,18,90,90,45,19,1,2,1,2,1,1,99.8503,100,3.9451,1.9793,1,4,3,0.9536,0.50219
2,1,1,19,60,90,41,19,1,2,1,2,1,1,49.8828,100,2.8125,1.4131,2,3,4,1.3441,0.46369
2,1,1,20,60,60,39,36,2,2,2,2,1,1,49.8828,49.8828,0.96325,1.9962,1,3,2,0.97264,0.63158
2,1,1,21,90,90,45,19,1,2,1,2,1,1,100,99.6875,2.7128,1.3135,1,2,3,0.88246,0.47449
2,1,1,22,60,60,41,44,1,1,1,2,1,0,99.8503,70.0651,1.0455,2.5617,1,3,2,0.64169,0.31462
2,1,1,23,90,90,45,19,1,2,1,2,1,1,100,69.7396,1.2794,2.7123,1,4,1,0.72273,0.33755
2,1,1,24,60,90,39,19,2,2,1,2,0,1,60.4622,99.8503,5.8945,2.7957,2,3,1,2.9303,0.56885
2,1,1,25,90,60,45,36,1,2,1,2,1,1,80.4818,64.8568,1.8626,4.0951,1,1,3,1.0091,0.31654
2,1,2,1,90,90,35,61,2,1,2,1,1,1,74.6224,55.4167,1.1131,4.0953,1,3,1,3.7004,0.41319
2,1,2,2,90,60,35,44,2,1,2,2,1,0,49.7201,49.5573,2.2292,1.213,1,2,3,0.77896,0.21706
2,1,2,3,90,90,45,19,1,2,1,2,1,1,99.362,50.3711,1.2795,3.2954,1,1,3,1.1161,0.44482
2,1,2,4,60,60,41,44,1,1,1,2,1,0,55.2539,54.6029,2.429,1.0796,1,3,4,1.2243,0.43509
2,1,2,5,60,60,41,44,1,1,1,2,1,0,79.8307,59.974,1.2963,7.3273,1,3,2,0.68795,0.36681
2,1,2,6,90,90,45,61,1,1,1,1,1,1,100,55.0911,1.163,2.4792,1,3,1,0.99453,0.56648
2,1,2,7,60,90,39,19,2,2,1,2,0,1,99.6875,100,0.94679,4.0456,1,2,3,0.76949,0.60566
2,1,2,8,60,90,41,61,1,1,1,1,1,1,75.1107,100,3.0454,1.4128,2,4,2,0.93223,0.27658
2,1,2,9,90,90,45,61,1,1,1,2,1,0,99.6875,50.2083,1.746,3.2122,1,4,3,0.97456,0.40543
2,1,2,10,90,60,35,44,2,1,2,2,1,0,50.3711,50.3711,2.029,1.1628,2,4,3,1.5781,0.45271
2,1,2,11,60,90,41,61,1,1,2,1,0,1,54.9284,54.9284,4.8786,1.43,1,2,3,0.63994,0.40099
2,1,2,12,90,90,45,19,1,2,1,2,1,1,60.4622,100,3.4783,1.4958,2,2,4,0.7155,0.4672
2,1,2,13,90,90,35,61,2,1,2,1,1,1,50.2083,50.3711,0.99654,1.7963,1,2,1,0.9557,0.43822
2,1,2,14,90,90,35,61,2,1,2,1,1,1,65.3451,64.5312,1.9629,3.2125,1,2,3,0.72873,0.43319
2,1,2,15,60,90,39,61,2,1,1,1,0,1,50.0456,100,2.0623,4.6447,2,4,2,1.0649,0.49219
2,1,2,16,90,90,45,61,1,1,1,1,1,1,100,99.5247,1.3931,2.8759,1,1,4,0.97627,0.59881
2,1,2,17,60,60,41,36,1,2,1,2,1,1,100,100,1.2128,3.7619,2,4,2,1.0108,0.51894
2,1,2,18,60,60,41,36,1,2,1,2,1,1,64.694,100,2.8125,1.2133,2,2,3,0.89665,0.41015
2,1,2,19,60,90,41,19,1,2,1,2,1,1,50.8594,99.8503,1.1299,2.9626,2,2,1,0.95217,0.47091
2,1,2,20,90,60,35,36,2,2,1,2,0,1,49.8828,100,2.4954,1.1127,2,1,3,0.96593,0.40265
2,1,2,21,60,60,41,36,1,2,2,2,0,1,55.4167,99.8503,2.829,1.4296,2,3,2,0.99181,0.46207
2,1,2,22,60,90,41,61,1,1,1,1,1,1,99.5247,100,1.1959,2.512,2,3,4,0.94215,0.23366
2,1,2,23,60,60,41,36,1,2,2,2,0,1,50.2083,49.8828,3.0799,1.3307,1,3,2,1.0188,0.517
2,1,2,24,60,60,39,36,2,2,2,2,1,1,50.3711,99.8503,2.7952,1.5959,2,4,2,1.0441,0.46391
2,1,2,25,60,60,41,36,1,2,2,2,0,1,49.5573,51.0221,2.6455,1.3461,1,1,3,0.7853,0.46038
2,1,3,1,60,90,39,61,2,1,2,1,1,1,100,99.6875,3.0462,1.8133,1,2,4,0.78658,0.45357
2,1,3,2,60,60,39,44,2,1,2,1,1,1,75.4362,60.1367,1.1629,2.7124,2,2,3,1.3127,0.32045
2,1,3,3,60,60,41,36,1,2,1,1,1,0,99.6875,99.8503,1.8296,3.1958,1,4,3,1.4651,0.51556
2,1,3,4,60,60,41,44,1,1,1,1,1,1,100,99.362,1.2127,2.7788,1,2,4,1.2019,0.47696
2,1,3,5,90,60,45,44,1,1,1,1,1,1,50.6966,50.5339,1.2461,2.0959,1,1,3,2.4113,0.3279
2,1,3,6,90,90,45,61,1,1,1,1,1,1,52.9753,87.9688,3.1791,8.0107,2,4,3,1.428,0.31116
2,1,3,7,60,90,39,19,2,2,1,2,0,1,54.7656,99.6875,2.5795,1.3134,2,1,3,1.1326,0.60987
2,1,3,8,90,60,45,44,1,1,1,2,1,0,100,99.6875,2.2955,1.246,2,1,4,0.83773,0.30452
2,1,3,9,60,90,41,61,1,1,1,1,1,1,100,55.4167,1.2627,2.7289,1,3,4,0.8283,0.30251
2,1,3,10,60,60,39,44,2,1,1,1,0,1,99.8503,100,0.81328,2.1961,1,1,2,0.71495,0.22415
2,1,3,11,90,90,45,61,1,1,2,1,0,1,49.5573,100,5.3284,2.4962,2,4,1,1.3925,0.50777
2,1,3,12,90,90,45,19,1,2,1,2,1,1,100,99.1992,2.4456,1.2961,1,3,4,0.69856,0.54013
2,1,3,13,90,60,35,44,2,1,1,1,0,1,55.4167,54.6029,4.8785,1.9298,2,4,3,2.3567,0.4245
2,1,3,14,90,60,35,44,2,1,1,2,0,0,51.1849,51.0221,2.8623,1.9299,1,2,4,1.0934,0.42984
2,1,3,15,90,60,35,44,2,1,1,2,0,0,55.7422,52.3242,1.813,3.279,1,4,2,0.96658,0.4452
2,1,3,16,60,60,41,44,1,1,1,1,1,1,69.5768,54.7656,1.5962,6.8442,1,3,2,0.97765,0.63637
2,1,3,17,90,60,45,36,1,2,1,2,1,1,99.6875,50.0456,3.079,1.5964,1,2,4,0.96511,0.45991
2,1,3,18,60,60,41,36,1,2,1,1,1,0,100,74.6224,2.0626,4.0453,1,4,1,0.85267,0.36453
2,1,3,19,90,60,45,36,1,2,1,2,1,1,100,59.8112,1.5965,4.3455,1,3,1,0.80475,0.35973
2,1,3,20,90,90,35,19,2,2,2,2,1,1,54.9284,100,2.6292,1.3797,2,1,2,1.0853,0.52349
2,1,3,21,60,60,41,36,1,2,1,2,1,1,69.7396,70.2279,1.6298,7.3276,1,2,1,1.1318,0.41779
2,1,3,22,90,90,45,61,1,1,1,1,1,1,100,60.1367,1.5959,2.7789,1,2,3,0.80471,0.40575
2,1,3,23,60,90,41,19,1,2,1,2,1,1,61.4388,61.9271,1.8628,3.0291,2,2,4,1.9224,0.49148
2,1,3,24,60,90,39,19,2,2,1,2,0,1,60.1367,50.6966,1.2627,4.4282,1,3,2,0.88705,0.36646
2,1,3,25,60,90,41,19,1,2,1,1,1,0,53.6263,50.6966,5.2445,1.7293,1,3,2,0.72182,0.36069
2,1,4,1,90,90,35,61,2,1,1,1,0,1,100,99.6875,4.3119,2.7126,1,2,3,1.0374,0.44803
2,1,4,2,60,90,39,61,2,1,1,1,0,1,100,60.1367,2.5127,4.3121,1,3,4,0.72027,0.27088
2,1,4,3,90,60,45,36,1,2,1,1,1,0,100,59.6484,1.2461,2.0959,1,3,2,0.61791,0.49843
2,1,4,4,90,90,45,61,1,1,1,1,1,1,61.4388,60.4622,1.6798,3.2625,2,3,2,1.3283,0.5089
2,1,4,5,90,60,45,44,1,1,1,1,1,1,59.974,59.974,2.0124,3.3286,2,2,1,1.1333,0.90776
2,1,4,6,60,60,41,44,1,1,1,2,1,0,49.8828,50.0456,1.063,3.2289,2,3,2,1.7205,0.26301
2,1,4,7,90,90,35,19,2,2,2,2,1,1,50.2083,99.5247,3.6287,1.1796,2,1,2,1.2886,0.45627
2,1,4,8,60,90,41,61,1,1,1,1,1,1,51.0221,99.5247,4.7785,2.1296,2,4,1,1.1187,0.37954
2,1,4,9,60,90,41,61,1,1,1,1,1,1,50.6966,100,3.5288,1.2131,2,4,3,1.0444,0.40812
2,1,4,10,90,90,35,61,2,1,2,1,1,1,100,100,2.6793,1.6131,1,4,1,1.1156,0.39505
2,1,4,11,90,60,45,44,1,1,2,2,0,0,49.8828,50.5339,1.7292,2.8456,1,1,4,0.82073,0.25465
2,1,4,12,60,60,41,36,1,2,2,2,0,1,50.5339,50.6966,2.2456,1.2461,1,2,4,0.68751,0.51103
2,1,4,13,90,60,35,44,2,1,1,1,0,1,50.8594,50.3711,1.1436,1.8934,2,1,4,0.98134,0.3532
2,1,4,14,60,60,39,44,2,1,1,2,0,0,75.1107,49.7201,1.7626,6.0113,1,1,2,0.88952,0.49064
2,1,4,15,90,60,35,44,2,1,2,2,1,0,60.4622,50.3711,2.6956,1.5461,1,1,4,0.64713,0.48973
2,1,4,16,60,60,41,44,1,1,1,2,1,0,50.8594,50.6966,6.3946,1.7798,1,2,4,1.1158,0.48947
2,1,4,17,60,60,41,36,1,2,1,2,1,1,100,54.9284,1.5793,2.4791,1,3,2,0.69441,0.49263
2,1,4,18,90,90,45,19,1,2,1,2,1,1,99.5247,99.6875,1.9964,3.4293,2,1,4,0.68455,0.26847
2,1,4,19,90,60,45,36,1,2,1,2,1,1,100,49.8828,1.6461,2.8457,1,2,1,0.76113,0.40624
2,1,4,20,60,90,39,19,2,2,1,2,0,1,74.7852,100,1.6297,3.7956,2,2,1,2.2048,0.43234
2,1,4,21,90,90,45,19,1,2,1,2,1,1,49.3945,99.6875,2.1931,0.81045,1,1,3,1.0236,0.36853
2,1,4,22,90,90,45,61,1,1,1,1,1,1,100,49.3945,1.8457,3.112,1,4,2,0.93827,0.53576
2,1,4,23,60,90,41,19,1,2,1,2,1,1,99.8503,69.5768,1.3958,2.912,1,3,2,1.544,0.57131
2,1,4,24,90,90,35,19,2,2,1,1,0,0,50.2083,50.2083,0.96294,2.0626,2,3,4,1.1711,0.4803
2,1,4,25,90,90,45,19,1,2,1,2,1,1,51.3477,99.5247,2.4622,1.2795,1,2,4,0.92663,0.42912
2,2,1,1,90,90,35,19,2,2,2,2,1,1,100,99.6875,2.6624,1.3462,1,2,1,0.65122,0.4178
2,2,1,2,60,90,39,19,2,2,1,2,0,1,50.0456,99.8503,4.0454,2.5794,2,1,2,1.2074,0.5138
2,2,1,3,60,60,41,36,1,2,2,2,0,1,49.8828,50.3711,3.2787,1.8128,2,3,1,0.68549,0.44432
2,2,1,4,60,60,41,36,1,2,1,2,1,1,100,50.2083,1.5295,2.7957,1,4,3,0.8232,0.43349
2,2,1,5,60,60,39,44,2,1,1,2,0,0,99.1992,50.3711,1.3963,5.145,1,1,4,0.71368,0.44892
2,2,1,6,90,60,35,44,2,1,1,2,0,0,50.8594,50.2083,1.2797,2.0295,2,1,2,0.52894,0.49732
2,2,1,7,60,60,39,44,2,1,1,2,0,0,100,50.0456,3.0787,1.7127,1,4,1,0.85226,0.35645
2,2,1,8,60,60,39,36,2,2,1,2,0,1,75.4362,50.2083,0.92962,6.5109,1,3,4,0.74673,0.52069
2,2,1,9,90,90,35,61,2,1,1,1,0,1,54.9284,70.0651,6.5112,1.7965,2,3,4,0.80522,0.43135
2,2,1,10,90,90,35,61,2,1,1,1,0,1,100,99.5247,1.2634,2.4795,1,4,1,0.86455,0.35976
2,2,1,11,60,60,39,44,2,1,2,2,1,0,64.694,50.0456,3.6785,2.0458,1,2,1,1.0363,0.35693
2,2,1,12,60,60,39,44,2,1,1,1,0,1,49.7201,50.3711,1.0626,2.1455,1,1,2,0.65935,0.46163
2,2,1,13,90,60,45,44,1,1,1,1,1,1,95.944,51.0221,2.5125,1.3297,1,4,1,0.70995,0.33349
2,2,1,14,90,60,35,36,2,2,1,2,0,1,50.5339,50.6966,1.3462,2.3292,2,1,4,0.77387,0.26677
2,2,1,15,90,90,45,61,1,1,1,2,1,0,100,50.5339,3.1452,2.0458,1,1,4,0.73948,0.5119
2,2,1,16,60,60,41,36,1,2,1,2,1,1,99.6875,50.0456,2.7799,1.3972,1,4,3,0.73075,0.47252
2,2,1,17,60,90,39,19,2,2,1,2,0,1,99.1992,100,1.1466,3.0126,2,1,2,0.80212,0.30095
2,2,1,18,90,60,35,36,2,2,1,1,0,0,64.5312,50.5339,1.1768,6.0251,1,4,1,0.79004,0.44823
2,2,1,19,60,60,41,36,1,2,2,1,0,0,49.5573,50.8594,2.1125,1.2963,1,3,1,1.0824,0.51564
2,2,1,20,60,90,41,19,1,2,2,2,0,1,60.4622,99.6875,2.4793,1.3799,2,1,3,0.99409,0.51956
2,2,1,21,90,60,35,44,2,1,2,1,1,1,60.4622,50.5339,2.1957,1.1628,1,3,2,1.0192,0.47829
2,2,1,22,60,60,39,36,2,2,2,2,1,1,50.5339,50.3711,1.5465,2.7128,1,3,2,0.84236,0.22792
2,2,1,23,90,60,35,36,2,2,2,1,1,0,50.2083,49.5573,1.3796,2.2627,1,3,1,0.78975,0.1857
2,2,1,24,60,60,41,36,1,2,1,2,1,1,49.7201,99.362,4.2287,1.6796,2,3,1,0.77119,0.20767
2,2,1,25,60,60,41,36,1,2,2,1,0,0,50.3711,50.5339,1.1633,2.4295,1,4,1,1.8483,0.36187
2,2,2,1,90,90,35,19,2,2,2,2,1,1,60.2995,59.6484,2.012,4.3446,2,4,1,2.8853,0.3249
2,2,2,2,60,90,39,19,2,2,1,2,0,1,60.1367,99.6875,4.2116,2.1792,2,1,4,0.66005,0.32065
2,2,2,3,60,90,41,19,1,2,1,2,1,1,59.974,100,4.7111,1.7456,2,3,2,0.85327,0.21392
2,2,2,4,60,60,41,36,1,2,1,2,1,1,69.5768,50.3711,3.2456,1.2964,1,4,1,0.82985,0.36699
2,2,2,5,60,90,39,61,2,1,1,1,0,1,70.2279,50.3711,3.262,2.0459,1,2,4,0.57525,0.4431
2,2,2,6,60,90,39,61,2,1,1,2,0,0,100,52.487,1.4791,3.7783,1,1,2,0.73131,0.37624
2,2,2,7,90,90,35,61,2,1,1,1,0,1,50.5339,50.5339,1.3962,2.2293,2,1,4,0.6843,0.24389
2,2,2,8,90,60,35,36,2,2,1,2,0,1,70.0651,51.0221,2.4458,4.1285,1,4,3,0.7325,0.40057
2,2,2,9,60,60,39,44,2,1,1,2,0,0,100,50.0456,2.7792,1.6464,1,4,3,0.69215,0.25142
2,2,2,10,90,60,35,44,2,1,1,2,0,0,100,50.0456,1.3959,2.6122,1,1,4,0.74602,0.33541
2,2,2,11,90,90,35,61,2,1,2,1,1,1,75.1107,50.8594,2.3957,1.3295,1,2,3,0.64523,0.3687
2,2,2,12,90,90,35,61,2,1,2,1,1,1,75.1107,50.5339,1.4629,4.0619,1,3,2,0.58803,0.4782
2,2,2,13,60,60,41,44,1,1,1,1,1,1,65.0195,50.0456,2.6291,1.0465,1,4,1,0.86103,0.39649
2,2,2,14,60,60,39,36,2,2,2,2,1,1,50.0456,50.5339,1.3629,2.7957,2,3,1,1.0999,0.49235
2,2,2,15,90,60,45,44,1,1,1,1,1,1,100,57.0443,1.1628,2.7955,1,3,2,0.86131,0.51095
2,2,2,16,60,60,41,36,1,2,1,2,1,1,60.4622,50.0456,2.6624,1.2964,1,1,2,0.75485,0.44018
2,2,2,17,60,60,39,36,2,2,1,2,0,1,99.362,55.7422,1.9792,3.7453,1,3,1,0.97747,0.51176
2,2,2,18,60,90,39,19,2,2,2,2,1,1,99.5247,99.5247,4.4286,2.1461,1,2,4,0.78627,0.5404
2,2,2,19,60,60,41,36,1,2,2,1,0,0,50.2083,50.5339,2.7289,1.846,1,3,2,0.67352,0.32985
2,2,2,20,60,90,41,19,1,2,1,2,1,1,99.362,99.6875,2.4959,1.1132,1,1,4,0.64556,0.39827
2,2,2,21,60,60,39,44,2,1,2,2,1,0,59.974,50.6966,3.1791,7.8108,1,3,1,0.61204,0.31321
2,2,2,22,60,90,39,19,2,2,1,2,0,1,50.2083,100,1.4299,3.2126,2,3,2,0.86023,0.51526
2,2,2,23,90,60,35,36,2,2,2,1,1,0,50.0456,49.8828,2.3126,1.563,1,1,2,0.58175,0.38668
2,2,2,24,60,60,41,36,1,2,1,2,1,1,50.6966,100,2.6294,1.1134,2,2,3,0.99447,0.4167
2,2,2,25,90,90,45,19,1,2,1,2,1,1,99.8503,100,3.1952,1.0127,1,2,3,1.1493,0.45725
2,2,3,1,60,90,39,19,2,2,1,2,0,1,99.8503,99.6875,3.3624,1.963,1,4,2,0.78762,0.42945
2,2,3,2,90,90,35,19,2,2,1,2,0,1,50.3711,99.6875,3.3132,1.9305,2,2,3,0.84301,0.44664
2,2,3,3,90,90,45,19,1,2,1,2,1,1,99.8503,50.8594,1.6128,2.6625,1,3,4,0.64885,0.52391
2,2,3,4,90,60,45,36,1,2,1,2,1,1,99.8503,50.3711,1.4462,2.9124,1,1,2,0.61882,0.55703
2,2,3,5,60,60,39,44,2,1,1,1,0,1,50.6966,51.3477,1.4961,2.5125,2,3,2,0.82123,0.41332
2,2,3,6,60,90,39,61,2,1,1,1,0,1,50.6966,100,4.295,1.7461,1,1,2,0.93843,0.54274
2,2,3,7,60,90,39,61,2,1,1,1,0,1,50.8594,99.5247,1.5934,2.7931,2,4,3,1.1155,0.44335
2,2,3,8,60,60,39,36,2,2,1,2,0,1,50.3711,76.0872,4.2281,2.4622,2,2,3,0.91406,0.41042
2,2,3,9,90,90,35,61,2,1,2,1,1,1,49.3945,50.8594,2.6961,1.3633,1,3,1,0.83564,0.39106
2,2,3,10,90,60,35,44,2,1,1,1,0,1,50.2083,50.6966,1.4965,2.6794,1,3,2,0.58658,0.57539
2,2,3,11,90,90,35,61,2,1,2,1,1,1,75.2734,99.8503,1.464,3.0468,2,2,3,0.93532,0.46743
2,2,3,12,90,60,35,44,2,1,2,2,1,0,80.319,60.7878,1.5969,8.4443,1,3,2,0.82674,0.50952
2,2,3,13,90,60,45,44,1,1,1,1,1,1,100,51.0221,1.5128,3.0789,1,3,2,0.60455,0.51998
2,2,3,14,60,60,39,36,2,2,2,1,1,0,74.7852,50.8594,3.0123,1.4463,1,1,3,0.71239,0.39339
2,2,3,15,60,60,41,44,1,1,2,2,0,0,49.2318,49.8828,2.1623,1.346,1,1,4,0.78699,0.34193
2,2,3,16,90,90,45,19,1,2,1,2,1,1,99.8503,85.6901,1.0295,2.3458,1,1,3,0.74105,0.43573
2,2,3,17,60,90,39,19,2,2,1,2,0,1,89.7591,70.3906,1.1963,3.0291,1,2,3,0.71726,0.37428
2,2,3,18,60,90,39,19,2,2,2,2,1,1,49.8828,99.6875,4.1448,3.0787,2,1,2,1.0533,0.3112
2,2,3,19,90,60,45,36,1,2,1,2,1,1,100,49.8828,1.0631,2.1294,1,3,1,1.0613,0.206
2,2,3,20,90,90,45,19,1,2,1,1,1,0,99.1992,50.0456,1.2632,2.5462,1,1,2,0.55547,0.21446
2,2,3,21,60,60,39,44,2,1,1,2,0,0,60.2995,49.8828,2.4461,1.5133,1,2,4,0.81353,0.60677
2,2,3,22,60,60,39,36,2,2,1,2,0,1,65.0195,50.0456,2.7128,1.7133,1,2,3,0.61395,0.52945
2,2,3,23,60,90,39,19,2,2,1,2,0,1,65.1823,50.2083,2.0128,8.7935,1,3,4,0.65878,0.49974
2,2,3,24,60,60,41,36,1,2,1,2,1,1,74.9479,49.8828,1.0798,5.3615,1,4,1,0.58226,0.36926
2,2,3,25,60,90,41,19,1,2,1,2,1,1,80.4818,50.3711,1.0295,6.0276,1,2,4,0.78711,0.46034
2,2,4,1,90,60,35,36,2,2,2,2,1,1,100,50.0456,1.6462,3.7455,1,4,1,1.2668,0.3954
2,2,4,2,90,90,35,19,2,2,2,2,1,1,99.8503,60.1367,4.4952,1.9296,1,2,4,0.49538,0.41507
2,2,4,3,90,60,45,36,1,2,1,1,1,0,89.4336,50.2083,2.596,1.2634,1,4,2,0.72379,0.35226
2,2,4,4,90,60,45,36,1,2,1,2,1,1,99.8503,50.5339,2.1288,1.0292,1,2,4,0.69854,0.55484
2,2,4,5,60,60,39,44,2,1,1,2,0,0,99.6875,50.5339,1.4795,2.8625,1,4,3,0.64166,0.22577
2,2,4,6,60,90,39,61,2,1,1,1,0,1,75.2734,99.8503,3.3952,1.8959,2,3,1,1.6411,0.55601
2,2,4,7,90,90,35,61,2,1,2,1,1,1,50.6966,51.0221,2.7263,1.8601,1,4,3,0.74986,0.25722
2,2,4,8,90,90,35,19,2,2,2,2,1,1,77.2266,50.2083,2.7961,4.1789,1,1,4,0.65666,0.434
2,2,4,9,60,60,39,44,2,1,2,1,1,1,53.3008,60.1367,3.8288,2.0796,2,2,4,0.84736,0.45916
2,2,4,10,60,60,39,44,2,1,1,1,0,1,74.9479,58.5091,2.9951,5.5442,1,4,1,0.7316,0.54586
2,2,4,11,60,60,39,44,2,1,1,2,0,0,87.1549,60.1367,1.5131,4.0289,1,3,1,0.93904,0.4321
2,2,4,12,60,90,39,61,2,1,1,1,0,1,75.1107,58.0208,1.2966,3.096,1,1,3,0.78355,0.44913
2,2,4,13,90,90,45,61,1,1,1,1,1,1,100,60.4622,1.4465,4.8286,1,2,4,0.7501,0.52439
2,2,4,14,60,60,39,36,2,2,1,2,0,1,49.7201,99.6875,3.3125,1.3635,2,1,4,1.3333,0.25869
2,2,4,15,90,90,45,61,1,1,1,1,1,1,99.6875,99.362,2.4958,3.862,1,2,3,0.66436,0.47483
2,2,4,16,90,60,45,36,1,2,1,2,1,1,99.6875,50.5339,3.2455,1.8794,1,2,1,0.63017,0.34269
2,2,4,17,90,90,35,19,2,2,1,2,0,1,55.5794,100,2.4793,1.0133,2,1,2,0.9148,0.426
2,2,4,18,60,60,39,36,2,2,2,1,1,0,50.5339,50.6966,1.9962,1.0466,1,2,3,0.69953,0.40276
2,2,4,19,90,60,45,36,1,2,1,2,1,1,75.1107,49.5573,2.7954,1.2628,1,1,2,0.905,0.45581
2,2,4,20,60,60,41,36,1,2,1,1,1,0,90.0846,60.2995,1.363,5.7447,1,2,1,0.62456,0.41895
2,2,4,21,60,90,39,61,2,1,1,1,0,1,99.8503,100,1.2465,2.4128,1,2,3,0.7252,0.4608
2,2,4,22,60,60,39,36,2,2,1,2,0,1,69.9023,49.8828,2.4456,1.4294,1,4,3,1.3164,0.42673
2,2,4,23,90,60,35,36,2,2,2,1,1,0,94.4792,50.3711,2.8295,1.6967,1,4,1,0.96458,0.32768
2,2,4,24,90,60,45,36,1,2,1,1,1,0,100,69.5768,1.3964,3.2292,1,2,1,0.75388,0.47247
2,2,4,25,90,90,45,19,1,2,1,2,1,1,100,99.8503,1.0964,2.9292,2,4,3,1.1522,0.39437
2,3,1,1,90,60,45,44,1,1,1,2,1,0,99.5247,50.3711,1.5628,3.0289,1,1,3,0.91935,0.51771
2,3,1,2,90,90,35,19,2,2,2,2,1,1,89.5964,55.2539,1.3298,4.2455,2,2,1,0.8098,0.4129
2,3,1,3,90,60,45,44,1,1,1,2,1,0,100,50.5339,2.0954,1.1792,1,3,2,0.69964,0.32278
2,3,1,4,60,90,41,61,1,1,1,1,1,1,100,53.138,1.5138,3.2299,1,4,1,1.2137,0.31351
2,3,1,5,60,90,41,61,1,1,2,1,0,1,50.0456,69.9023,1.3628,4.9782,2,1,4,0.9326,0.54671
2,3,1,6,90,60,45,44,1,1,1,2,1,0,100,54.7656,1.3294,4.1451,1,2,1,0.61589,0.37187
2,3,1,7,60,60,39,44,2,1,2,2,1,0,50.8594,50.3711,1.5628,2.6957,1,2,3,1.0193,0.31636
2,3,1,8,60,60,39,36,2,2,2,2,1,1,49.8828,50.5339,2.7627,1.2634,1,1,3,0.76331,0.43246
2,3,1,9,90,60,35,36,2,2,2,2,1,1,50.0456,49.7201,2.8457,1.3297,1,4,1,1.0493,0.43611
2,3,1,10,90,90,45,19,1,2,1,2,1,1,99.5247,49.8828,2.4121,1.2792,1,2,3,0.80517,0.3703
2,3,1,11,60,60,39,36,2,2,2,1,1,0,72.9948,50.3711,3.5623,2.1963,1,2,1,1.5793,0.54439
2,3,1,12,60,90,39,61,2,1,2,1,1,1,70.2279,50.8594,3.4285,1.1629,1,3,2,0.70276,0.3246
2,3,1,13,90,60,35,44,2,1,2,1,1,1,100,59.8112,2.063,3.3127,1,3,2,0.92426,0.51624
2,3,1,14,60,90,41,61,1,1,2,2,0,0,50.0456,49.8828,2.1956,3.3453,1,2,3,0.54077,0.31485
2,3,1,15,90,90,35,61,2,1,1,1,0,1,50.6966,60.4622,3.6451,1.7293,2,3,4,1.1215,0.50499
2,3,1,16,90,60,45,44,1,1,1,1,1,1,60.4622,51.1849,1.6461,6.6775,1,4,1,0.69377,0.49993
2,3,1,17,60,60,39,36,2,2,2,1,1,0,51.0221,51.0221,4.5105,1.8949,1,3,2,3.7385,2.8811
2,3,1,18,90,60,35,44,2,1,2,2,1,0,62.0898,50.6966,1.2462,4.3617,1,4,3,0.63777,0.40579
2,3,1,19,60,90,39,61,2,1,2,1,1,1,51.0221,50.3711,2.095,1.0623,1,1,4,0.77278,0.44434
2,3,1,20,60,90,41,61,1,1,1,1,1,1,99.5247,54.4401,3.7786,2.2128,1,3,4,0.84517,0.50813
2,3,1,21,60,90,41,19,1,2,1,2,1,1,99.8503,77.3893,3.462,1.9461,2,2,1,0.80436,0.43833
2,3,1,22,90,60,45,44,1,1,2,2,0,0,50.2083,50.3711,2.8288,1.7793,1,3,2,0.86212,0.71137
2,3,1,23,90,90,45,61,1,1,1,1,1,1,99.5247,100,1.5793,3.0954,1,2,4,0.92305,0.44774
2,3,1,24,60,60,41,44,1,1,1,2,1,0,100,51.1849,2.0629,4.0122,1,4,1,0.75192,0.39615
2,3,1,25,60,90,41,19,1,2,1,1,1,0,75.599,50.5339,2.529,1.2963,1,4,1,0.96971,0.31606
2,3,2,1,60,90,41,61,1,1,1,1,1,1,100,59.6484,2.046,4.1119,1,3,1,0.8381,0.5021
2,3,2,2,90,90,35,19,2,2,2,2,1,1,99.362,100,3.1956,1.8628,1,2,4,0.8799,0.45012
2,3,2,3,90,90,45,61,1,1,1,1,1,1,50.5339,100,1.7294,3.0623,2,1,2,0.77339,0.52772
2,3,2,4,60,60,41,44,1,1,2,2,0,0,50.0456,49.5573,3.2789,1.5964,1,2,1,1.0307,0.44907
2,3,2,5,90,60,45,44,1,1,1,2,1,0,91.224,50.3711,1.8292,4.9948,1,3,4,0.70767,0.56239
2,3,2,6,60,60,41,44,1,1,1,1,1,1,99.1992,50.2083,3.3623,1.6464,1,3,2,0.62442,0.4591
2,3,2,7,60,60,39,44,2,1,1,1,0,1,100,50.3711,1.6295,2.8957,1,4,3,0.85156,0.43124
2,3,2,8,90,60,35,36,2,2,2,1,1,0,75.1107,50.5339,2.8134,1.5639,1,4,3,0.83759,0.37556
2,3,2,9,90,90,35,19,2,2,2,2,1,1,50.0456,54.7656,1.3296,3.1622,2,1,2,1.3332,0.46125
2,3,2,10,60,60,41,36,1,2,2,2,0,1,50.3711,50.8594,2.1961,1.3299,1,1,2,0.67859,0.4715
2,3,2,11,60,60,39,36,2,2,2,2,1,1,49.8828,50.3711,1.8795,0.9464,1,2,4,0.64015,0.43755
2,3,2,12,60,90,39,61,2,1,2,1,1,1,49.7201,58.6719,1.3125,2.4954,2,2,1,1.0009,0.73151
2,3,2,13,90,60,35,44,2,1,1,2,0,0,49.8828,50.3711,1.3802,2.43,1,2,1,0.64877,0.42423
2,3,2,14,90,60,45,44,1,1,1,2,1,0,50.3711,49.7201,1.2631,2.6627,1,3,1,0.65358,0.70146
2,3,2,15,60,60,39,44,2,1,1,1,0,1,49.8828,49.5573,1.5296,2.6625,2,1,3,0.86293,0.43812
2,3,2,16,60,60,41,44,1,1,1,2,1,0,50.8594,50.3711,1.5628,2.8787,1,4,3,0.72833,0.42323
2,3,2,17,60,90,39,19,2,2,1,2,0,1,50.2083,49.5573,0.963,1.996,2,1,3,0.80586,0.40981
2,3,2,18,60,60,39,44,2,1,2,1,1,1,64.8568,50.3711,2.9292,2.0129,1,1,2,0.58604,0.45266
2,3,2,19,90,90,35,61,2,1,2,1,1,1,65.3451,50.2083,3.1458,2.0798,1,4,1,0.75443,0.41784
2,3,2,20,60,60,41,44,1,1,2,2,0,0,50.2083,50.2083,1.7619,3.2781,2,3,4,1.1313,0.48148
2,3,2,21,60,90,41,19,1,2,2,1,0,0,59.8112,50.3711,1.8793,5.9945,1,1,2,0.56985,0.35739
2,3,2,22,60,60,41,44,1,1,2,2,0,0,50.5339,50.6966,1.5296,2.6959,1,2,3,0.65931,0.41187
2,3,2,23,90,90,45,61,1,1,2,1,0,1,50.2083,50.3711,2.6794,1.2468,1,1,3,0.61245,0.449
2,3,2,24,90,90,45,61,1,1,1,1,1,1,99.8503,65.1823,1.4965,2.7294,1,1,4,0.73817,0.41729
2,3,2,25,90,90,45,19,1,2,1,2,1,1,100,58.6719,1.1297,2.1294,1,1,3,0.76208,0.39
2,3,3,1,60,60,41,44,1,1,2,1,0,1,56.3932,51.0221,1.4797,2.8791,1,2,1,0.80063,0.42714
2,3,3,2,60,90,39,19,2,2,1,1,0,0,57.207,58.5091,1.4133,2.6629,1,4,1,0.6521,0.3384
2,3,3,3,90,90,45,61,1,1,1,2,1,0,99.6875,50.8594,1.2632,3.1626,1,1,3,0.64444,0.39052
2,3,3,4,60,90,41,61,1,1,1,2,1,0,99.6875,55.2539,1.3298,2.796,1,1,4,0.55376,0.47173
2,3,3,5,60,90,41,61,1,1,1,1,1,1,100,50.8594,1.9138,3.6798,1,3,1,0.63783,0.56588
2,3,3,6,90,60,45,44,1,1,1,2,1,0,75.2734,50.5339,1.9628,3.279,1,2,3,0.9502,0.33186
2,3,3,7,60,60,39,44,2,1,1,1,0,1,100,50.0456,1.1799,2.9459,1,4,3,0.6556,0.32232
2,3,3,8,90,60,35,36,2,2,2,2,1,1,82.9232,49.5573,2.094,3.7768,1,2,1,0.56339,0.39457
2,3,3,9,90,60,35,36,2,2,2,2,1,1,76.4128,50.3711,1.9631,3.7291,1,4,1,0.86039,0.55206
2,3,3,10,90,90,45,19,1,2,1,2,1,1,100,65.9961,1.1129,3.1455,1,3,2,0.67744,0.43007
2,3,3,11,60,90,39,19,2,2,1,2,0,1,99.362,99.8503,1.9296,3.7124,2,2,3,0.63197,0.36193
2,3,3,12,90,90,35,61,2,1,1,1,0,1,56.556,55.9049,0.96313,2.0961,1,1,2,0.60572,0.54236
2,3,3,13,90,60,35,44,2,1,2,2,1,0,60.4622,50.3711,2.0124,5.5944,1,1,3,0.73037,0.45566
2,3,3,14,60,60,41,44,1,1,1,2,1,0,49.8828,50.3711,2.379,1.4128,1,2,3,0.71565,0.3152
2,3,3,15,90,60,35,44,2,1,1,2,0,0,66.6471,50.3711,2.2955,3.4285,1,2,3,0.62154,0.42606
2,3,3,16,90,90,45,61,1,1,1,1,1,1,74.9479,74.7852,0.96281,2.3623,1,2,1,0.52577,0.50566
2,3,3,17,90,90,35,19,2,2,2,2,1,1,50.5339,94.8047,0.92991,2.7459,2,3,1,0.75374,0.45698
2,3,3,18,90,60,35,44,2,1,1,2,0,0,62.0898,100,2.5792,1.4965,2,4,3,0.83902,0.42539
2,3,3,19,90,60,35,44,2,1,1,1,0,1,99.5247,59.974,2.5457,3.7453,1,1,3,0.57724,0.24673
2,3,3,20,60,90,41,61,1,1,1,1,1,1,89.7591,99.6875,3.0758,1.8597,1,4,3,0.74074,0.6109
2,3,3,21,60,90,41,19,1,2,1,2,1,1,57.3698,50.0456,1.6629,3.2789,1,4,1,0.64497,0.36568
2,3,3,22,90,90,45,61,1,1,1,1,1,1,100,99.8503,1.1462,2.2792,1,2,3,0.56026,0.38192
2,3,3,23,90,60,45,44,1,1,1,1,1,1,99.6875,49.8828,2.1622,3.3285,1,1,3,0.66234,0.42334
2,3,3,24,90,90,45,61,1,1,1,1,1,1,100,100,1.3124,2.5786,1,2,3,0.62718,0.37633
2,3,3,25,60,60,41,36,1,2,1,1,1,0,100,54.7656,1.7629,3.6456,1,3,1,0.51838,0.39443
2,3,4,1,90,60,45,44,1,1,1,2,1,0,99.6875,50.6966,0.96338,2.2796,1,4,1,0.68103,0.3517
2,3,4,2,90,60,35,36,2,2,1,1,0,0,51.3477,50.8594,1.4625,2.6622,1,1,3,0.65296,0.38136
2,3,4,3,90,90,45,61,1,1,1,1,1,1,100,100,1.4795,2.9624,2,2,4,0.63139,0.44781
2,3,4,4,90,90,45,61,1,1,1,1,1,1,99.5247,100,2.1624,3.3954,1,3,2,0.69493,0.45229
2,3,4,5,90,60,45,44,1,1,1,1,1,1,99.5247,100,1.7798,3.246,1,4,2,0.74998,0.5554
2,3,4,6,90,60,45,44,1,1,1,1,1,1,99.5247,56.3932,1.0126,2.3122,1,2,3,0.70293,0.49531
2,3,4,7,90,90,35,61,2,1,2,1,1,1,99.362,59.6484,1.6953,3.2115,1,3,4,0.61211,0.48466
2,3,4,8,60,90,39,19,2,2,2,2,1,1,60.1367,100,3.1624,1.5629,2,2,4,0.94773,0.51313
2,3,4,9,60,60,39,36,2,2,1,2,0,1,50.3711,50.2083,1.1795,2.3792,1,2,4,0.51715,0.47452
2,3,4,10,90,60,45,36,1,2,1,2,1,1,100,50.3711,1.1964,2.2962,1,1,2,0.99352,0.22959
2,3,4,11,90,90,35,19,2,2,1,2,0,1,50.6966,76.25,2.5793,1.5132,1,2,1,0.91877,0.43807
2,3,4,12,90,60,35,44,2,1,1,2,0,0,50.8594,50.2083,1.5131,2.4294,1,1,3,0.93589,0.4139
2,3,4,13,60,60,39,44,2,1,2,1,1,1,75.7617,50.3711,2.5096,1.2102,1,3,2,0.50053,0.45021
2,3,4,14,60,90,41,61,1,1,1,1,1,1,65.1823,100,3.1786,1.3793,2,3,2,0.53821,0.42561
2,3,4,15,60,90,39,61,2,1,1,1,0,1,56.2305,69.9023,5.3616,3.0459,2,2,1,0.73871,0.3826
2,3,4,16,90,60,45,44,1,1,1,1,1,1,74.6224,75.4362,1.5793,3.1122,1,4,3,1.1571,0.4743
2,3,4,17,60,60,39,36,2,2,1,1,0,0,100,74.6224,1.9294,3.4789,1,4,1,0.61259,0.56666
2,3,4,18,60,90,39,61,2,1,1,1,0,1,74.9479,100,3.11,1.5106,2,1,3,0.88869,0.41899
2,3,4,19,60,90,39,61,2,1,1,1,0,1,64.8568,100,2.6121,1.4126,2,1,2,0.80938,0.44277
2,3,4,20,90,90,45,61,1,1,1,1,1,1,70.2279,100,2.6791,1.6629,2,2,4,0.73545,0.46774
2,3,4,21,90,90,45,19,1,2,1,2,1,1,50.3711,99.362,2.9952,1.8792,2,2,1,1.3212,0.64021
2,3,4,22,90,60,45,44,1,1,1,1,1,1,49.8828,50.0456,1.28,2.0298,1,2,1,0.73058,0.24911
2,3,4,23,90,90,45,61,1,1,1,1,1,1,55.5794,99.6875,3.1957,1.3964,2,4,1,0.9257,0.44311
2,3,4,24,90,90,45,61,1,1,1,1,1,1,55.4167,100,2.646,0.9135,2,2,3,0.86275,0.40561
2,3,4,25,90,60,45,36,1,2,1,2,1,1,99.8503,54.7656,1.3295,2.6458,1,1,2,0.71776,0.39677
2,4,1,1,90,60,45,36,1,2,1,2,1,1,99.5247,50.5339,1.4797,2.6627,1,1,4,1.0879,0.59973
2,4,1,2,90,60,35,44,2,1,1,2,0,0,100,49.7201,2.162,3.5282,1,4,3,0.95391,3.0947
2,4,1,3,60,60,39,36,2,2,1,2,0,1,56.0677,54.7656,1.4794,2.9122,2,3,1,0.96395,0.5053
2,4,1,4,90,90,35,61,2,1,2,1,1,1,99.6875,57.0443,1.5459,2.6623,1,4,1,0.74382,0.40565
2,4,1,5,90,90,45,19,1,2,1,2,1,1,74.9479,90.2474,5.9778,1.9461,2,3,4,0.80217,0.52521
2,4,1,6,60,60,39,36,2,2,2,2,1,1,100,49.8828,2.0125,3.4787,1,1,2,0.52516,0.39401
2,4,1,7,90,60,35,44,2,1,2,2,1,0,99.362,50.6966,1.6627,3.6119,1,1,2,0.72092,0.35791
2,4,1,8,90,60,45,36,1,2,2,2,0,1,100,50.5339,1.3465,2.9459,1,4,1,0.61417,0.43565
2,4,1,9,90,60,45,36,1,2,1,2,1,1,100,50.3711,1.3964,3.1292,1,3,1,0.58107,0.3937
2,4,1,10,90,90,35,61,2,1,2,1,1,1,99.6875,55.5794,1.1966,2.413,1,1,4,0.54387,0.46949
2,4,1,11,90,60,45,44,1,1,1,2,1,0,64.5312,99.5247,2.6291,1.4296,2,2,1,0.81319,0.39301
2,4,1,12,60,90,39,61,2,1,2,1,1,1,56.2305,99.8503,3.3791,1.8798,2,1,4,0.75204,0.49396
2,4,1,13,90,60,45,44,1,1,1,1,1,1,74.6224,50.5339,2.8121,1.5293,1,1,3,0.53273,0.35502
2,4,1,14,60,60,41,36,1,2,2,1,0,0,99.1992,61.4388,1.8294,3.5122,1,1,2,0.54828,0.66593
2,4,1,15,90,90,35,19,2,2,2,2,1,1,99.1992,99.362,1.5793,2.6456,2,2,1,0.79304,0.49172
2,4,1,16,90,90,35,61,2,1,2,1,1,1,49.7201,99.8503,3.3123,1.7463,2,1,3,1.0179,0.27382
2,4,1,17,90,90,35,61,2,1,1,2,0,0,50.5339,50.3711,2.1628,1.2466,1,2,3,0.70005,0.40476
2,4,1,18,90,90,45,61,1,1,1,1,1,1,99.6875,50.6966,2.2291,3.5287,1,1,3,0.57753,0.42397
2,4,1,19,60,90,39,19,2,2,2,2,1,1,49.8828,99.8503,1.2965,2.9959,2,2,1,0.62655,0.39883
2,4,1,20,90,60,45,36,1,2,1,2,1,1,99.8503,50.2083,1.6962,3.3622,1,3,1,0.65261,0.80349
2,4,1,21,60,60,41,36,1,2,2,2,0,1,62.7409,49.8828,3.2457,4.9618,1,2,1,0.57154,0.36895
2,4,1,22,60,60,39,36,2,2,2,2,1,1,51.5104,51.0221,1.596,2.3792,1,2,4,0.60854,0.42772
2,4,1,23,60,90,39,19,2,2,1,2,0,1,75.4362,62.7409,1.6964,3.9289,1,2,3,0.5287,0.35092
2,4,1,24,60,90,41,19,1,2,1,2,1,1,74.6224,64.694,1.713,3.5791,1,4,3,0.65992,0.37379
2,4,1,25,60,90,41,61,1,1,1,1,1,1,65.3451,99.8503,4.1119,2.8792,2,2,3,0.6687,0.50219
2,4,2,1,90,90,45,19,1,2,1,2,1,1,100,49.2318,2.096,3.6788,1,2,3,0.67474,0.34445
2,4,2,2,90,60,35,44,2,1,2,1,1,1,99.8503,49.8828,1.2466,2.363,1,4,3,0.77502,0.38747
2,4,2,3,90,90,35,19,2,2,2,2,1,1,73.6458,82.7604,3.6957,2.413,2,3,1,1.1157,0.47437
2,4,2,4,90,90,35,61,2,1,2,1,1,1,50.3711,59.974,1.2129,2.2292,2,2,4,1.0301,2.0962
2,4,2,5,90,90,45,19,1,2,1,2,1,1,60.1367,60.4622,3.9447,2.212,2,4,3,0.84305,0.41926
2,4,2,6,90,60,35,36,2,2,2,2,1,1,50.5339,99.8503,2.6291,1.4296,2,4,3,0.79918,0.50056
2,4,2,7,60,60,39,44,2,1,2,2,1,0,73.8086,72.832,4.412,2.7461,1,2,1,0.63796,0.40793
2,4,2,8,60,90,41,19,1,2,1,2,1,1,99.5247,59.6484,2.1794,3.679,1,4,1,0.84092,0.61907
2,4,2,9,60,60,41,36,1,2,1,2,1,1,69.2513,65.6706,1.0798,2.7627,1,1,2,0.87933,0.5539
2,4,2,10,60,60,39,44,2,1,1,2,0,0,67.9492,66.4844,1.3633,2.7295,1,3,2,0.72255,0.58687
2,4,2,11,60,90,41,61,1,1,1,1,1,1,73.4831,99.1992,3.1788,2.0628,2,3,4,0.71366,0.57747
2,4,2,12,60,90,39,61,2,1,2,1,1,1,61.1133,100,1.8625,1.0464,1,3,1,0.66135,0.36676
2,4,2,13,60,90,41,61,1,1,1,1,1,1,68.112,100,2.6293,1.4965,2,2,3,1.03,0.36864
2,4,2,14,60,60,41,36,1,2,1,1,1,0,89.7591,50.3711,1.7465,2.8795,1,2,3,0.61815,0.3333
2,4,2,15,60,60,39,36,2,2,2,1,1,0,51.5104,76.0872,2.7791,1.3796,1,2,1,0.56138,0.38981
2,4,2,16,60,60,39,44,2,1,2,1,1,1,50.3711,50.2083,0.8798,1.6129,1,2,1,0.6476,0.39183
2,4,2,17,60,90,39,61,2,1,2,1,1,1,72.9948,77.2266,2.8456,1.3962,1,4,1,0.62055,0.61524
2,4,2,18,60,60,41,44,1,1,2,2,0,0,54.2773,53.4635,2.7626,1.4965,1,3,2,0.69969,0.3609
2,4,2,19,60,90,39,19,2,2,1,2,0,1,100,100,1.4462,3.079,2,4,2,0.79634,0.49452
2,4,2,20,90,90,45,19,1,2,1,2,1,1,74.9479,99.8503,2.3124,1.113,2,1,3,0.94623,0.42639
2,4,2,21,60,90,41,19,1,2,1,2,1,1,85.3646,100,2.429,1.0631,1,4,3,0.71976,0.3751
2,4,2,22,90,90,35,19,2,2,1,2,0,1,99.5247,99.6875,1.1962,2.9788,1,2,4,0.65285,0.43036
2,4,2,23,60,90,39,19,2,2,2,2,1,1,61.6016,99.8503,3.0624,1.1798,2,2,3,0.86413,0.35358
2,4,2,24,60,90,41,19,1,2,1,2,1,1,99.6875,99.6875,2.7958,1.2632,1,2,4,0.66411,0.39198
2,4,2,25,90,60,45,44,1,1,1,2,1,0,100,59.8112,1.9291,3.1121,1,2,3,0.59501,0.3758
2,4,3,1,90,60,45,36,1,2,1,2,1,1,100,52.487,0.9466,2.7127,1,1,2,0.81497,0.50585
2,4,3,2,90,60,35,44,2,1,2,2,1,0,100,55.9049,1.5629,2.7791,1,4,1,0.67355,0.31366
2,4,3,3,90,60,35,36,2,2,2,1,1,0,100,55.9049,1.3462,2.9957,1,2,4,0.57006,0.41336
2,4,3,4,60,90,39,61,2,1,2,2,1,0,75.1107,49.8828,2.5125,1.1798,1,3,2,0.76343,0.40878
2,4,3,5,60,90,41,19,1,2,1,2,1,1,74.9479,50.5339,2.2624,1.1129,1,3,2,0.66368,0.34655
2,4,3,6,90,60,35,36,2,2,2,2,1,1,50.0456,49.7201,3.0624,1.6297,2,2,4,0.6579,0.42636
2,4,3,7,90,90,35,61,2,1,2,1,1,1,75.4362,50.2083,1.2962,2.5124,1,4,2,0.67546,0.45132
2,4,3,8,60,60,41,36,1,2,1,2,1,1,75.7617,50.5339,2.0461,3.8288,1,3,1,0.84702,0.41679
2,4,3,9,60,60,41,36,1,2,1,2,1,1,77.3893,50.3711,0.97997,2.4128,1,4,2,0.58536,0.44357
2,4,3,10,90,60,35,44,2,1,1,2,0,0,75.2734,50.8594,1.013,2.2625,1,1,2,0.69509,0.41508
2,4,3,11,90,90,45,61,1,1,1,1,1,1,68.763,99.1992,4.0616,2.0125,1,3,1,0.87874,0.51768
2,4,3,12,90,90,35,61,2,1,1,1,0,1,65.1823,100,3.2286,2.2457,1,2,1,0.73364,0.41029
2,4,3,13,60,90,41,61,1,1,1,1,1,1,100,100,2.0797,3.1627,2,3,1,0.7644,0.32131
2,4,3,14,60,60,41,36,1,2,1,1,1,0,74.4596,77.8776,2.3291,3.4788,1,3,2,0.7979,0.50401
2,4,3,15,60,90,39,19,2,2,1,2,0,1,73.1576,70.3906,3.0122,1.7129,2,4,1,0.86202,0.5169
2,4,3,16,90,60,35,44,2,1,2,2,1,0,75.7617,72.9948,3.7619,2.679,1,3,2,0.63667,0.47605
2,4,3,17,90,60,35,44,2,1,1,1,0,1,50.0456,59.8112,3.2291,5.0618,1,2,1,0.67133,0.40788
2,4,3,18,90,90,45,61,1,1,1,1,1,1,76.0872,99.8503,4.0953,2.1628,2,1,4,0.72451,0.45781
2,4,3,19,90,60,35,36,2,2,2,2,1,1,50.6966,50.5339,2.1461,1.3965,1,2,3,0.65333,0.46888
2,4,3,20,90,90,45,19,1,2,1,2,1,1,100,55.0911,1.4793,3.362,1,2,1,0.54402,0.46366
2,4,3,21,90,90,45,19,1,2,2,2,0,1,50.5339,100,2.3292,3.6121,2,1,4,0.91259,0.45435
2,4,3,22,90,90,35,19,2,2,2,2,1,1,49.5573,99.8503,2.1624,1.0629,1,2,4,0.70217,0.46973
2,4,3,23,90,60,35,36,2,2,2,2,1,1,57.0443,55.9049,2.7291,1.2464,1,2,1,2.1324,0.37924
2,4,3,24,60,60,41,36,1,2,2,2,0,1,49.5573,49.8828,2.2623,1.3127,1,2,1,0.5958,0.46247
2,4,3,25,90,60,45,44,1,1,1,2,1,0,62.0898,49.7201,2.2624,1.2295,1,1,4,0.74186,0.50843
2,4,4,1,90,90,45,19,1,2,1,2,1,1,86.0156,86.9922,2.4625,1.2631,1,2,1,0.67531,0.41118
2,4,4,2,60,90,39,61,2,1,1,1,0,1,51.0221,100,2.7792,1.5798,2,1,3,0.94345,0.39756
2,4,4,3,60,90,39,19,2,2,1,2,0,1,49.7201,99.8503,3.2624,1.7464,2,2,1,0.64064,0.42768
2,4,4,4,60,90,39,61,2,1,1,1,0,1,100,50.2083,3.0126,1.6466,1,3,4,0.67355,0.43988
2,4,4,5,60,90,41,19,1,2,1,2,1,1,55.2539,100,3.1625,1.5968,2,4,2,1.2983,0.46583
2,4,4,6,60,60,39,36,2,2,1,1,0,0,53.9518,50.0456,1.779,1.0627,1,1,3,1.7877,0.39293
2,4,4,7,60,60,39,44,2,1,1,2,0,0,54.7656,50.0456,2.4124,1.2629,1,2,3,1.3428,0.3468
2,4,4,8,60,60,41,36,1,2,1,2,1,1,55.7422,51.1849,0.96286,2.5457,1,2,1,0.53616,0.53585
2,4,4,9,90,60,45,36,1,2,1,2,1,1,54.6029,50.6966,1.4638,2.4469,1,2,1,0.4929,0.35675
2,4,4,10,60,90,39,61,2,1,1,2,0,0,50.3711,58.0208,3.3619,1.2628,2,2,4,0.87377,0.49577
2,4,4,11,90,60,45,44,1,1,1,2,1,0,57.0443,50.2083,1.0793,2.129,1,4,1,1.0803,0.33042
2,4,4,12,90,60,35,44,2,1,2,2,1,0,75.2734,49.8828,1.5962,3.0624,1,4,1,0.59098,0.39525
2,4,4,13,90,60,45,44,1,1,1,1,1,1,73.6458,49.7201,1.2462,2.4959,1,3,2,0.57822,0.47041
2,4,4,14,90,60,45,36,1,2,1,2,1,1,75.7617,51.0221,1.2299,2.0129,1,1,3,0.56672,0.29244
2,4,4,15,60,90,39,19,2,2,1,2,0,1,85.3646,49.7201,1.2465,3.6956,1,1,4,0.5958,0.45514
2,4,4,16,90,60,35,44,2,1,1,2,0,0,76.25,49.8828,1.7464,2.9793,1,3,4,0.66554,0.45014
2,4,4,17,60,60,39,44,2,1,2,2,1,0,99.6875,50.6966,1.5128,2.7791,1,4,3,0.62148,0.39171
2,4,4,18,60,60,41,44,1,1,2,2,0,0,74.6224,50.2083,2.3792,4.6784,1,3,4,0.57425,0.48887
2,4,4,19,90,90,35,19,2,2,2,2,1,1,63.0664,50.6966,2.4595,3.6758,1,1,4,0.64177,0.45009
2,4,4,20,90,90,45,19,1,2,1,2,1,1,67.9492,100,3.3619,2.0626,2,2,3,0.52858,0.32604
2,4,4,21,60,90,41,19,1,2,2,2,0,1,99.8503,100,2.4625,1.1965,2,1,4,0.90528,0.44124
2,4,4,22,60,60,39,36,2,2,2,2,1,1,54.6029,55.4167,2.9789,1.5795,1,4,2,0.62305,0.46429
2,4,4,23,90,60,35,36,2,2,2,2,1,1,49.8828,50.3711,2.5125,1.3631,1,3,4,0.66845,0.58832
2,4,4,24,60,60,41,36,1,2,1,1,1,0,99.5247,50.6966,1.2793,2.379,1,3,1,0.6557,0.49514
2,4,4,25,60,60,41,44,1,1,1,2,1,0,77.8776,50.2083,1.763,2.9959,1,2,1,0.58238,0.44447
3,1,1,1,60,60,39,43,2,1,1,2,0,0,100,76.4128,1.598,2.4311,2,3,1,11.7531,0.42515
3,1,1,2,90,90,46,26,1,2,1,1,1,0,90.2474,60.4622,1.2807,8.7612,1,3,1,0.64753,0.24193
3,1,1,3,60,60,39,43,2,1,2,2,1,0,80.319,64.694,0.71397,3.6963,2,1,2,1.0845,0.23043
3,1,1,4,60,60,39,43,2,1,1,1,0,1,83.737,71.6927,5.3434,1.0951,2,4,1,0.91061,0.28728
3,1,1,5,90,90,34,26,2,2,1,2,0,1,60.1367,49.5573,0.79762,6.0291,2,2,4,2.2325,0.27315
3,1,1,6,60,90,41,26,1,2,1,2,1,1,80.4818,89.7591,2.2307,0.91449,2,2,3,0.69703,0.36231
3,1,1,7,60,60,39,37,2,2,1,1,0,0,77.2266,64.2057,0.83202,1.4319,1,4,3,0.72417,0.68205
3,1,1,8,60,60,41,37,1,2,1,2,1,1,80.6445,65.1823,0.71379,1.6635,1,1,4,1.2166,0.26675
3,1,1,9,60,60,41,37,1,2,1,2,1,1,77.3893,77.2266,0.9644,1.7143,2,2,4,2.7678,0.45603
3,1,1,10,90,60,34,37,2,2,2,2,1,1,78.2031,70.2279,0.81398,5.3123,1,2,1,0.87851,0.27089
3,1,1,11,60,90,41,54,1,1,1,1,1,1,79.5052,90.2474,3.0108,1.1116,2,1,4,0.97383,0.40086
3,1,1,12,60,90,39,54,2,1,2,2,1,0,60.2995,59.6484,0.78118,1.6976,2,4,1,1.5626,0.41455
3,1,1,13,60,90,41,54,1,1,1,1,1,1,89.5964,80.4818,0.93193,3.6975,2,1,2,0.82189,0.23848
3,1,1,14,90,90,46,54,1,1,1,2,1,0,87.806,67.9492,0.71169,2.1779,1,2,4,0.86673,0.41109
3,1,1,15,90,90,34,26,2,2,1,2,0,1,89.7591,75.1107,1.2457,2.1455,1,4,3,1.0698,0.42157
3,1,1,16,60,60,39,37,2,2,1,2,0,1,81.9466,86.8294,2.5147,1.1652,1,2,4,0.58228,0.41922
3,1,1,17,90,60,34,43,2,1,2,2,1,0,91.7122,80.1562,0.93093,1.8805,1,4,3,0.64431,0.47701
3,1,1,18,90,60,46,43,1,1,1,2,1,0,99.6875,80.1562,1.2469,2.6465,1,4,3,0.9348,0.43717
3,1,1,19,60,60,41,43,1,1,1,2,1,0,100,65.9961,1.8815,0.81527,1,1,3,0.67544,0.33118
3,1,1,20,90,90,46,26,1,2,1,2,1,1,100,89.9219,2.5978,1.565,2,3,1,0.78818,0.46466
3,1,1,21,90,60,34,43,2,1,2,2,1,0,98.3854,85.3646,1.3641,3.6131,2,1,3,0.66705,0.34995
3,1,1,22,60,60,41,37,1,2,2,2,0,1,62.9036,59.974,1.0807,2.0138,2,3,2,1.0784,0.33565
3,1,1,23,60,90,39,26,2,2,2,2,1,1,83.4115,76.901,1.0806,1.8804,1,2,4,0.74795,0.25849
3,1,1,24,90,90,46,54,1,1,1,1,1,1,99.5247,84.7135,0.79831,1.7647,2,3,1,0.71439,0.288
3,1,1,25,90,90,46,26,1,2,1,2,1,1,94.8047,92.3633,2.28,1.4637,2,1,4,0.72966,0.23394
3,1,2,1,90,90,34,54,2,1,1,1,0,1,78.8542,73.9714,0.78116,1.2974,1,4,2,1.6734,0.19358
3,1,2,2,90,90,46,26,1,2,1,2,1,1,85.3646,90.0846,3.4809,1.0653,2,1,4,0.5797,0.54549
3,1,2,3,60,90,39,54,2,1,2,1,1,1,81.1328,59.1602,1.2974,0.68108,1,3,4,0.92741,0.35168
3,1,2,4,60,60,39,43,2,1,2,2,1,0,49.3945,51.8359,1.0306,1.5304,2,2,4,0.86356,0.27186
3,1,2,5,60,90,39,26,2,2,1,2,0,1,80.319,86.3411,2.1473,1.2977,2,1,4,0.61206,0.39299
3,1,2,6,90,90,46,26,1,2,1,2,1,1,94.3164,84.5508,4.5804,1.2318,2,1,2,0.94699,0.49658
3,1,2,7,60,60,39,37,2,2,1,2,0,1,90.4102,94.8047,1.9131,0.86359,2,1,4,0.76125,0.35264
3,1,2,8,90,90,46,26,1,2,1,2,1,1,91.224,84.0625,4.6637,0.89858,1,1,3,0.67928,0.42365
3,1,2,9,90,90,46,26,1,2,1,2,1,1,100,90.0846,0.66538,1.915,1,1,3,0.59468,0.40742
3,1,2,10,90,60,34,37,2,2,2,2,1,1,94.9674,65.1823,3.3793,1.3468,1,2,3,1.575,0.35456
3,1,2,11,90,90,46,54,1,1,1,1,1,1,92.2005,80.6445,0.89667,3.0793,1,1,4,1.1411,0.46676
3,1,2,12,60,90,39,54,2,1,1,1,0,1,49.3945,92.0378,1.9305,1.081,1,1,2,0.84422,0.30325
3,1,2,13,90,60,46,43,1,1,1,2,1,0,96.7578,86.3411,1.1468,2.1465,2,4,3,0.62698,0.4446
3,1,2,14,90,90,46,54,1,1,1,1,1,1,86.0156,89.1081,0.83202,2.4815,2,2,4,0.74256,0.55675
3,1,2,15,90,90,34,26,2,2,2,2,1,1,94.8047,100,1.2633,3.4458,1,3,1,0.66133,0.70211
3,1,2,16,90,90,34,26,2,2,2,2,1,1,94.9674,94.3164,4.6638,1.4318,1,4,2,0.60395,0.45632
3,1,2,17,90,60,34,43,2,1,2,2,1,0,94.3164,85.3646,2.3612,1.2283,1,2,3,0.64452,0.31002
3,1,2,18,90,60,46,43,1,1,1,2,1,0,98.8737,91.875,0.76368,2.0133,1,1,3,0.5122,0.38524
3,1,2,19,60,60,41,43,1,1,1,2,1,0,87.6432,89.5964,1.8815,2.8644,1,4,1,0.71746,0.45224
3,1,2,20,90,90,46,26,1,2,1,2,1,1,100,99.6875,0.86531,3.1812,1,2,1,0.55502,0.60509
3,1,2,21,90,60,34,43,2,1,1,2,0,0,85.8529,99.5247,2.3466,1.3304,2,2,1,0.65813,0.30708
3,1,2,22,90,90,46,26,1,2,1,2,1,1,100,98.2227,1.581,2.6974,2,2,4,0.49182,0.44361
3,1,2,23,90,90,34,26,2,2,2,2,1,1,99.0365,100,2.1315,1.1486,2,1,2,0.66688,0.53013
3,1,2,24,90,90,46,54,1,1,1,1,1,1,89.9219,100,2.2634,1.1972,1,2,1,0.60586,0.39811
3,1,2,25,60,90,41,26,1,2,1,2,1,1,98.5482,99.8503,2.6796,1.78,1,1,3,0.61957,0.42177
3,1,3,1,90,90,34,54,2,1,1,1,0,1,99.362,99.8503,0.86373,2.3632,1,4,1,0.64186,0.49158
3,1,3,2,90,60,46,37,1,2,1,2,1,1,99.5247,70.0651,0.84721,1.597,1,2,4,0.59434,0.43816
3,1,3,3,60,90,39,54,2,1,2,1,1,1,84.5508,84.7135,0.81522,2.2814,1,3,1,0.61578,0.5689
3,1,3,4,90,60,34,43,2,1,1,2,0,0,80.1562,91.3867,2.8633,1.8637,2,3,2,0.9283,0.37521
3,1,3,5,60,60,39,37,2,2,2,2,1,1,73.6458,61.1133,1.0139,1.9138,1,1,2,1.4729,0.26563
3,1,3,6,60,90,41,26,1,2,2,2,0,1,83.5742,99.5247,1.8968,1.0805,1,2,3,0.74885,0.33762
3,1,3,7,60,90,39,26,2,2,2,1,1,0,80.1562,69.7396,1.0804,3.1797,1,2,1,1.3894,0.69949
3,1,3,8,90,90,46,26,1,2,1,2,1,1,100,98.7109,1.0136,2.4465,1,4,1,0.6804,0.44248
3,1,3,9,60,60,41,37,1,2,1,2,1,1,99.362,82.2721,1.0306,1.7138,1,1,2,0.60322,0.21237
3,1,3,10,90,60,34,37,2,2,1,1,0,0,95.944,81.2956,0.54871,1.3152,2,1,2,0.71713,0.20532
3,1,3,11,60,60,41,43,1,1,2,2,0,0,88.6198,66.9727,1.0307,2.93,1,2,4,0.89837,0.36211
3,1,3,12,90,90,34,54,2,1,2,1,1,1,84.5508,82.5977,0.64781,1.9807,1,3,2,0.83403,0.29985
3,1,3,13,90,60,46,43,1,1,1,1,1,1,99.1992,79.0169,0.86531,1.9815,1,1,4,0.65812,0.41035
3,1,3,14,60,90,41,54,1,1,1,1,1,1,79.5052,95.4557,2.0816,1.3484,2,1,2,0.76231,0.42413
3,1,3,15,60,90,39,26,2,2,1,2,0,1,62.2526,58.9974,0.86365,2.1633,1,3,4,1.202,0.38184
3,1,3,16,60,90,39,26,2,2,1,2,0,1,87.3177,64.694,0.71176,1.5616,1,3,1,0.65842,0.40309
3,1,3,17,90,90,34,54,2,1,2,1,1,1,83.0859,97.4089,1.5317,0.7821,2,3,1,0.82147,0.43143
3,1,3,18,90,60,46,43,1,1,1,1,1,1,99.5247,100,0.79757,1.8639,1,2,4,0.54096,0.2433
3,1,3,19,60,60,41,43,1,1,1,2,1,0,99.1992,84.7135,2.1129,2.8129,1,3,1,0.54957,0.47482
3,1,3,20,90,60,46,37,1,2,1,2,1,1,99.6875,79.9935,2.2481,3.0312,2,2,1,0.7828,0.38659
3,1,3,21,60,90,39,54,2,1,1,1,0,1,82.2721,64.3685,1.9964,1.0301,1,4,1,0.69418,0.42316
3,1,3,22,60,90,41,26,1,2,1,2,1,1,71.8555,96.9206,1.0802,1.9799,2,3,2,0.71794,0.42989
3,1,3,23,90,90,34,26,2,2,2,2,1,1,83.2487,100,2.0982,0.9487,2,4,1,0.71315,0.52009
3,1,3,24,90,60,46,43,1,1,1,2,1,0,99.0365,83.8997,0.84701,1.8967,1,1,3,0.64476,0.32489
3,1,3,25,60,60,41,37,1,2,1,2,1,1,100,80.8073,1.2302,2.2299,1,2,1,0.59325,0.40371
3,1,4,1,60,60,39,43,2,1,1,1,0,1,85.5273,68.4375,0.88051,1.597,1,1,2,0.59341,0.31547
3,1,4,2,90,60,46,37,1,2,1,1,1,0,90.4102,66.6471,0.59746,1.7804,1,1,2,0.5837,0.49875
3,1,4,3,90,90,34,54,2,1,2,1,1,1,87.9688,55.4167,0.7484,2.8643,1,3,1,0.87705,0.30234
3,1,4,4,60,90,39,54,2,1,2,1,1,1,83.737,89.1081,1.4301,0.63048,2,4,3,0.97407,0.40302
3,1,4,5,90,60,34,37,2,2,1,2,0,1,59.974,90.5729,0.89699,2.1799,2,2,4,0.72151,0.60003
3,1,4,6,60,60,41,37,1,2,1,2,1,1,75.4362,89.9219,2.6813,0.78202,2,3,4,0.8862,0.22158
3,1,4,7,60,90,39,26,2,2,2,2,1,1,85.8529,93.3398,1.8131,0.79691,1,4,1,0.68791,0.48789
3,1,4,8,60,90,41,26,1,2,1,2,1,1,95.1302,81.9466,0.81381,1.7635,1,4,2,0.80528,0.46476
3,1,4,9,90,60,46,37,1,2,1,2,1,1,99.0365,90.2474,0.6813,1.4639,1,2,4,0.53672,0.45313
3,1,4,10,60,90,39,26,2,2,1,2,0,1,95.1302,95.1302,1.7483,0.56554,2,1,2,0.63032,0.28892
3,1,4,11,60,90,41,54,1,1,2,1,0,1,78.3659,61.276,1.031,1.8641,2,1,3,0.87751,0.55038
3,1,4,12,60,60,39,43,2,1,2,2,1,0,63.8802,58.8346,0.79733,1.647,1,2,1,0.73272,0.3653
3,1,4,13,60,60,41,43,1,1,1,1,1,1,77.5521,57.207,1.6983,0.74868,1,4,1,0.70034,0.30716
3,1,4,14,60,60,41,43,1,1,2,2,0,0,72.5065,60.2995,0.79866,1.9316,1,2,1,0.5973,0.41807
3,1,4,15,90,90,34,26,2,2,2,2,1,1,74.7852,88.7826,1.53,0.7137,2,2,1,0.64447,0.40659
3,1,4,16,90,60,34,37,2,2,2,2,1,1,77.7148,89.9219,1.8298,0.98028,1,1,3,0.62743,0.37961
3,1,4,17,90,60,34,43,2,1,2,2,1,0,71.5299,68.763,1.8149,1.0486,2,2,4,0.77027,0.46392
3,1,4,18,90,90,46,54,1,1,1,1,1,1,86.3411,86.9922,0.71412,1.8138,1,1,2,0.70237,0.42955
3,1,4,19,90,60,46,43,1,1,1,1,1,1,99.1992,77.0638,1.0804,1.9137,1,3,4,0.97319,0.65643
3,1,4,20,60,60,41,37,1,2,1,1,1,0,98.7109,97.5716,0.83184,1.7815,1,2,4,0.59547,0.42228
3,1,4,21,60,90,39,54,2,1,2,1,1,1,77.8776,90.2474,1.8301,0.86399,2,2,4,0.71664,0.37054
3,1,4,22,60,90,41,26,1,2,1,2,1,1,82.5977,93.8281,1.547,0.68081,1,1,3,0.65006,0.42003
3,1,4,23,90,60,34,37,2,2,2,2,1,1,82.5977,76.5755,0.66356,1.43,1,1,3,0.60483,0.31036
3,1,4,24,90,60,46,43,1,1,1,2,1,0,80.319,73.8086,0.99846,1.6816,1,2,4,0.66025,0.27149
3,1,4,25,90,90,46,26,1,2,1,2,1,1,91.0612,78.5286,0.73077,1.4139,1,2,1,0.51862,0.34073
3,2,1,1,60,90,39,26,2,2,1,2,0,1,93.0143,84.5508,0.69746,1.3639,1,4,2,0.68536,0.23788
3,2,1,2,60,90,39,26,2,2,1,2,0,1,98.8737,93.8281,1.315,0.66532,1,1,2,0.56621,0.21775
3,2,1,3,90,90,34,54,2,1,2,1,1,1,63.2292,81.9466,1.0641,1.6969,2,3,2,0.78492,0.21261
3,2,1,4,90,90,46,54,1,1,1,2,1,0,90.5729,84.7135,0.99695,2.1299,1,3,4,0.74461,0.41533
3,2,1,5,90,90,34,54,2,1,1,1,0,1,68.9258,86.3411,0.91394,1.9636,1,1,4,0.65233,0.4456
3,2,1,6,90,90,46,26,1,2,1,2,1,1,100,100,0.89825,1.6146,1,3,4,0.58518,0.39619
3,2,1,7,60,90,39,26,2,2,2,2,1,1,80.1562,93.9909,2.161,0.87823,1,4,3,0.61671,0.42689
3,2,1,8,60,90,39,26,2,2,1,2,0,1,78.8542,93.9909,0.78069,1.4971,2,3,4,0.63866,0.42457
3,2,1,9,60,60,39,43,2,1,2,1,1,1,71.3672,69.7396,1.0985,2.3148,1,1,2,0.90858,0.29196
3,2,1,10,60,60,41,37,1,2,1,1,1,0,96.2695,77.7148,0.83029,1.6467,1,4,3,0.66201,0.38251
3,2,1,11,60,90,41,26,1,2,1,2,1,1,91.5495,75.1107,0.7143,1.3308,1,3,4,0.61101,0.26123
3,2,1,12,90,90,46,26,1,2,1,2,1,1,100,90.0846,0.92857,2.7616,1,1,3,0.58147,0.43314
3,2,1,13,90,90,34,26,2,2,2,2,1,1,89.7591,70.3906,0.73092,1.514,1,1,3,0.56555,0.55439
3,2,1,14,60,90,39,26,2,2,1,2,0,1,65.5078,62.7409,0.48213,1.3651,1,3,2,0.87749,0.22093
3,2,1,15,60,90,39,26,2,2,2,2,1,1,77.8776,99.5247,1.5305,0.74752,1,4,3,0.56899,0.35766
3,2,1,16,60,90,39,54,2,1,1,2,0,0,87.3177,89.4336,0.69738,1.6803,1,2,4,0.60249,0.35887
3,2,1,17,90,60,46,37,1,2,1,1,1,0,90.5729,59.1602,1.4317,2.4316,1,2,1,0.55521,0.31204
3,2,1,18,90,90,46,54,1,1,1,2,1,0,89.4336,60.2995,0.64864,2.5313,1,4,3,0.56497,0.26681
3,2,1,19,60,60,41,43,1,1,1,2,1,0,98.5482,86.8294,0.68196,1.3151,1,2,4,0.56993,0.26153
3,2,1,20,60,60,39,43,2,1,1,2,0,0,99.362,81.7839,1.3484,2.1149,1,2,4,0.56829,0.36412
3,2,1,21,60,60,41,37,1,2,1,2,1,1,83.737,72.832,1.2635,0.58059,1,1,3,0.61055,0.38249
3,2,1,22,90,90,46,54,1,1,1,1,1,1,99.5247,97.2461,1.215,1.9149,1,2,4,0.5818,0.37912
3,2,1,23,60,60,39,43,2,1,1,1,0,1,75.9245,70.8789,0.68054,1.597,2,1,3,0.82229,0.43135
3,2,1,24,90,90,46,54,1,1,1,1,1,1,72.5065,70.3906,1.5138,2.1971,2,2,3,0.68025,0.34756
3,2,1,25,60,60,39,37,2,2,2,2,1,1,61.4388,63.8802,1.7149,1.1653,1,2,1,0.49084,0.41764
3,2,2,1,60,90,39,26,2,2,1,2,0,1,98.8737,91.875,1.0983,2.098,1,1,3,0.58872,0.48775
3,2,2,2,90,90,34,26,2,2,2,1,1,0,92.3633,73.3203,0.88191,1.6483,2,3,2,0.78272,0.39402
3,2,2,3,60,60,39,43,2,1,1,2,0,0,95.4557,76.5755,0.94723,2.2635,1,4,2,0.64978,0.31327
3,2,2,4,90,90,46,54,1,1,1,1,1,1,93.1771,69.7396,0.78162,1.4648,2,3,2,0.94757,0.39997
3,2,2,5,90,60,34,43,2,1,2,2,1,0,79.1797,93.1771,1.8147,0.94844,2,1,4,0.62453,0.37245
3,2,2,6,90,60,46,37,1,2,1,2,1,1,98.3854,70.5534,0.74742,1.5305,1,1,4,0.56097,0.38901
3,2,2,7,90,60,34,37,2,2,2,2,1,1,87.1549,49.3945,0.69747,2.3803,1,1,4,0.55949,0.36481
3,2,2,8,90,90,34,26,2,2,2,2,1,1,97.4089,90.5729,0.78197,1.6817,2,2,3,0.55792,0.36404
3,2,2,9,90,60,34,43,2,1,2,2,1,0,88.7826,72.181,0.9135,1.6133,1,2,3,0.5085,0.37952
3,2,2,10,60,90,41,26,1,2,1,2,1,1,83.5742,90.2474,2.5466,0.96402,2,3,4,0.65249,0.32532
3,2,2,11,90,90,46,26,1,2,1,2,1,1,99.362,99.0365,1.6966,0.71382,2,4,1,0.8935,0.39035
3,2,2,12,60,90,41,26,1,2,1,2,1,1,100,79.3424,1.5816,2.4314,1,1,2,0.6933,0.34864
3,2,2,13,90,60,34,37,2,2,2,2,1,1,100,90.5729,0.93089,2.7469,1,4,2,0.59759,0.46387
3,2,2,14,90,60,34,37,2,2,2,1,1,0,80.319,71.6927,1.3298,0.64696,1,4,1,0.55002,0.38616
3,2,2,15,60,90,39,26,2,2,1,2,0,1,49.7201,61.1133,1.6795,0.81311,2,1,4,0.62347,0.33831
3,2,2,16,90,90,34,54,2,1,2,1,1,1,89.1081,88.2943,0.84869,1.6483,1,2,4,0.59787,0.37649
3,2,2,17,90,60,46,37,1,2,1,2,1,1,96.1068,82.7604,0.81527,1.5985,2,2,1,0.62616,0.36593
3,2,2,18,90,90,46,54,1,1,1,1,1,1,73.1576,82.4349,1.5304,0.83078,1,3,1,0.93033,0.41658
3,2,2,19,60,60,41,43,1,1,1,2,1,0,84.7135,74.6224,0.7816,1.9979,2,3,2,0.87422,0.41841
3,2,2,20,90,90,34,54,2,1,2,1,1,1,99.362,98.2227,0.782,1.5984,1,2,1,0.50849,0.36993
3,2,2,21,60,90,41,26,1,2,1,2,1,1,88.7826,80.8073,1.0467,1.8965,1,1,3,0.56875,0.38093
3,2,2,22,60,60,41,43,1,1,2,2,0,0,85.3646,90.0846,5.2271,1.3452,2,1,4,0.69589,0.29387
3,2,2,23,60,60,39,43,2,1,2,1,1,1,67.2982,83.2487,1.7816,1.1819,2,1,4,0.68888,0.33744
3,2,2,24,90,60,46,43,1,1,1,2,1,0,89.1081,64.2057,1.1985,1.865,1,1,3,0.63341,0.52179
3,2,2,25,60,90,39,26,2,2,1,2,0,1,93.5026,94.4792,0.86449,1.7642,2,3,1,0.83847,0.28768
3,2,3,1,90,90,34,26,2,2,2,2,1,1,65.3451,86.6667,1.1466,2.5466,2,4,1,0.55358,0.75837
3,2,3,2,60,60,39,37,2,2,1,1,0,0,90.0846,85.2018,6.2788,1.1975,2,4,3,0.90943,0.38364
3,2,3,3,90,60,34,43,2,1,2,2,1,0,77.3893,56.556,0.93185,2.4481,1,3,4,1.4279,0.38957
3,2,3,4,60,60,41,43,1,1,1,2,1,0,80.319,89.7591,1.0644,7.7785,1,3,2,0.73197,0.42622
3,2,3,5,90,60,34,43,2,1,1,1,0,1,72.3438,71.3672,1.2299,1.9964,1,3,2,0.63017,0.32813
3,2,3,6,60,90,41,26,1,2,1,2,1,1,96.9206,87.9688,0.73197,1.8816,1,3,4,0.67879,0.39902
3,2,3,7,90,90,34,26,2,2,2,2,1,1,49.5573,98.3854,1.9467,0.79714,1,4,1,0.53521,0.58067
3,2,3,8,60,60,39,37,2,2,1,2,0,1,92.3633,95.944,1.4638,0.71414,1,1,2,0.57002,0.43159
3,2,3,9,90,90,34,54,2,1,2,1,1,1,75.599,92.2005,0.48083,1.897,1,4,3,0.588,0.36916
3,2,3,10,60,60,41,37,1,2,1,2,1,1,77.7148,69.9023,0.53196,1.5983,1,2,3,1.654,0.2392
3,2,3,11,60,90,41,26,1,2,1,2,1,1,89.5964,69.4141,0.84856,1.6317,1,1,4,0.52705,0.37381
3,2,3,12,60,90,41,26,1,2,1,2,1,1,89.4336,87.1549,0.68035,1.9466,1,4,3,0.54922,0.35437
3,2,3,13,60,60,39,37,2,2,1,1,0,0,56.3932,59.1602,1.7962,1.08,1,3,1,0.68155,0.33842
3,2,3,14,90,90,34,26,2,2,2,2,1,1,84.5508,97.8971,1.9314,0.68211,1,2,1,0.48189,0.24287
3,2,3,15,90,90,34,26,2,2,1,2,0,1,86.0156,92.8516,2.23,1.3804,1,4,3,0.54849,0.38747
3,2,3,16,60,60,39,43,2,1,1,2,0,0,68.763,66.1589,1.5969,0.88056,1,1,2,0.65747,0.35337
3,2,3,17,60,90,41,26,1,2,1,2,1,1,76.7383,91.7122,2.0132,1.2636,2,1,4,0.61924,0.26913
3,2,3,18,60,90,41,54,1,1,1,1,1,1,65.0195,87.4805,1.9816,1.1484,1,1,3,0.66014,0.34223
3,2,3,19,60,60,41,43,1,1,1,1,1,1,66.1589,88.9453,0.61332,1.3465,2,4,3,0.85288,0.33488
3,2,3,20,90,60,34,43,2,1,2,2,1,0,88.7826,89.7591,1.7631,0.88024,1,1,2,0.49272,0.40258
3,2,3,21,60,90,41,26,1,2,1,2,1,1,95.944,93.3398,0.93088,2.697,1,4,1,0.56667,0.33058
3,2,3,22,90,60,46,43,1,1,1,2,1,0,97.8971,69.7396,1.2648,2.2312,1,1,3,0.4457,0.3185
3,2,3,23,60,60,39,43,2,1,1,1,0,1,56.8815,57.207,1.5482,0.76532,2,1,3,1.0646,0.26499
3,2,3,24,60,90,41,54,1,1,1,1,1,1,99.362,99.1992,0.84659,1.6963,1,3,4,0.62002,0.40598
3,2,3,25,90,90,34,26,2,2,2,1,1,0,96.4323,80.319,1.0307,2.097,1,3,1,1.0457,0.49331
3,2,4,1,60,60,39,37,2,2,2,2,1,1,49.5573,92.8516,1.5466,0.79702,2,4,3,0.70776,0.30667
3,2,4,2,60,90,39,26,2,2,2,2,1,1,85.8529,99.5247,1.5817,0.66538,1,1,2,0.50941,0.44188
3,2,4,3,60,90,39,54,2,1,1,1,0,1,98.5482,99.362,1.5289,0.69592,1,1,2,0.50802,0.41717
3,2,4,4,90,90,46,54,1,1,1,1,1,1,99.8503,99.5247,1.6471,0.68097,1,1,3,0.55779,0.37094
3,2,4,5,60,60,39,43,2,1,1,2,0,0,79.1797,100,0.7476,1.714,2,1,4,0.72017,0.33351
3,2,4,6,90,90,46,26,1,2,1,2,1,1,100,81.4583,1.4151,2.4148,2,2,4,0.70965,0.3884
3,2,4,7,60,90,39,26,2,2,2,2,1,1,81.6211,99.1992,2.2966,0.88052,2,4,3,0.82894,0.27934
3,2,4,8,60,60,39,37,2,2,1,2,0,1,82.1094,94.1536,1.8968,0.69736,2,2,3,0.99877,0.32839
3,2,4,9,90,90,34,54,2,1,2,1,1,1,95.293,76.25,0.7486,2.0648,1,3,1,0.67642,0.37225
3,2,4,10,60,90,41,26,1,2,1,2,1,1,68.4375,93.3398,0.68011,2.6794,2,4,2,0.7094,0.25408
3,2,4,11,90,90,46,26,1,2,2,2,0,1,82.1094,94.3164,2.0945,1.2783,2,2,1,0.60433,0.3344
3,2,4,12,60,90,41,26,1,2,1,2,1,1,78.5286,98.0599,0.74508,1.8447,2,1,3,0.49427,0.32858
3,2,4,13,90,60,34,37,2,2,2,1,1,0,95.7812,94.9674,0.79864,1.6817,1,3,1,0.51653,0.4115
3,2,4,14,90,90,34,26,2,2,1,2,0,1,64.694,95.6185,0.72911,1.7621,2,1,3,0.70008,0.45873
3,2,4,15,60,90,39,26,2,2,1,2,0,1,88.7826,95.944,2.2134,1.1639,1,1,4,0.63844,0.33616
3,2,4,16,60,60,39,43,2,1,1,1,0,1,64.8568,65.0195,1.1469,1.8467,1,4,2,0.60777,0.41213
3,2,4,17,90,90,46,26,1,2,1,2,1,1,84.7135,85.0391,0.66368,1.4469,2,4,3,0.72291,0.38551
3,2,4,18,60,90,41,54,1,1,2,1,0,1,82.4349,92.3633,1.7817,0.93204,2,1,4,0.82277,0.30614
3,2,4,19,60,90,41,54,1,1,1,1,1,1,82.4349,81.2956,0.76195,1.9949,1,2,1,0.54156,0.34118
3,2,4,20,60,90,39,54,2,1,1,1,0,1,82.7604,94.6419,1.2448,0.57847,2,1,2,0.68105,0.38349
3,2,4,21,90,60,46,37,1,2,1,1,1,0,95.7812,86.8294,0.74863,1.5986,1,2,4,0.45619,0.59347
3,2,4,22,90,90,46,54,1,1,1,1,1,1,49.7201,99.362,3.4793,1.98,2,2,3,0.6807,0.40711
3,2,4,23,60,90,39,54,2,1,1,1,0,1,92.3633,91.5495,1.595,2.5114,2,2,4,0.67011,0.24758
3,2,4,24,90,90,46,54,1,1,1,2,1,0,92.8516,76.5755,0.91535,1.6484,1,1,3,0.77941,0.39491
3,2,4,25,90,60,34,37,2,2,2,2,1,1,93.9909,94.6419,2.531,1.3982,1,4,1,0.89333,0.37243
3,3,1,1,60,60,39,43,2,1,1,2,0,0,98.5482,76.25,0.86545,1.7151,1,2,3,0.72739,0.38023
3,3,1,2,90,90,46,54,1,1,1,2,1,0,99.6875,81.7839,1.0635,1.7967,2,1,4,0.76773,0.28395
3,3,1,3,60,90,39,54,2,1,2,1,1,1,77.2266,85.6901,1.5631,0.94687,1,1,4,0.60563,0.34387
3,3,1,4,90,90,34,54,2,1,2,1,1,1,64.5312,89.7591,1.6982,0.76529,2,4,3,0.85858,0.32961
3,3,1,5,90,60,46,37,1,2,1,2,1,1,98.8737,92.6888,0.93185,1.6649,2,1,3,0.62854,0.30367
3,3,1,6,90,60,34,43,2,1,2,2,1,0,95.6185,49.7201,1.4805,0.66432,1,2,3,0.69945,0.29911
3,3,1,7,90,60,46,37,1,2,2,2,0,1,64.5312,61.276,1.9129,1.2633,1,2,3,0.98184,0.31936
3,3,1,8,60,60,41,37,1,2,1,2,1,1,74.7852,68.112,1.1152,1.9649,2,1,2,0.60292,0.25363
3,3,1,9,60,90,39,54,2,1,2,2,1,0,85.3646,84.7135,1.7134,0.83045,1,3,4,0.81283,0.24978
3,3,1,10,60,60,41,37,1,2,1,1,1,0,92.6888,62.0898,1.5305,0.84755,1,4,2,0.67561,0.54965
3,3,1,11,90,90,34,26,2,2,2,2,1,1,95.293,95.7812,1.714,0.84776,2,2,4,0.59851,0.45089
3,3,1,12,60,90,41,54,1,1,1,1,1,1,96.1068,85.0391,1.2319,2.498,1,2,1,0.54199,0.25887
3,3,1,13,60,60,39,37,2,2,1,2,0,1,93.6654,93.3398,1.9304,0.91412,2,1,3,0.60795,0.50788
3,3,1,14,90,90,34,54,2,1,2,1,1,1,85.3646,96.4323,1.6632,0.86357,1,2,4,0.61172,0.35268
3,3,1,15,90,60,46,43,1,1,1,1,1,1,99.5247,98.5482,1.2802,2.13,2,4,3,0.71125,0.39115
3,3,1,16,60,60,41,43,1,1,1,2,1,0,86.5039,98.2227,0.97997,2.896,2,2,4,0.7524,0.42227
3,3,1,17,60,90,41,26,1,2,1,2,1,1,89.5964,93.8281,1.715,0.84873,2,4,3,0.65135,0.33378
3,3,1,18,90,60,46,43,1,1,1,2,1,0,94.6419,94.9674,1.0308,2.0472,2,2,4,0.49251,0.3477
3,3,1,19,60,60,41,37,1,2,1,2,1,1,75.4362,64.8568,0.76322,1.563,2,1,3,1.3901,0.33076
3,3,1,20,60,60,41,43,1,1,2,2,0,0,70.2279,79.8307,0.86425,3.1301,1,2,1,0.82804,0.43343
3,3,1,21,60,90,41,26,1,2,1,2,1,1,91.875,98.2227,2.8635,1.2309,2,3,1,0.62932,0.42244
3,3,1,22,60,60,39,43,2,1,1,2,0,0,72.5065,60.7878,0.89734,1.7138,2,1,3,1.129,0.35024
3,3,1,23,60,90,41,26,1,2,1,2,1,1,69.9023,92.526,0.78183,1.5983,2,3,1,0.70574,0.28194
3,3,1,24,60,60,41,43,1,1,2,1,0,1,59.3229,63.7174,0.71419,1.6139,1,2,1,0.54466,0.2296
3,3,1,25,90,60,34,43,2,1,2,2,1,0,88.1315,72.0182,1.0642,2.2972,1,1,3,0.65126,0.51014
3,3,2,1,60,90,39,54,2,1,2,2,1,0,62.2526,60.4622,1.9301,1.3971,1,2,3,0.8315,0.27448
3,3,2,2,90,90,46,54,1,1,1,1,1,1,91.224,68.9258,1.4946,0.79494,2,1,4,0.61388,0.37748
3,3,2,3,90,60,34,43,2,1,2,1,1,1,86.8294,85.3646,3.0465,1.214,1,4,1,0.51359,0.36685
3,3,2,4,90,60,34,43,2,1,2,2,1,0,86.6667,65.6706,0.59924,1.915,1,2,1,0.54756,0.38668
3,3,2,5,60,90,41,26,1,2,1,2,1,1,86.5039,94.4792,2.3133,1.2804,1,1,2,0.55514,0.43008
3,3,2,6,90,90,34,54,2,1,2,1,1,1,49.2318,59.1602,1.7626,1.0463,1,4,1,0.64549,0.27182
3,3,2,7,90,60,46,37,1,2,1,2,1,1,96.1068,70.2279,2.5145,0.682,1,4,2,0.52693,0.48578
3,3,2,8,60,60,41,37,1,2,1,2,1,1,77.2266,49.5573,0.8986,1.5817,2,2,4,0.81276,0.20738
3,3,2,9,60,60,39,43,2,1,2,2,1,0,65.0195,91.0612,3.1962,2.13,2,1,2,0.55813,0.4842
3,3,2,10,90,90,46,26,1,2,1,2,1,1,96.2695,96.1068,0.79694,1.5634,2,4,3,0.60626,0.39254
3,3,2,11,90,60,34,37,2,2,2,2,1,1,88.6198,98.5482,2.0815,1.1987,2,1,4,0.52784,0.42276
3,3,2,12,60,90,41,54,1,1,1,1,1,1,98.0599,95.6185,0.89707,1.7802,1,1,4,0.65919,0.38692
3,3,2,13,60,90,39,26,2,2,2,2,1,1,81.7839,98.0599,1.4805,0.71423,1,2,3,0.60542,0.3104
3,3,2,14,90,60,34,43,2,1,1,1,0,1,78.6914,94.1536,1.0807,2.197,1,1,2,0.5887,0.27067
3,3,2,15,60,60,41,43,1,1,1,1,1,1,97.0833,71.5299,0.81311,1.4962,1,1,4,0.62711,0.36632
3,3,2,16,60,90,41,54,1,1,2,1,0,1,89.4336,67.4609,0.99856,1.9149,1,1,3,0.52686,0.38166
3,3,2,17,90,60,46,37,1,2,1,2,1,1,96.4323,76.25,0.56191,1.4783,1,3,2,0.98575,0.50187
3,3,2,18,90,60,46,43,1,1,1,1,1,1,95.1302,88.7826,1.195,2.0947,1,4,3,0.79143,0.43554
3,3,2,19,60,90,41,26,1,2,1,2,1,1,78.2031,90.4102,1.4149,0.69857,1,4,2,0.61936,0.36724
3,3,2,20,90,60,46,43,1,1,1,2,1,0,88.457,91.224,0.94486,1.7779,1,2,4,0.49902,0.38433
3,3,2,21,60,90,41,26,1,2,2,2,0,1,59.974,59.974,0.82812,1.2947,1,4,3,1.3516,0.64635
3,3,2,22,60,90,39,54,2,1,1,1,0,1,70.3906,89.7591,0.89833,1.9146,2,2,1,0.55491,0.24662
3,3,2,23,90,90,46,26,1,2,1,1,1,0,99.1992,99.362,3.4297,6.0454,2,1,4,0.65428,0.8884
3,3,2,24,90,60,46,43,1,1,1,2,1,0,99.8503,86.8294,0.88006,1.8965,1,3,4,0.71379,0.45014
3,3,2,25,60,60,39,43,2,1,2,1,1,1,84.5508,58.6719,2.0631,1.3467,1,2,1,0.92826,0.41316
3,3,3,1,90,60,34,43,2,1,1,1,0,1,78.6914,65.5078,1.3468,2.0634,1,4,2,0.83033,0.36717
3,3,3,2,60,90,41,54,1,1,2,1,0,1,80.319,95.7812,1.8814,0.88184,2,2,1,0.65545,0.32626
3,3,3,3,60,90,39,54,2,1,1,1,0,1,57.0443,94.4792,0.58196,1.3317,2,4,3,1.1979,0.26335
3,3,3,4,60,90,39,54,2,1,2,1,1,1,66.9727,81.4583,1.5804,0.43094,1,4,3,0.63624,0.34078
3,3,3,5,60,90,41,26,1,2,1,2,1,1,85.8529,100,1.6798,0.78024,2,2,1,0.80919,0.40462
3,3,3,6,90,90,34,54,2,1,2,2,1,0,93.0143,57.8581,0.71522,1.5483,1,2,3,0.62112,0.34367
3,3,3,7,60,90,41,26,1,2,1,2,1,1,99.8503,98.5482,0.56397,1.2804,1,1,4,0.46494,0.33737
3,3,3,8,60,90,41,26,1,2,1,2,1,1,93.1771,100,1.4307,0.58111,2,4,3,0.76211,0.40774
3,3,3,9,90,90,34,54,2,1,2,1,1,1,73.6458,92.3633,1.8306,1.1476,2,4,2,0.74032,0.19321
3,3,3,10,90,90,46,26,1,2,1,2,1,1,100,100,0.88193,1.7652,1,1,3,0.49597,0.32873
3,3,3,11,60,60,39,37,2,2,1,2,0,1,88.6198,97.8971,1.765,3.4642,2,1,4,0.58547,0.39879
3,3,3,12,60,60,41,43,1,1,1,1,1,1,90.0846,84.5508,0.83031,1.6801,2,4,1,0.65675,0.37716
3,3,3,13,90,90,34,26,2,2,2,2,1,1,99.1992,98.2227,0.88092,2.4137,1,3,4,0.58004,0.43806
3,3,3,14,60,90,39,54,2,1,1,1,0,1,68.6003,97.7344,0.78201,3.6643,2,3,4,0.69013,0.29613
3,3,3,15,60,90,41,54,1,1,1,1,1,1,88.9453,63.3919,2.0805,0.53116,1,3,4,0.51322,0.40132
3,3,3,16,60,90,41,54,1,1,2,1,0,1,76.4128,99.6875,1.8469,0.96401,1,4,1,0.59901,0.38508
3,3,3,17,60,90,41,26,1,2,1,2,1,1,98.5482,98.8737,0.66523,1.5317,1,3,1,0.70156,0.46791
3,3,3,18,90,60,46,43,1,1,1,1,1,1,96.5951,70.7161,4.4805,1.465,1,3,1,0.6062,0.24322
3,3,3,19,60,90,41,26,1,2,1,1,1,0,92.6888,62.0898,0.58091,1.364,1,3,4,1.1361,0.39859
3,3,3,20,90,90,46,54,1,1,1,1,1,1,85.6901,98.0599,0.79533,1.7117,2,1,3,0.55332,0.35119
3,3,3,21,60,60,41,37,1,2,2,2,0,1,99.6875,100,2.0648,0.882,1,3,2,0.57964,0.29626
3,3,3,22,60,90,39,54,2,1,1,1,0,1,83.5742,99.6875,1.7468,0.83058,2,3,1,0.70518,0.22484
3,3,3,23,90,90,46,26,1,2,1,2,1,1,96.7578,95.7812,0.68021,1.6966,2,4,3,0.71638,0.32254
3,3,3,24,60,60,41,43,1,1,2,2,0,0,85.6901,84.8763,1.2983,2.1649,2,3,1,0.76972,0.40637
3,3,3,25,90,60,34,43,2,1,2,2,1,0,97.5716,97.2461,1.5808,0.63123,1,3,2,0.57906,0.31768
3,3,4,1,90,60,34,43,2,1,2,2,1,0,77.7148,66.9727,0.63182,1.465,1,4,3,1.5657,0.43405
3,3,4,2,60,90,41,54,1,1,1,1,1,1,87.806,97.7344,2.0148,0.9652,1,1,2,0.60825,0.25808
3,3,4,3,90,90,34,54,2,1,2,1,1,1,81.2956,94.9674,2.2467,3.1297,1,1,4,0.73377,0.31574
3,3,4,4,90,90,34,54,2,1,1,1,0,1,58.0208,57.5326,1.6649,0.76531,1,1,4,1.5659,0.29247
3,3,4,5,60,90,41,26,1,2,1,2,1,1,69.7396,91.3867,2.4964,1.2469,2,2,4,0.61419,0.28083
3,3,4,6,60,90,39,54,2,1,1,1,0,1,85.8529,95.293,1.6297,0.96346,1,4,3,0.61734,0.27394
3,3,4,7,60,90,41,26,1,2,1,2,1,1,97.2461,85.5273,0.66373,1.6467,1,1,3,0.51302,0.28768
3,3,4,8,90,90,46,26,1,2,1,2,1,1,97.5716,94.9674,0.8635,1.53,1,1,4,0.52346,0.30664
3,3,4,9,60,90,39,54,2,1,1,1,0,1,75.9245,94.8047,2.1634,1.214,2,1,2,0.75824,0.28285
3,3,4,10,90,90,46,26,1,2,1,2,1,1,87.6432,88.457,1.0806,2.1635,2,3,4,0.77728,0.20511
3,3,4,11,60,90,39,26,2,2,2,2,1,1,85.3646,94.4792,1.5637,0.69747,1,2,1,0.51455,0.37847
3,3,4,12,60,90,41,54,1,1,1,1,1,1,90.4102,75.2734,2.3482,1.4151,1,4,1,0.55448,0.30337
3,3,4,13,90,90,34,26,2,2,2,2,1,1,84.0625,69.9023,0.64867,1.5318,1,2,3,0.62505,0.31722
3,3,4,14,90,60,34,43,2,1,2,1,1,1,85.3646,65.0195,1.9301,2.9298,1,4,3,0.53125,0.31547
3,3,4,15,60,90,41,54,1,1,2,1,0,1,68.9258,58.6719,0.96505,1.5815,1,3,4,0.72738,0.25492
3,3,4,16,90,90,46,54,1,1,1,1,1,1,93.6654,87.1549,1.6317,0.96531,1,4,2,0.52044,0.28603
3,3,4,17,60,90,41,26,1,2,2,2,0,1,81.6211,90.5729,2.18,1.0972,2,3,4,0.78661,0.48814
3,3,4,18,90,90,46,54,1,1,1,1,1,1,97.8971,73.8086,0.73064,1.5304,1,3,2,0.58058,0.24853
3,3,4,19,90,60,46,37,1,2,1,1,1,0,95.1302,90.2474,0.99854,1.7982,1,1,2,0.60445,0.40917
3,3,4,20,60,60,41,43,1,1,1,1,1,1,96.4323,87.806,0.7638,2.1134,1,4,1,0.52264,0.34184
3,3,4,21,90,60,46,37,1,2,1,2,1,1,63.2292,69.2513,0.74718,1.7469,1,2,4,1.1609,0.43728
3,3,4,22,60,60,39,43,2,1,1,1,0,1,80.319,89.4336,1.9466,1.1969,1,4,2,0.58516,0.37081
3,3,4,23,90,90,46,26,1,2,1,2,1,1,93.6654,92.526,0.86534,1.5651,1,2,1,0.63751,0.34373
3,3,4,24,90,60,46,43,1,1,1,2,1,0,91.0612,70.8789,2.8301,1.0309,1,4,2,1.0287,0.20912
3,3,4,25,60,60,39,43,2,1,2,1,1,1,86.6667,86.1784,1.0468,1.7299,1,1,3,0.56344,0.3456
3,4,1,1,90,60,34,43,2,1,2,2,1,0,96.1068,60.9505,3.6797,1.2473,1,3,2,0.87318,0.63107
3,4,1,2,60,60,39,37,2,2,1,2,0,1,95.293,92.8516,0.66411,1.3473,1,2,3,0.50805,0.29878
3,4,1,3,60,90,39,26,2,2,2,2,1,1,69.5768,90.4102,2.1304,1.3475,1,2,1,0.49972,0.17869
3,4,1,4,60,60,41,37,1,2,1,2,1,1,86.1784,91.224,1.8304,1.1974,1,2,4,1.1075,0.39272
3,4,1,5,90,90,46,26,1,2,1,2,1,1,93.0143,94.6419,0.68251,1.5983,1,4,1,0.51006,0.26834
3,4,1,6,90,90,46,26,1,2,1,2,1,1,97.2461,100,0.71533,1.8483,1,1,2,0.60823,0.39622
3,4,1,7,90,60,34,37,2,2,2,1,1,0,97.7344,79.3424,0.91526,2.0315,1,3,2,0.50734,0.39391
3,4,1,8,60,90,41,26,1,2,2,2,0,1,70.7161,71.3672,0.44774,2.3304,1,4,3,0.55647,0.29587
3,4,1,9,90,60,34,37,2,2,2,2,1,1,83.2487,65.0195,0.6821,1.3984,1,2,3,0.55836,0.38676
3,4,1,10,90,90,34,54,2,1,1,1,0,1,61.276,75.4362,0.74847,1.2817,1,4,2,1.1711,0.28013
3,4,1,11,60,60,41,37,1,2,2,2,0,1,81.1328,59.1602,0.94703,1.6801,1,1,3,0.8548,0.49715
3,4,1,12,90,90,34,54,2,1,2,1,1,1,90.5729,90.7357,0.68188,1.6649,1,1,2,0.58159,0.37636
3,4,1,13,90,60,46,43,1,1,1,2,1,0,95.6185,77.2266,0.73041,1.347,1,1,4,0.45878,0.34873
3,4,1,14,90,60,34,37,2,2,1,2,0,1,58.5091,83.2487,0.51532,1.515,2,3,1,0.69208,0.4295
3,4,1,15,90,60,34,37,2,2,2,2,1,1,49.5573,59.1602,2.0302,1.3139,1,1,3,0.60648,0.3603
3,4,1,16,90,90,46,54,1,1,1,1,1,1,99.1992,99.6875,0.96395,2.4301,1,4,2,0.51616,0.20078
3,4,1,17,60,90,41,54,1,1,2,1,0,1,93.3398,80.6445,0.79865,1.4651,1,1,3,0.60944,0.53182
3,4,1,18,90,90,34,26,2,2,2,2,1,1,83.4115,73.1576,1.813,1.0967,2,2,1,0.91029,0.36586
3,4,1,19,60,90,41,54,1,1,1,1,1,1,83.0859,77.5521,0.48027,1.23,1,1,2,0.47647,0.28345
3,4,1,20,90,60,34,43,2,1,2,1,1,1,93.6654,89.1081,2.247,1.4641,2,3,4,0.70607,0.27465
3,4,1,21,90,60,46,37,1,2,1,2,1,1,94.3164,69.9023,0.63069,1.3805,1,2,3,0.64242,0.34329
3,4,1,22,90,90,46,26,1,2,1,2,1,1,100,87.4805,0.99723,1.697,1,3,2,0.57196,0.38207
3,4,1,23,90,60,46,37,1,2,1,2,1,1,94.9674,79.9935,0.6805,1.5302,1,1,4,0.58826,0.31327
3,4,1,24,90,90,34,26,2,2,2,2,1,1,94.8047,94.1536,1.6483,0.78199,1,3,4,0.89049,0.37878
3,4,1,25,90,60,34,43,2,1,2,2,1,0,94.3164,95.944,1.5304,0.81404,1,3,1,0.57404,0.42488
3,4,2,1,90,60,34,43,2,1,1,2,0,0,58.0208,59.1602,1.7303,1.1472,1,1,3,2.277,0.44605
3,4,2,2,90,60,34,37,2,2,2,2,1,1,87.1549,93.8281,1.3473,0.51438,1,4,2,0.82625,0.25373
3,4,2,3,60,60,39,37,2,2,1,2,0,1,59.3229,80.319,0.94734,2.6467,1,3,2,1.4167,0.26911
3,4,2,4,90,60,46,37,1,2,1,1,1,0,84.8763,64.5312,3.281,2.3481,1,2,4,0.62944,0.44642
3,4,2,5,60,90,41,26,1,2,2,2,0,1,76.5755,86.9922,1.5639,0.86417,2,1,4,1.2053,0.30298
3,4,2,6,60,90,41,26,1,2,1,2,1,1,76.4128,89.2708,1.5948,0.86186,2,2,1,0.59436,0.33627
3,4,2,7,60,90,39,26,2,2,2,2,1,1,84.5508,95.4557,3.2133,1.6138,2,1,2,0.61146,0.46329
3,4,2,8,90,60,46,37,1,2,1,2,1,1,93.1771,71.5299,1.5616,0.79521,1,1,3,0.69057,0.39206
3,4,2,9,90,90,34,26,2,2,2,2,1,1,96.4323,95.944,0.99772,2.0141,1,1,3,0.527,0.36662
3,4,2,10,90,60,34,43,2,1,2,2,1,0,71.2044,65.6706,0.78085,1.4307,1,1,4,0.78951,0.23407
3,4,2,11,90,90,46,26,1,2,1,2,1,1,97.7344,97.7344,0.78043,1.7801,1,2,1,0.64667,0.39094
3,4,2,12,90,60,34,43,2,1,2,2,1,0,71.0417,64.043,0.64866,1.3984,1,2,1,1.0861,0.39654
3,4,2,13,60,60,41,43,1,1,1,2,1,0,83.2487,78.2031,0.73073,1.4805,1,1,4,0.63905,0.32272
3,4,2,14,90,60,34,37,2,2,2,1,1,0,81.9466,77.0638,0.63194,1.4484,1,4,3,0.51072,0.24716
3,4,2,15,90,60,34,37,2,2,2,1,1,0,91.7122,74.2969,0.56525,2.2314,1,3,1,0.61772,0.35469
3,4,2,16,60,60,41,43,1,1,1,2,1,0,88.7826,68.112,0.74705,1.6468,1,2,1,0.53384,0.3246
3,4,2,17,90,90,46,54,1,1,1,1,1,1,85.6901,78.6914,0.94854,1.8649,1,2,3,0.54939,0.34631
3,4,2,18,90,60,34,37,2,2,1,1,0,0,60.9505,61.9271,0.547,1.1968,1,1,4,0.72444,0.35628
3,4,2,19,90,90,46,54,1,1,2,2,0,0,51.9987,51.0221,0.71199,1.2285,1,2,3,1.7185,0.27525
3,4,2,20,90,60,34,43,2,1,2,2,1,0,82.7604,75.1107,0.99872,1.7984,1,2,4,0.65611,0.45736
3,4,2,21,90,60,46,37,1,2,1,1,1,0,95.7812,81.6211,0.72827,1.9946,1,3,1,0.5304,0.39264
3,4,2,22,90,60,46,37,1,2,1,2,1,1,96.4323,93.6654,0.764,1.4805,2,4,3,0.61636,0.26687
3,4,2,23,60,60,41,37,1,2,1,2,1,1,80.8073,95.6185,1.2809,0.58127,1,3,4,0.65782,0.27524
3,4,2,24,90,60,34,37,2,2,2,2,1,1,98.7109,96.2695,0.78193,1.6484,1,1,4,0.48196,0.21829
3,4,2,25,90,60,34,43,2,1,2,1,1,1,67.6237,85.2018,1.9149,0.982,2,4,2,1.2305,0.40144
3,4,3,1,90,60,34,43,2,1,1,2,0,0,85.5273,87.806,0.89645,1.8294,2,3,2,1.0245,0.58704
3,4,3,2,90,90,34,26,2,2,2,2,1,1,98.3854,98.7109,0.86413,1.6805,1,4,1,0.4756,0.31757
3,4,3,3,60,60,39,37,2,2,1,1,0,0,89.4336,56.7188,1.3311,0.83137,1,4,1,0.5979,0.46708
3,4,3,4,90,90,46,26,1,2,1,2,1,1,99.5247,98.2227,0.84836,1.6148,1,3,4,0.52223,0.37518
3,4,3,5,60,90,41,26,1,2,1,2,1,1,98.3854,96.4323,1.6467,2.7463,1,2,4,0.46912,0.42233
3,4,3,6,60,60,41,37,1,2,2,2,0,1,69.4141,94.6419,1.9802,1.1805,1,4,1,0.73152,0.37052
3,4,3,7,90,60,34,37,2,2,2,2,1,1,86.1784,85.8529,0.995,1.9114,1,4,3,0.58016,0.35859
3,4,3,8,60,90,41,26,1,2,1,2,1,1,92.2005,49.2318,1.6649,2.7146,1,2,4,0.5681,0.28421
3,4,3,9,90,60,34,37,2,2,1,1,0,0,83.2487,55.4167,1.9304,1.2974,1,1,4,0.63307,0.2909
3,4,3,10,90,60,34,43,2,1,2,1,1,1,85.2018,89.5964,1.9625,1.1629,1,4,2,0.58835,0.35967
3,4,3,11,60,90,41,26,1,2,2,2,0,1,83.4115,87.6432,0.96369,2.0967,1,4,2,0.50019,0.33237
3,4,3,12,90,60,34,43,2,1,2,1,1,1,92.526,86.9922,0.63191,1.5649,1,3,2,0.67117,0.46273
3,4,3,13,90,90,46,54,1,1,1,1,1,1,92.2005,93.5026,0.86489,1.7646,1,4,3,0.55696,0.41123
3,4,3,14,60,90,39,26,2,2,1,2,0,1,62.5781,93.1771,1.3635,2.0966,2,3,4,0.85565,0.24236
3,4,3,15,90,60,34,37,2,2,2,2,1,1,96.9206,95.7812,0.76366,2.5464,1,3,1,0.49568,0.43945
3,4,3,16,90,90,46,54,1,1,1,1,1,1,99.6875,100,0.74853,1.6983,1,4,2,0.5007,0.34611
3,4,3,17,90,60,46,43,1,1,1,1,1,1,98.3854,87.3177,0.68049,1.347,1,3,2,0.54446,0.27978
3,4,3,18,60,60,39,37,2,2,1,2,0,1,82.7604,73.9714,1.0802,1.7801,1,3,2,1.9368,0.75102
3,4,3,19,60,90,41,54,1,1,2,1,0,1,82.1094,82.4349,1.1139,1.8139,1,2,4,0.47809,0.25238
3,4,3,20,90,90,34,54,2,1,2,1,1,1,89.7591,90.7357,0.81427,2.9302,1,4,3,0.47336,0.23285
3,4,3,21,90,60,46,37,1,2,1,1,1,0,94.1536,89.4336,0.84765,1.7141,1,2,1,0.5744,0.28348
3,4,3,22,60,90,41,26,1,2,1,2,1,1,68.763,69.5768,1.9632,1.3636,2,3,4,0.94155,0.40627
3,4,3,23,60,60,41,37,1,2,2,1,0,0,75.599,76.0872,0.69866,1.8816,2,4,1,1.0385,0.37679
3,4,3,24,60,90,39,26,2,2,2,2,1,1,90.2474,94.3164,1.614,0.78109,1,1,3,0.54868,0.33791
3,4,3,25,90,60,34,43,2,1,1,2,0,0,76.901,59.8112,2.6129,0.9138,1,2,1,0.67187,0.29694
3,4,4,1,60,90,39,54,2,1,1,1,0,1,85.3646,87.1549,0.81368,1.6134,1,3,1,0.55063,0.38631
3,4,4,2,60,60,39,37,2,2,1,2,0,1,90.4102,76.4128,1.0473,2.2802,1,3,1,0.57332,0.39972
3,4,4,3,90,60,34,37,2,2,2,2,1,1,96.5951,95.6185,0.7302,2.2797,1,2,3,0.46899,0.33278
3,4,4,4,60,90,41,26,1,2,1,2,1,1,65.3451,95.293,0.59666,2.4794,2,2,3,0.60951,0.37432
3,4,4,5,60,60,41,37,1,2,1,2,1,1,75.2734,92.526,1.7302,0.9306,1,2,4,1.0406,0.4752
3,4,4,6,90,60,46,37,1,2,1,1,1,0,93.6654,80.1562,0.9137,1.9467,1,3,4,0.57681,0.34344
3,4,4,7,90,60,34,37,2,2,2,2,1,1,96.4323,93.8281,0.69841,2.4311,1,3,1,0.52688,0.4288
3,4,4,8,90,90,46,26,1,2,1,2,1,1,90.0846,70.7161,1.6317,0.79877,1,2,4,0.46494,0.39185
3,4,4,9,60,90,39,26,2,2,2,2,1,1,93.6654,85.5273,0.82851,2.1781,2,2,1,0.55534,0.33601
3,4,4,10,90,60,34,43,2,1,2,1,1,1,96.1068,92.2005,1.5813,0.7151,1,1,4,0.52472,0.29074
3,4,4,11,60,90,41,26,1,2,1,2,1,1,79.9935,87.3177,1.5982,0.96519,1,1,4,0.83097,0.25682
3,4,4,12,90,60,34,43,2,1,2,1,1,1,94.4792,93.5026,0.96363,2.0966,2,2,1,0.43541,0.22188
3,4,4,13,60,90,41,54,1,1,1,1,1,1,71.2044,95.4557,0.78082,1.7972,1,3,4,0.58869,0.22254
3,4,4,14,60,90,39,26,2,2,1,2,0,1,83.0859,77.8776,0.54723,1.7302,2,1,2,0.5585,0.34523
3,4,4,15,90,60,34,37,2,2,1,1,0,0,57.8581,58.9974,0.73166,1.2483,1,1,2,0.86972,0.27531
