"Subj_idx","Stimulus","Response","RT_dec","Confidence","RT_conf","SOA","Accuracy","Trial"
1,2,1,0.851354999933392,0.164547578984898,1.4383300000336,48.6,0,1
1,1,2,1.99413500004448,0.721195558198892,0.926970000145957,54,0,2
1,2,1,0.884730000048876,0.316112320909741,0.950044999830425,60,0,3
1,1,1,0.74087500013411,1,1.26413999986835,66.6666666666667,1,4
1,1,2,1.24365500011481,0,0.75918999989517,66.6666666666667,0,5
1,2,1,0.688280000118539,0.302863870772276,0.782914999872446,74.0740740740741,0,6
1,2,1,0.761960000032559,0.571136966715751,0.622964999871328,82.3045267489712,0,7
1,1,1,0.677415000041947,1,1.27937000012025,91.4494741655236,1,8
1,1,1,0.669785000151023,0.824589296144754,0.815244999947026,91.4494741655236,1,9
1,2,2,1.50392999988981,0.560986189914006,0.799800000153482,82.3045267489712,1,10
1,1,1,0.538235000101849,0.92248025601128,0.972639999818057,82.3045267489712,1,11
1,2,1,0.748429999919608,1,0.943880000151694,74.0740740740741,0,12
1,2,2,0.704355000052601,0.831358071750108,0.91852999990806,82.3045267489712,1,13
1,1,1,0.503899999894202,1,0.870905000017956,82.3045267489712,1,14
1,1,1,0.566610000096262,1,0.93197499983944,74.0740740740741,1,15
1,2,1,0.645294999936596,0.918454557728239,1.44742999994196,74.0740740740741,0,16
1,2,1,0.810904999962077,0.929925717890996,2.15890499996021,82.3045267489712,0,17
1,1,1,0.570084999781102,1,0.727560000028461,91.4494741655236,1,18
1,2,2,0.707854999927804,1,0.991930000018328,91.4494741655236,1,19
1,1,1,0.628449999960139,1,1.13615999999456,82.3045267489712,1,20
1,1,1,0.898795000044629,0.994967865417963,0.77445499994792,82.3045267489712,1,21
1,2,2,0.620009999955073,1,0.839159999974072,74.0740740740741,1,22
1,1,1,0.606769999954849,1,0.815179999917746,74.0740740740741,1,23
1,2,2,1.06049000006169,1,0.87923499988392,66.6666666666667,1,24
1,2,2,0.985690000001341,1,0.806979999877512,66.6666666666667,1,25
1,1,1,0.870205000042915,1,0.706909999949858,60,1,26
1,2,2,0.837174999993294,1,0.774549999972805,60,1,27
1,1,1,0.682954999851063,1,0.64526000013575,54,1,28
1,1,1,0.696220000041649,1,0.625869999872521,54,1,29
1,2,2,0.660655000014231,1,0.644975000061095,48.6,1,30
1,2,2,0.667055000085384,1,0.606189999962226,48.6,1,31
1,1,1,0.668310000095516,1,0.647279999917373,43.74,1,32
1,1,1,0.627179999835789,1,0.550604999996722,43.74,1,33
1,2,2,0.688794999849051,1,0.462814999977127,39.366,1,34
1,2,2,0.778055000118911,1,0.495764999883249,39.366,1,35
1,1,1,0.595470000058413,1,0.546094999881461,35.4294,1,36
1,1,1,0.717414999846369,1,0.527960000094026,35.4294,1,37
1,2,2,0.687875000061467,1,0.558859999990091,31.88646,1,38
1,1,1,0.73518000007607,1,0.575465000001714,31.88646,1,39
1,2,2,0.650290000019595,1,0.683859999990091,28.697814,1,40
1,2,2,0.815925000002608,1,0.525295000057667,28.697814,1,41
1,1,2,0.959219999844208,1,1.03124500019476,25.8280326,0,42
1,1,1,0.578860000008717,1,0.583115000044927,28.697814,1,43
1,2,2,0.702670000027865,0.47783291125492,1.38060000003316,28.697814,1,44
1,2,2,0.733140000142157,0.306328544740657,0.598830000031739,25.8280326,1,45
1,1,2,0.796794999856502,0.38766788049919,0.702964999945834,25.8280326,0,46
1,2,1,0.605804999824613,0.42045581316082,0.511325000086799,28.697814,0,47
1,1,1,0.568759999936447,0.121837774943451,0.491919999942183,31.88646,1,48
1,1,1,0.860679999925196,0.484322752196795,0.798304999945685,31.88646,1,49
1,2,2,0.556730000069365,0.882279294709948,0.511159999994561,28.697814,1,50
1,2,1,0.173265000106767,0.824971893990153,0.902889999793842,28.697814,0,51
1,1,1,0.567989999894053,0.920306095788284,0.501669999910519,31.88646,1,52
1,2,2,0.671174999792129,1,0.550645000068471,31.88646,1,53
1,1,1,0.642674999777228,1,0.543430000077933,28.697814,1,54
1,1,2,0.882394999964163,1,0.621425000019372,28.697814,0,55
1,2,2,0.787149999989197,1,0.536044999957085,31.88646,1,56
1,2,2,0.752555000130087,1,0.662984999828041,31.88646,1,57
1,1,1,0.677385000046343,0.936055279614657,0.735885000089183,28.697814,1,58
1,1,2,0.739250000100583,0.810131001776999,0.630579999880865,28.697814,0,59
1,2,2,0.720525000011548,0.818735817220526,0.598800000036135,31.88646,1,60
1,1,2,0.713789999950677,0.836285800398497,0.582790000131354,31.88646,0,61
1,2,2,0.729879999998957,0.873028526808136,0.8148499999661,35.4294,1,62
1,2,2,0.672225000103936,0.905953911480777,0.600039999932051,35.4294,1,63
1,1,2,0.683230000082403,0.953922099879464,0.65292500006035,31.88646,0,64
1,2,2,1.40261500002816,0.38412327637726,1.88638000003994,35.4294,1,65
1,1,1,0.672610000008717,0.627023366029665,0.59950999985449,35.4294,1,66
1,2,2,0.770724999951199,0.811950261742734,0.539990000193939,31.88646,1,67
1,1,2,0.980440000072122,0.696114481269161,0.487500000046566,31.88646,0,68
1,2,2,0.702124999836087,0.532293647662558,0.519425000064075,35.4294,1,69
1,1,1,0.878079999936745,0.448666740362676,0.494909999892116,35.4294,1,70
1,1,2,0.689815000165254,0.192759085266503,0.436014999868348,31.88646,0,71
1,2,2,0.653720000060275,0.136386064649983,0.422624999890104,35.4294,1,72
1,2,2,1.19941500015557,0.029239600553381,0.589374999981374,35.4294,1,73
1,1,1,0.626330000115559,0.707482993197278,0.614999999990687,31.88646,1,74
1,1,2,0.708480000030249,0.46353971967528,0.423225000035018,31.88646,0,75
1,2,2,0.75730499997735,0.662626400849833,0.463100000051782,35.4294,1,76
1,1,1,0.798409999813884,0.492095885147103,0.509455000050366,35.4294,1,77
1,2,2,1.04240000015125,0.595010780382419,0.479384999955073,31.88646,1,78
1,2,2,0.776450000004843,0.738902527173492,0.607134999940172,31.88646,1,79
1,1,1,0.936895000049844,0.588364179416885,0.932980000041425,28.697814,1,80
1,1,1,1.88926999992691,1,0.638620000099763,28.697814,1,81
1,2,2,1.62525500007905,1,0.807090000016615,25.8280326,1,82
1,1,2,0.71570000005886,0.230131159854784,0.887425000080839,25.8280326,0,83
1,2,2,0.698835000162944,0.364082527266693,0.459989999886602,28.697814,1,84
1,1,1,0.778244999935851,0.267186710733836,0.991180000128224,28.697814,1,85
1,2,2,0.74386000004597,0.430562210840127,0.479009999893606,25.8280326,1,86
1,1,2,0.855645000003278,0.513393924543358,0.495594999985769,25.8280326,0,87
1,2,2,0.653149999910966,0.272122783305509,0.43652500002645,28.697814,1,88
1,2,2,0.664580000098795,0.316578414160244,0.470094999996945,28.697814,1,89
1,1,1,0.770784999942407,0.186653774387302,0.470860000001267,25.8280326,1,90
1,2,2,0.68152999994345,0.211684730325534,0.583069999935105,25.8280326,1,91
1,1,2,0.614569999976084,0.158945330978001,0.660685000009835,23.24522934,0,92
1,2,2,0.748385000042617,0.181843654211784,0.471439999993891,25.8280326,1,93
1,1,1,0.743084999965504,0.356216458644538,0.592699999921024,25.8280326,1,94
1,1,1,0.713914999971166,0.722272743358831,0.600585000123829,23.24522934,1,95
1,2,1,0.750830000033602,0.239504802338246,0.653644999954849,23.24522934,0,96
2,1,1,0.694415000000037,1,1.256125,48.6,1,1
2,2,2,0.697299999999988,1,1.48015000000002,48.6,1,2
2,2,2,0.636934999999998,1,0.994000000000029,43.74,1,3
2,1,1,0.667690000000002,1,0.757110000000015,43.74,1,4
2,2,2,0.641460000000021,1,1.22066,39.366,1,5
2,1,1,0.636795000000013,1,1.65892000000001,39.366,1,6
2,1,1,0.700075000000041,1,1.00126000000001,35.4294,1,7
2,2,2,0.732934999999998,1,1.18282999999996,35.4294,1,8
2,1,1,0.929385000000009,1,0.631445000000007,31.88646,1,9
2,2,2,0.743090000000055,1,0.97301999999996,31.88646,1,10
2,2,2,0.997799999999988,1,0.63899000000002,28.697814,1,11
2,1,1,0.836504999999976,1,0.747910000000003,28.697814,1,12
2,1,2,0.867429999999993,1,0.86402999999997,25.8280326,0,13
2,2,2,1.31541999999998,1,0.760700000000041,28.697814,1,14
2,2,2,0.876235000000015,1,1.23014499999999,28.697814,1,15
2,1,1,1.00028000000003,1,0.609854999999981,25.8280326,1,16
2,1,1,0.715910000000003,1,0.797725000000035,25.8280326,1,17
2,2,1,1.48031000000003,0,3.25380999999991,23.24522934,0,18
2,1,1,0.820199999999953,1,0.879660000000091,25.8280326,1,19
2,2,2,1.02536999999994,0.419962688214232,1.01072999999998,25.8280326,1,20
2,2,2,0.812809999999881,0.807578187568597,1.45585500000004,23.24522934,1,21
2,1,1,0.671489999999991,0.744343924910249,2.28230500000005,23.24522934,1,22
2,2,2,1.02642499999999,0.245375049615789,2.98643500000006,20.920706406,1,23
2,1,1,0.706934999999939,0.991301526332921,0.993739999999991,20.920706406,1,24
2,2,2,0.716175000000047,0.615302994228476,0.747499999999942,18.8286357654,1,25
2,1,1,0.677210000000079,0.991403529109408,1.02627499999991,18.8286357654,1,26
2,1,1,0.736899999999965,0.983193561717472,1.34654999999999,16.94577218886,1,27
2,2,2,0.681039999999921,0.917778486545819,0.801235000000044,16.94577218886,1,28
2,1,1,0.560889999999956,1,0.944099999999919,15.251194969974,1,29
2,2,2,0.729294999999925,0.826906479225854,0.813630000000005,15.251194969974,1,30
2,2,2,0.966505000000005,0.117874393152881,0.666650000000023,13.7260754729766,1,31
2,1,1,0.779060000000114,1,0.852604999999923,13.7260754729766,1,32
2,2,2,0.832130000000005,0.129421715594414,0.667900000000023,12.3534679256789,1,33
2,1,1,0.720860000000044,0.518267958152888,0.782534999999916,12.3534679256789,1,34
2,1,1,0.722289999999921,0.680721752715488,0.807545000000042,11.1181211331111,1,35
2,2,2,0.64257500000007,0.811950261742734,1.04433499999996,11.1181211331111,1,36
2,2,2,1.04954999999993,0.261661734620911,0.81848000000004,10.0063090197999,1,37
2,1,1,0.638905000000028,0.76193033568276,1.00031,10.0063090197999,1,38
2,2,2,0.746024999999907,0.556633293968886,1.06204500000004,9.00567811781995,1,39
2,1,1,0.685195000000007,0.755127808329529,0.877580000000075,9.00567811781995,1,40
2,2,2,0.781924999999988,0.900645681428316,0.753609999999986,8.10511030603796,1,41
2,1,1,0.617365000000049,1,1.11820000000001,8.10511030603796,1,42
2,2,2,0.667600000000035,0.920131970865748,0.751759999999951,7.29459927543416,1,43
2,1,1,0.90598000000004,0.858276001982316,0.915949999999953,7.29459927543416,1,44
2,1,1,0.760179999999993,0.817194570313394,0.861260000000009,6.56513934789075,1,45
2,2,1,0.756679999999935,0.845880398214192,0.814100000000035,6.56513934789075,0,46
2,1,1,0.774239999999991,0.897603425038327,1.07323000000004,7.29459927543416,1,47
2,2,2,0.740005000000005,0.53074965958777,0.962535000000033,7.29459927543416,1,48
2,1,1,0.648074999999895,0.948147477856886,0.716485000000044,6.56513934789075,1,49
2,2,2,0.777114999999991,0.667694996549937,1.06918499999994,6.56513934789075,1,50
2,1,1,0.640004999999946,0.755333921823076,0.666205000000016,5.90862541310167,1,51
2,2,1,0.816765000000014,0.924649988195592,0.837009999999951,5.90862541310167,0,52
2,2,1,0.808689999999944,0.578904832401104,0.972850000000035,6.56513934789075,0,53
2,1,2,1.76655500000005,0.251583374539434,1.12636999999994,7.29459927543416,0,54
2,1,1,0.687529999999912,0.753373929797477,0.657620000000054,8.10511030603796,1,55
2,2,2,0.655630000000121,0.809766732867227,0.872334999999905,8.10511030603796,1,56
2,1,1,0.630205000000075,0.702433990041309,0.846125,7.29459927543416,1,57
2,2,1,0.817419999999984,0.960966895229202,0.643270000000019,7.29459927543416,0,58
2,1,1,0.621809999999998,0.920306095788284,0.925775000000023,8.10511030603796,1,59
2,2,1,0.804790000000037,0.585065801327642,0.674109999999928,8.10511030603796,0,60
2,1,2,0.705895000000077,0.506971876685129,0.824289999999863,9.00567811781995,0,61
2,2,2,0.935444999999949,0.854895897540087,0.816239999999991,10.0063090197999,1,62
2,2,2,1.07491000000003,0.787201967929937,0.944095000000088,10.0063090197999,1,63
2,1,1,0.759645000000135,0.619077987732961,0.742539999999921,9.00567811781995,1,64
2,1,1,0.616625,0.378872094933714,0.850494999999995,9.00567811781995,1,65
2,2,2,0.902830000000016,0.365210948294907,0.8554200000001,8.10511030603796,1,66
2,2,2,1.20367499999999,0.119643284103057,1.11307000000012,8.10511030603796,1,67
2,1,1,0.776984999999986,0.290065376236661,1.16089000000001,7.29459927543416,1,68
2,2,2,0.62402999999997,0.060087535920765,1.31605999999994,7.29459927543416,1,69
2,1,1,0.711770000000019,0.482549384193806,1.69806500000006,6.56513934789075,1,70
2,2,2,0.98451999999996,0.146558467839219,0.866824999999953,6.56513934789075,1,71
2,1,1,0.755334999999963,0.628824539455087,1.22742999999999,5.90862541310167,1,72
2,2,2,0.801540000000037,0.178026569117571,1.18819499999995,5.90862541310167,1,73
2,1,1,1.08945500000002,0.415131881752649,0.977504999999946,5.3177628717915,1,74
2,2,1,0.697360000000044,0.056289539704822,1.31222499999998,5.3177628717915,0,75
2,1,1,0.636969999999914,0.736379754872166,1.26056500000006,5.90862541310167,1,76
2,2,2,0.869085000000079,0.403439905113302,1.01740999999992,5.90862541310167,1,77
2,1,1,0.845715000000026,0.342763763199312,0.863055000000051,5.3177628717915,1,78
2,2,2,1.19999499999994,0.268974445378647,0.750285000000091,5.3177628717915,1,79
2,1,1,1.27879499999993,0.064039541846878,1.54026999999996,4.78598658461235,1,80
2,1,2,1.27914500000002,0,1.46708000000002,4.78598658461235,0,81
2,2,2,0.769970000000088,0.143180898525559,0.879569999999949,5.3177628717915,1,82
2,2,2,1.14058999999997,0.243223499963611,1.14522000000003,5.3177628717915,1,83
2,1,1,0.608279999999912,0.308076555623851,1.49134999999998,4.78598658461235,1,84
2,2,2,0.772955000000016,0.296168783680613,1.16125,4.78598658461235,1,85
2,1,1,0.606284999999916,0.294267315004553,1.17785500000004,4.30738792615112,1,86
2,2,2,0.845225000000035,0.296010642620117,0.792889999999956,4.30738792615112,1,87
2,1,1,0.871169999999925,0.433490328706806,1.41541000000003,3.87664913353601,1,88
2,1,1,0.909649999999965,0.366302786426237,0.768535000000033,3.87664913353601,1,89
2,2,2,0.638055000000051,0.375624462919489,1.13134499999986,3.48898422018241,1,90
2,1,1,0.771190000000061,0.360038355871461,1.23223999999993,3.48898422018241,1,91
2,2,2,0.654135000000009,0.337975429852307,0.974209999999963,3.14008579816417,1,92
2,1,1,0.611439999999944,0.354858495886812,0.730265000000014,3.14008579816417,1,93
2,2,1,0.601215000000026,0.128058608867209,1.46351500000001,2.82607721834775,0,94
2,1,1,0.65940499999997,0.30198048229311,0.795889999999956,3.14008579816417,1,95
2,2,2,0.630739999999991,0.320777121398332,0.875395000000019,3.14008579816417,1,96
3,2,2,1.03016500000012,0.680272108843537,2.18769000000067,48.6,1,1
3,1,1,1.00411999999959,0.42324207405079,1.88950000000114,48.6,1,2
3,2,2,0.8473900000008,0.722800809832401,1.78786000000036,43.74,1,3
3,1,2,1.30573999999982,0.217173295847598,2.69464499999955,43.74,0,4
3,2,2,0.880624999999796,0.71765346389149,5.04849999999898,48.6,1,5
3,1,1,1.39409999999954,0.543510109149901,1.89708500000052,48.6,1,6
3,2,2,1.04072500000076,0.564952828678615,1.73405499999897,43.74,1,7
3,1,1,0.842585000000341,0.86910335409304,1.9495050000005,43.74,1,8
3,2,2,1.19022499999846,0.639574081561321,2.86441000000012,39.366,1,9
3,1,1,0.76171000000069,0.688077903923943,1.80227000000014,39.366,1,10
3,2,2,0.940085000000196,0.798379894227372,1.74408000000039,35.4294,1,11
3,1,1,0.932705000001093,0.462623250341676,1.5998299999992,35.4294,1,12
3,2,1,0.841489999998885,0.661706636297824,1.62999500000116,31.88646,0,13
3,1,2,1.08310999999958,0.184310602895538,2.15145000000123,35.4294,0,14
3,1,2,2.93141499999911,0,1.57940500000044,39.366,0,15
3,2,1,1.33974999999919,0.122448979591836,4.30847499999983,43.74,0,16
3,2,2,2.53863000000088,0,3.56850999999914,48.6,1,17
3,1,1,2.20177999999945,0.351640322323435,1.89591500000097,48.6,1,18
3,2,2,1.30839500000002,0,1.92528499999939,43.74,1,19
3,1,1,0.880605000000331,0.612275540225233,1.83883500000043,43.74,1,20
3,1,1,1.10690500000055,0.565834916636288,2.14813499999949,39.366,1,21
3,2,2,0.947714999998454,0.588554016637584,2.11801500000001,39.366,1,22
3,2,2,1.11742000000051,0.231354354815648,2.21985999999929,35.4294,1,23
3,1,1,0.819110000000335,0.761776882170301,1.76503000000049,35.4294,1,24
3,1,1,1.24937999999931,0,1.91793000000145,31.88646,1,25
3,2,2,0.894510000000068,0.076524020361865,1.73900999999931,31.88646,1,26
3,1,1,0.73576999999932,0.729696258221712,1.79467000000115,28.697814,1,27
3,2,2,1.53137000000064,0,1.73776499999984,28.697814,1,28
3,2,1,0.916069999999308,0.326875551064818,1.60030499999993,25.8280326,0,29
3,1,2,1.48334500000055,0.233450794175219,1.58181499999954,28.697814,0,30
3,2,1,0.829130000000063,0.662971041902631,1.59479499999905,31.88646,0,31
3,1,2,0.948000000000291,0.246743430293234,1.97325999999885,35.4294,0,32
3,1,2,1.28400999999937,0,1.94563999999996,39.366,0,33
3,2,1,0.832674999999639,0.530474802164333,1.84550000000128,43.74,0,34
3,2,2,0.944980000000214,0.582486482275025,1.71341500000021,48.6,1,35
3,1,2,0.936480000000272,0.074829931972789,1.6828600000008,48.6,0,36
3,2,2,2.15541499999922,0.319927927937277,1.62647500000097,54,1,37
3,1,1,0.683610000000044,0.771470075183662,1.70063500000106,54,1,38
3,2,1,0.762055000001041,0.447844716900473,1.85209500000015,48.6,0,39
3,1,2,0.743420000000682,0.31661618478281,2.3877599999996,54,0,40
3,2,2,1.26642000000179,0.432968183777128,1.81758999999875,60,1,41
3,1,1,0.645935000000463,0.806530768225878,1.71572500000003,60,1,42
3,1,1,1.08874499999912,0.536904570434601,1.82848500000004,54,1,43
3,2,2,0.861879999998549,0.511619780724119,2.7440100000003,54,1,44
3,2,1,0.76594999999908,0.674885393208932,2.2268700000004,48.6,0,45
3,1,2,0.912825000001234,0.449604799178313,2.26724499999912,54,0,46
3,2,1,0.874719999999797,0.680693657165799,1.85092500000063,60,0,47
3,1,1,0.769179999999295,0.416002024450091,2.00335000000091,66.6666666666667,1,48
3,2,2,1.18008499999996,0.240275587491938,1.60308500000066,66.6666666666667,1,49
3,1,1,0.786549999998882,0.722987895330466,2.84563999999955,60,1,50
3,2,1,1.37034999999928,0.295746947477955,1.99942000000016,60,0,51
3,1,2,1.92337000000046,0.061224489795918,1.47321000000008,66.6666666666667,0,52
3,2,2,0.820455000001006,0.592151608011188,1.82062500000023,74.0740740740741,1,53
3,1,1,0.800449999998789,0.481549651383871,2.00423500000034,74.0740740740741,1,54
3,1,1,0.775304999999236,0.582486482275025,1.47234500000009,66.6666666666667,1,55
3,2,1,0.990584999999614,0.489539850160114,1.74805499999993,66.6666666666667,0,56
3,2,2,1.03912500000116,0,1.94089499999967,74.0740740740741,1,57
3,1,1,1.05117500000051,0.694761990396738,2.98155500000028,74.0740740740741,1,58
3,1,1,0.734974999999395,0.683638475225716,2.51255000000121,66.6666666666667,1,59
3,2,2,0.780414999999222,0,1.54022500000068,66.6666666666667,1,60
3,2,2,1.38832499999995,0.695424707557115,1.74959999999916,60,1,61
3,1,1,0.723115000000689,0.621503573273613,1.90157499999984,60,1,62
3,1,1,0.81337500000163,0.285498271875677,1.83568499999994,54,1,63
3,2,2,0.822379999999539,0,2.22881000000052,54,1,64
3,1,1,0.857794999999925,0.625157715777099,2.32938500000094,48.6,1,65
3,2,1,0.84570999999973,0.387755102040816,2.16567999999993,48.6,0,66
3,2,1,1.7658900000006,0.555043691451809,1.86379499999923,54,0,67
3,1,2,0.572184999998892,0.644497213400287,1.94547500000056,60,0,68
3,2,2,0.786870000000112,0.452137948453602,2.7359450000003,66.6666666666667,1,69
3,1,1,1.27635000000009,0,1.61966000000038,66.6666666666667,1,70
3,1,1,0.956279999998398,0.354486441535625,1.6664700000002,60,1,71
3,2,2,1.57476999999909,0.616522784474339,2.09968000000133,60,1,72
3,1,2,1.15118500000052,0.353788088393033,1.97483000000101,54,0,73
3,2,1,1.35807999999984,0.571396176784037,2.22686500000069,60,0,74
3,2,2,1.05594500000007,0.766420117291287,1.86874999999953,66.6666666666667,1,75
3,1,1,1.85292999999924,0.421604762691401,1.60915999999992,66.6666666666667,1,76
3,2,1,0.850605000001378,0.772987212097704,2.34613499999978,60,0,77
3,1,2,1.58836499999953,0.592969648053875,1.55306000000029,66.6666666666667,0,78
3,1,2,1.82347999999905,0.73070336693834,5.92440999999968,74.0740740740741,0,79
3,2,2,0.916620000000112,0.600011213191889,2.18150499999849,82.3045267489712,1,80
3,2,1,1.23110000000079,0.763412380047939,2.1932649999999,82.3045267489712,0,81
3,1,1,1.0262650000006,0.74410917077587,1.90561499999953,91.4494741655236,1,82
3,1,2,0.861034999999916,0.728555231465929,1.89150999999931,91.4494741655236,0,83
3,2,2,0.700649999998743,0.888153534263024,1.46647000000114,101.610526850582,1,84
3,2,2,1.26670999999996,0.875212740399969,1.89266999999923,101.610526850582,1,85
3,1,2,0.90499500000081,0.736827022949073,2.15138999999897,91.4494741655236,0,86
3,1,1,0.662655000000261,0.925256723379149,2.6395849999988,101.610526850582,1,87
3,2,2,0.966624999999069,0,1.89968500000029,101.610526850582,1,88
3,2,2,1.26722999999952,0.7364587010643,5.11784499999881,91.4494741655236,1,89
3,1,1,0.739975000000326,0.901930974952271,2.77879500000016,91.4494741655236,1,90
3,2,2,1.10927499999898,0.53795896616037,1.5566400000006,82.3045267489712,1,91
3,1,1,0.721649999999441,0.924649988195592,2.16319000000111,82.3045267489712,1,92
3,2,2,1.1622649999992,0.914041418467269,2.14136499999953,74.0740740740741,1,93
3,1,1,0.755475000000093,0.95998123487076,3.13420500000031,74.0740740740741,1,94
3,2,2,1.79412500000023,0,2.80432500000112,66.6666666666667,1,95
3,1,1,0.832674999999581,1,1.58222500000009,66.6666666666667,1,96
4,2,2,0.961054999999993,0.57294946601175,1.44943000000005,48.6,1,1
4,1,1,1.06974000000005,0.463196206082785,0.934375,48.6,1,2
4,2,2,0.966074999999953,0.598670660268329,1.64701500000001,43.74,1,3
4,1,1,1.01341500000004,0.654310317022598,1.56782000000001,43.74,1,4
4,2,2,1.85827500000002,0.335950050469871,1.557875,39.366,1,5
4,1,1,1.02822500000003,0.666923871562067,1.80953499999997,39.366,1,6
4,1,1,0.954140000000014,0.689330046186526,1.99536499999999,35.4294,1,7
4,2,2,1.00364999999997,0.436014051687205,1.62126000000001,35.4294,1,8
4,2,1,1.29040499999997,0.382143711063258,1.64890499999997,31.88646,0,9
4,1,1,1.00421000000002,0.60908205653444,2.01392999999999,35.4294,1,10
4,2,2,1.04797000000003,0.371862107157195,1.71902499999997,35.4294,1,11
4,1,1,0.923244999999995,0.580953659658223,1.63158999999997,31.88646,1,12
4,1,1,1.08688499999995,0.689024141012212,2.67155499999999,31.88646,1,13
4,2,1,2.75465500000003,0.338167878358195,1.68709500000003,28.697814,0,14
4,2,1,1.14657999999996,0.568864851681663,1.42528000000003,31.88646,0,15
4,1,1,1.19116000000009,0.588079331140642,1.58102499999997,35.4294,1,16
4,1,1,1.17738499999995,0.354486441535625,2.23862999999995,35.4294,1,17
4,2,1,1.45937000000005,0.443283244313959,1.16335999999999,31.88646,0,18
4,1,2,2.517255,0.185722031992743,1.09509999999998,35.4294,0,19
4,2,1,1.05886499999999,0.594603005870348,1.24990000000002,39.366,0,20
4,1,1,1.04289000000007,0.525369547782913,1.14815999999997,43.74,1,21
4,2,2,1.02507500000001,0.425363525653376,1.86490999999997,43.74,1,22
4,2,2,1.73420500000007,0.429218939908262,2.83453499999997,39.366,1,23
4,1,1,0.913284999999974,0.619442317589893,1.61248499999999,39.366,1,24
4,2,2,1.62075000000006,0.323811507105918,1.40032999999996,35.4294,1,25
4,1,1,0.786284999999974,0.682854217311996,1.45808999999997,35.4294,1,26
4,2,2,2.32418499999994,0.293419557682284,0.954060000000056,31.88646,1,27
4,1,1,1.25609500000009,0.459635097292096,3.78597000000003,31.88646,1,28
4,2,2,1.37854500000004,0.512820721633822,1.03369499999995,28.697814,1,29
4,1,2,4.155,0.457519125543483,1.39439500000002,28.697814,0,30
4,2,1,1.13566000000003,0.465976893476583,2.01447999999992,31.88646,0,31
4,1,1,0.934260000000009,0.621503573273613,1.18309499999997,35.4294,1,32
4,1,1,0.932239999999991,0.581975901569339,1.44642999999999,35.4294,1,33
4,2,1,1.48636500000005,0.604328175115427,1.49340999999997,31.88646,0,34
4,2,2,1.10606499999994,0.330897560448439,1.89817999999999,35.4294,1,35
4,1,1,0.917085000000021,0.551020408163265,1.47265499999991,35.4294,1,36
4,2,2,1.28296999999997,0.469123147656858,1.54743000000011,31.88646,1,37
4,1,1,1.11833500000002,0.574660649990781,1.6214150000001,31.88646,1,38
4,2,2,2.18120500000002,0.410007830565411,1.09949500000005,28.697814,1,39
4,1,1,1.58326000000013,0.368479468652139,1.682505,28.697814,1,40
4,1,2,1.31570499999996,0.395375250200067,4.54009999999998,25.8280326,0,41
4,2,2,2.83491000000003,0.335660010750176,1.06396499999997,28.697814,1,42
4,1,1,1.58247999999986,0.450580367008554,1.76078000000003,28.697814,1,43
4,2,2,1.21334999999998,0.401403059563798,2.84673499999999,25.8280326,1,44
4,1,1,1.45569999999995,0.530646601198849,2.05251500000001,25.8280326,1,45
4,2,2,1.22132999999996,0.229308282084079,1.925375,23.24522934,1,46
4,2,1,1.77794499999995,0.424385380038992,1.87784499999997,23.24522934,0,47
4,1,2,1.61303500000003,0.206937690671631,2.09306000000006,25.8280326,0,48
4,1,1,1.20027999999991,0.32697405849883,1.66545000000007,28.697814,1,49
4,2,2,1.33066000000003,0.36734693877551,1.57750000000012,28.697814,1,50
4,1,1,1.067995,0.509424137434999,2.18490500000014,25.8280326,1,51
4,2,2,0.986605000000098,0.308076555623851,3.16384499999986,25.8280326,1,52
4,1,2,2.16614500000002,0.27676654457935,2.23959999999998,23.24522934,0,53
4,2,1,1.38966499999992,0.300103961798631,2.30447500000009,25.8280326,0,54
4,1,2,1.12616000000003,0.330897560448439,1.71010999999999,28.697814,0,55
4,2,2,1.49621500000008,0.197550911651613,1.73904000000004,31.88646,1,56
4,2,1,1.248875,0.217943689963976,2.41416500000004,31.88646,0,57
4,1,1,1.19569999999995,0.25942474672034,2.33477500000002,35.4294,1,58
4,2,2,1.322375,0.187127424098908,2.22876500000001,35.4294,1,59
4,1,1,1.20742500000005,0.40174306284695,4.51204999999993,31.88646,1,60
4,2,2,1.06552000000002,0.312518856358627,1.48371499999997,31.88646,1,61
4,1,2,1.71452500000002,0.296168783680613,2.19918500000006,28.697814,0,62
4,1,1,1.25404999999993,0.366983997892564,1.99288,31.88646,1,63
4,2,2,1.42473499999999,0.244121432743616,2.41726000000001,31.88646,1,64
4,1,1,0.940560000000056,0.296326867797795,2.26988,28.697814,1,65
4,2,2,0.986034999999916,0.229308282084079,1.27173499999999,28.697814,1,66
4,2,1,1.22932499999995,0.332360522355727,1.5254800000001,25.8280326,0,67
4,1,2,1.24924000000011,0.329674965627544,2.20040999999992,28.697814,0,68
4,1,1,1.427005,0.489210467173149,1.21231499999994,31.88646,1,69
4,2,2,1.84550000000023,0.36511985585291,2.11883999999985,31.88646,1,70
4,1,1,1.09801000000001,0.422424011171217,1.85802499999991,28.697814,1,71
4,2,1,1.132505,0.419962688214232,1.76972999999998,28.697814,0,72
4,1,2,1.34997000000009,0.327761375685115,1.89962000000011,31.88646,0,73
4,2,1,1.05405999999982,0.265419485391119,1.81855500000017,35.4294,0,74
4,1,1,1.31917499999993,0.331434503770159,2.47532500000007,39.366,1,75
4,2,2,1.5628899999999,0.332360522355727,1.98714999999991,39.366,1,76
4,1,1,1.05438499999989,0.393566639556906,2.68314000000013,35.4294,1,77
4,2,2,1.58279500000004,0.274776747705328,2.22478500000015,35.4294,1,78
4,2,1,0.849220000000088,0.492387348567551,1.16766499999992,31.88646,0,79
4,1,1,0.993740000000107,0.49909052752863,1.82555499999993,35.4294,1,80
4,1,1,0.793445000000065,0.378605929162906,1.40317499999993,35.4294,1,81
4,2,2,0.787989999999991,0.3401839585327,1.44200500000012,31.88646,1,82
4,2,1,0.896449999999953,0.469576690424532,2.32898999999999,31.88646,0,83
4,1,1,0.914669999999925,0.556269329288485,1.01933499999996,35.4294,1,84
4,2,2,0.774815000000061,0.312315563491703,1.500745,35.4294,1,85
4,1,1,0.823479999999981,0.581848200186314,1.74146999999997,31.88646,1,86
4,1,1,0.842939999999944,0.486899962505203,1.47145999999996,31.88646,1,87
4,2,2,0.929620000000112,0.302656172245794,1.36522999999986,28.697814,1,88
4,2,1,0.823000000000116,0.512503039680345,1.95525,28.697814,0,89
4,1,1,0.754814999999944,0.57607816137994,1.56203499999992,31.88646,1,90
4,2,1,1.24832500000007,0.565443013163281,0.999880000000121,31.88646,0,91
4,1,1,0.858390000000014,0.595637686122726,1.33588500000001,35.4294,1,92
4,2,2,0.872720000000088,0.232033897508975,1.51847500000009,35.4294,1,93
4,1,1,1.07520999999996,0.48391679853129,2.28846000000008,31.88646,1,94
4,1,1,0.882654999999912,0.511937891201803,2.09118000000017,31.88646,1,95
4,2,2,0.788145000000019,0.258561047399508,1.81231999999995,28.697814,1,96
5,1,1,0.697509999998147,0.980992735352947,1.15017999999691,48.6,1,1
5,2,2,1.54940499999793,0.819241000873153,2.31240000002435,48.6,1,2
5,2,2,1.86895000000368,0.751849396603386,1.87331499997526,43.74,1,3
5,1,1,0.655965000012657,1,0.855400000000373,43.74,1,4
5,1,1,0.723039999982575,1,0.848725000018021,39.366,1,5
5,2,2,1.02836500000558,0.815650845139009,1.87170000001788,39.366,1,6
5,1,1,1.53569499999867,1,0.927020000002813,35.4294,1,7
5,2,2,1.03558999998495,0.563349188259554,1.41810999999871,35.4294,1,8
5,1,1,0.885494999994989,0.817507836276506,1.07045999998809,31.88646,1,9
5,2,2,4.03447000001324,0.442058206601795,1.16836999999941,31.88646,1,10
5,1,1,0.802685000002384,0.940549608251344,1.5055149999971,28.697814,1,11
5,2,1,1.34735500000534,0.795079976610838,1.28344500000821,28.697814,0,12
5,2,1,1.02049999998417,0.692521438531088,1.73837999999523,31.88646,0,13
5,1,1,0.780815000005532,1,0.826640000013867,35.4294,1,14
5,1,1,0.734685000003083,1,0.56287500000326,35.4294,1,15
5,2,1,2.95251499998267,0.76499395893623,3.90678499999922,31.88646,0,16
5,1,1,0.636190000019269,1,0.83251000000746,35.4294,1,17
5,2,2,2.54852499999106,0.520085391548585,1.91509500000393,35.4294,1,18
5,1,1,0.678420000011101,1,0.724524999997811,31.88646,1,19
5,2,2,1.95374500000617,0.463310732243413,1.19672499998705,31.88646,1,20
5,2,2,1.16709000000264,0.420127111189131,1.86366999999154,28.697814,1,21
5,1,1,0.683480000006966,1,0.604525000002468,28.697814,1,22
5,2,2,2.05367999998271,0.450385381785658,1.88563000000431,25.8280326,1,23
5,1,1,0.58428000001004,1,0.479930000001332,25.8280326,1,24
5,2,2,1.38475999998627,0.545126360803838,1.36338000002434,23.24522934,1,25
5,1,1,0.549235000013141,1,0.62385499998345,23.24522934,1,26
5,1,1,0.921684999979334,1,1.28862000000663,20.920706406,1,27
5,2,1,1.9079550000024,0.424548521406442,1.25519500000519,20.920706406,0,28
5,2,2,0.927870000014082,0.347694051083535,1.1307000000088,23.24522934,1,29
5,1,1,0.592975000006845,1,0.545824999979232,23.24522934,1,30
5,2,2,1.02434999999241,0.652013963026548,1.25006500000018,20.920706406,1,31
5,1,1,0.583470000012312,1,0.520699999993667,20.920706406,1,32
5,1,1,0.759864999999991,1,0.394585000001825,18.8286357654,1,33
5,2,1,3.39065500002471,0.307614506969885,1.64326499999152,18.8286357654,0,34
5,2,2,2.19587000002502,0.595763003420247,0.832374999998137,20.920706406,1,35
5,1,1,0.573579999996582,1,0.539725000009639,20.920706406,1,36
5,1,1,1.29821999999695,0.931219058893637,1.44990999999573,18.8286357654,1,37
5,2,1,4.12157499999739,0.156771640075445,1.47243999998318,18.8286357654,0,38
5,2,2,1.92790999999852,0.179752536091955,0.919250000006286,20.920706406,1,39
5,1,1,0.70350000000326,1,0.694799999997485,20.920706406,1,40
5,2,2,1.32811499998206,0.561906075170157,1.63641000000644,18.8286357654,1,41
5,1,2,8.59626999998,0,1.69779000000563,18.8286357654,0,42
5,2,2,1.07022500000312,0.327908851069277,1.05016000001342,20.920706406,1,43
5,1,1,0.732134999998379,1,0.657040000020061,20.920706406,1,44
5,1,1,0.841504999989411,0.889118112634329,1.44292999999016,18.8286357654,1,45
5,2,2,1.01217499998165,0.306997703873889,1.44768000001204,18.8286357654,1,46
5,2,2,6.33096500000102,0.276269980972771,1.13022000002093,16.94577218886,1,47
5,1,1,0.877775000000838,1,0.788280000007944,16.94577218886,1,48
5,1,1,0.573070000013104,1,0.393264999991516,15.251194969974,1,49
5,2,2,1.24757499998668,0.558351296873751,1.60312000001431,15.251194969974,1,50
5,1,1,0.699369999987539,1,0.460584999993443,13.7260754729766,1,51
5,2,2,1.38793500000611,0.315355486232623,1.33422999997856,13.7260754729766,1,52
5,2,2,1.89967000001343,0.350140705632474,0.815709999995306,12.3534679256789,1,53
5,1,1,0.63561500000651,1,0.506079999991925,12.3534679256789,1,54
5,1,1,0.626809999987017,1,0.897985000017798,11.1181211331111,1,55
5,2,1,6.92317000002367,0.494024344960437,1.73611999998684,11.1181211331111,0,56
5,2,2,1.75330499999109,0.277867920981393,1.16867000001366,12.3534679256789,1,57
5,1,1,0.590354999992996,1,0.785375000006752,12.3534679256789,1,58
5,2,2,2.15788999997312,0.106256237055789,0.864065000001574,11.1181211331111,1,59
5,1,1,0.602249999996275,1,0.494745000003604,11.1181211331111,1,60
5,2,2,0.895565000013448,0.579257388283842,3.43051999999443,10.0063090197999,1,61
5,1,1,0.554230000008829,0.929472680012954,1.2947250000143,10.0063090197999,1,62
5,1,1,0.676769999990938,1,0.490645000012591,9.00567811781995,1,63
5,2,2,0.841059999977006,0.5286854868006,0.849350000004051,9.00567811781995,1,64
5,1,1,0.638570000010077,1,0.358944999985397,8.10511030603796,1,65
5,2,2,1.3469299999997,0.444899533885519,1.03620000000228,8.10511030603796,1,66
5,1,1,0.626329999999143,0.919631202757347,1.24576499999966,7.29459927543416,1,67
5,2,1,2.31650499999523,0.508288005450767,1.02468000000226,7.29459927543416,0,68
5,2,2,1.04062499999418,0.252637873571391,5.676300000021,8.10511030603796,1,69
5,1,1,0.69933500001207,0.90334739738582,0.826520000002347,8.10511030603796,1,70
5,1,1,0.588700000022072,1,1.40820499998517,7.29459927543416,1,71
5,2,1,1.63586499998928,0.304521987685915,0.913980000012089,7.29459927543416,0,72
5,1,1,0.66380000000936,0.740187413996405,1.18918499999563,8.10511030603796,1,73
5,2,1,2.61334000001079,0.240154782592088,1.10320499999216,8.10511030603796,0,74
5,2,2,2.28012499999022,0.097847700856518,1.04753500001971,9.00567811781995,1,75
5,1,1,0.730345000018133,0.881850353142478,0.861144999973476,9.00567811781995,1,76
5,2,1,1.07722499998636,0.519386968962773,1.0854999999865,8.10511030603796,0,77
5,1,1,0.762034999992466,0.740580373100712,1.32659499999136,9.00567811781995,1,78
5,1,1,0.683314999972936,0.870268799517358,0.947805000003427,9.00567811781995,1,79
5,2,1,1.12017500001821,0.305606795206789,0.619014999974752,8.10511030603796,0,80
5,1,1,0.689814999990631,1,0.399665000004461,9.00567811781995,1,81
5,2,2,0.948225000000093,0.431157091421196,0.690195000002859,9.00567811781995,1,82
5,1,1,0.642470000020694,1,0.485369999980321,8.10511030603796,1,83
5,2,1,4.31034999998519,0.355416056523264,0.686405000014929,8.10511030603796,0,84
5,2,1,1.05518500000471,0.526753184611037,0.649984999996377,9.00567811781995,0,85
5,1,1,0.805634999996983,0.856679979873103,0.977049999986775,10.0063090197999,1,86
5,2,1,1.13990000000922,0.66067064273379,0.652079999999842,10.0063090197999,0,87
5,1,1,0.692219999997178,1,0.61837499999092,11.1181211331111,1,88
5,1,1,0.841715000016848,0.902395950137126,0.906904999981634,11.1181211331111,1,89
5,2,1,1.08968000000459,0.658479146809644,0.883245000004536,10.0063090197999,0,90
5,2,1,1.39261000000988,0.636017288126524,1.15571500000078,11.1181211331111,0,91
5,1,1,0.701395000010962,1,0.638104999990901,12.3534679256789,1,92
5,1,1,1.02360499999486,1,1.06758999999147,12.3534679256789,1,93
5,2,1,0.982419999985723,0.555275733913877,0.662070000020321,11.1181211331111,0,94
5,1,1,0.677479999983916,1,0.513674999994691,12.3534679256789,1,95
5,2,1,0.959735000011278,0.230735516129142,0.920509999996284,12.3534679256789,0,96
6,1,1,1.42197000002488,0.48136433997031,3.2617799998261,48.6,1,1
6,2,2,1.05743000004441,0.298534100612471,1.94021499995142,48.6,1,2
6,1,1,1.01907999999821,0.390408506048054,1.85633999994025,43.74,1,3
6,2,2,1.16087000002153,0.301407941966141,1.85077499994077,43.74,1,4
6,2,2,1.27798500005156,0.231477999787689,1.77559500001371,39.366,1,5
6,1,1,0.978984999936074,0.443046340139713,1.51683000009507,39.366,1,6
6,2,2,1.20898500015028,0.377450970774773,1.54480499983765,35.4294,1,7
6,1,1,1.43882500007749,0.581496905298493,1.51414000010118,35.4294,1,8
6,1,2,1.03465000004508,0.523705392395044,2.16779999993742,31.88646,0,9
6,2,1,3.68497000006028,0.556269329288485,2.63737499993294,35.4294,0,10
6,2,2,1.77842000010423,0.344903177421587,1.76227000006475,39.366,1,11
6,1,2,0.964150000130758,0.301876438875677,1.47824999992736,39.366,0,12
6,2,2,1.12671500002034,0.418810379658993,1.47193999984302,43.74,1,13
6,1,1,0.852190000005066,0.256422601110998,2.08889999985695,43.74,1,14
6,1,1,0.843845000024885,0.489210467173149,1.48848499986343,39.366,1,15
6,2,1,2.95992499985732,0.15653987870293,2.04923500004224,39.366,0,16
6,2,1,0.990389999933541,0.280936547678163,2.18116000015289,43.74,0,17
6,1,1,1.0947950000409,0.251700680272108,1.52029999997467,48.6,1,18
6,1,1,1.76977499993518,0.748532970356445,1.98888499988243,48.6,1,19
6,2,1,1.21258500008844,0.407869242122696,1.8875499998685,43.74,0,20
6,1,1,0.812995000043884,0.530646601198849,1.44090500008315,48.6,1,21
6,2,1,1.21484500006773,0.478838620886849,1.70789499999955,48.6,0,22
6,2,2,0.804590000072494,0.578391716207032,1.41436000005342,54,1,23
6,1,1,0.870134999975562,0.827669697147893,1.95940000005066,54,1,24
6,1,1,0.792800000170246,0.819793993067,2.05063499999233,48.6,1,25
6,2,1,1.24052500003017,0.59538698770967,1.44007499981672,48.6,0,26
6,2,2,1.13695499999449,0.517847840486437,1.45616000005975,54,1,27
6,1,1,0.862250000005588,0.860284758337377,2.07737499987707,54,1,28
6,1,1,0.974059999920428,0.833635498045044,1.34877000004053,48.6,1,29
6,2,1,0.994805000023916,0.783437691638219,1.7072900000494,48.6,0,30
6,2,1,0.995779999997467,0.719157948149096,1.47773499996401,54,0,31
6,1,1,0.825015000067651,0.816543614166788,1.34816499985754,60,1,32
6,2,1,0.816600000020117,0.466394800885915,1.72329999995418,60,0,33
6,1,2,0.875174999935552,0.33411015354988,1.47148999990895,66.6666666666667,0,34
6,1,1,0.868865000084043,0.429744503714801,1.32015499984846,74.0740740740741,1,35
6,2,1,0.853524999925867,0.385351261708956,1.38908999995328,74.0740740740741,0,36
6,2,2,13.1468950000126,0.514477232975403,1.57529500010423,82.3045267489712,1,37
6,1,1,1.02551000006497,0.252052388399999,1.60075500002131,82.3045267489712,1,38
6,1,1,1.18857500003651,0.306946265437184,1.40131999994628,74.0740740740741,1,39
6,2,1,0.895694999955595,0.279405021845945,1.52882500016131,74.0740740740741,0,40
6,2,1,0.920544999884441,0.367528312432726,1.21388499997556,82.3045267489712,0,41
6,1,1,0.689559999853373,0.913822467425719,1.73499500006437,91.4494741655236,1,42
6,2,1,1.00598999997601,0.566976732557582,1.75417999993078,91.4494741655236,0,43
6,1,1,0.907515000086278,0.616522784474339,2.20349999982864,101.610526850582,1,44
6,2,1,0.814359999960288,0.729722775974642,1.34416500013322,101.610526850582,0,45
6,1,1,0.714320000028238,0.700927108936739,1.33062999998219,112.900585389535,1,46
6,1,1,0.860385000007227,0.611478436768931,1.68121999991126,112.900585389535,1,47
6,2,1,0.759480000007898,0.52203707182658,1.55457000015303,101.610526850582,0,48
6,2,1,0.807825000025332,0.563185346684578,1.46748999995179,112.900585389535,0,49
6,1,1,0.770874999929219,0.493333682489153,1.5936750001274,125.445094877261,1,50
6,2,2,0.941534999990836,0.629304142784365,1.68171500018798,125.445094877261,1,51
6,1,1,0.680970000103116,0.778001156953345,1.47143999999389,112.900585389535,1,52
6,2,1,1.06232499983162,0.611263688038248,1.39532500016503,112.900585389535,0,53
6,1,1,0.73869499983266,0.885164342057569,2.40497500007041,125.445094877261,1,54
6,1,1,0.868409999879077,0.845786785494699,1.4262550000567,125.445094877261,1,55
6,2,2,0.981364999897778,0.614447972052223,1.75227000005543,112.900585389535,1,56
6,2,1,1.2094550000038,0.701694584376399,1.40760499984026,112.900585389535,0,57
6,1,1,0.82785000000149,0.893860588716202,1.99095000000671,125.445094877261,1,58
6,1,1,0.795359999872744,0.815047151786771,1.2687000001315,125.445094877261,1,59
6,2,1,1.0401149999816,0.929580563533139,1.48347499989904,112.900585389535,0,60
6,2,2,0.732484999811277,0.840506721066266,1.43942000018433,125.445094877261,1,61
6,1,1,0.833224999951199,0.920480192197302,1.49292500014417,125.445094877261,1,62
6,1,1,0.741445000050589,0.905777403392294,1.46435500006191,112.900585389535,1,63
6,2,1,0.835570000112057,0.851108639404081,1.47163500008173,112.900585389535,0,64
6,1,1,0.957015000050887,0.962998352872442,1.5838699999731,125.445094877261,1,65
6,2,2,0.919400000013411,0.736406071057135,1.6528849999886,125.445094877261,1,66
6,1,1,0.720265000127256,0.809135003240048,1.35590499988757,112.900585389535,1,67
6,2,1,1.24276999989524,0.755127808329529,1.41764000011608,112.900585389535,0,68
6,2,1,0.937720000045374,0.80105564682642,1.88593499991111,125.445094877261,0,69
6,1,1,0.724310000194237,0.973804913366128,2.26127499993891,139.383438752513,1,70
6,1,2,1.16452000010759,0.819601683993329,1.88695499999449,139.383438752513,0,71
6,2,2,1.06144500011578,0.782537987831006,1.71807999978773,154.870487502792,1,72
6,1,1,0.647415000014007,0.959540548582369,1.72932499996386,154.870487502792,1,73
6,2,1,1.34709000005387,0.922045779076869,1.43730999995023,139.383438752513,0,74
6,1,1,0.787400000030175,0.992402671311471,1.4568099998869,154.870487502792,1,75
6,2,2,0.913970000110567,0.706421105675679,1.65776000008918,154.870487502792,1,76
6,1,1,0.706409999867901,0.958700658405634,2.18574000010267,139.383438752513,1,77
6,2,2,1.27890500007197,0.853433817518827,1.81467999983579,139.383438752513,1,78
6,1,1,0.622075000079349,0.944642454878506,1.54263000003994,125.445094877261,1,79
6,2,2,1.64360499987379,0.531196063859323,1.74940000008792,125.445094877261,1,80
6,2,2,1.17590999999084,0.242203311512514,1.43695000000298,112.900585389535,1,81
6,1,1,0.692480000201613,0.974612745490126,2.81690999981947,112.900585389535,1,82
6,1,1,0.751549999928102,0.969569770207507,1.58287500008009,101.610526850582,1,83
6,2,1,0.90826000017114,0.925711548685234,1.51029499992728,101.610526850582,0,84
6,1,1,0.646769999992102,0.988789362970322,1.40553999994881,112.900585389535,1,85
6,2,2,1.12482999986969,0.891626280662962,1.60693000000902,112.900585389535,1,86
6,1,1,0.673139999853447,1,1.92165500018746,101.610526850582,1,87
6,2,1,1.15481500001624,0.939972810997042,1.36911999993026,101.610526850582,0,88
6,2,1,0.851030000019819,0.915572807552474,1.38583000004292,112.900585389535,0,89
6,1,1,0.73138999985531,0.931132884615438,1.58676500013098,125.445094877261,1,90
6,2,1,0.83100500004366,0.882640369502131,1.44337999983691,125.445094877261,0,91
6,1,1,0.762699999846518,0.931649826618404,1.65467500011437,139.383438752513,1,92
6,2,1,0.778374999994412,0.901510104736252,1.45348000014201,139.383438752513,0,93
6,1,1,0.78578000003472,0.881827772296587,1.72246500011533,154.870487502792,1,94
6,1,1,0.761279999976978,0.920741283378612,1.38655499997549,154.870487502792,1,95
6,2,1,0.868440000107512,0.910862175495515,1.61618999997154,139.383438752513,0,96
7,1,1,1.98563999999897,0,2.04798999999184,66.6666666666667,1,1
7,2,2,2.81518499998492,0.234984872843505,1.60826999999699,66.6666666666667,1,2
7,1,1,1.18714500000351,0.567041923711268,0.842999999993481,60,1,3
7,2,2,1.41057000000728,0.309715574924623,1.48827499998151,60,1,4
7,1,1,1.04889499998535,0.834132977376668,0.791135000006761,54,1,5
7,2,1,4.55843499998446,0.209901827550045,2.69643499999074,54,0,6
7,2,1,3.01414000001387,0.544217687074829,0.817939999978989,60,0,7
7,1,1,1.12870000000112,0.91288046051627,4.90163500001654,66.6666666666667,1,8
7,2,2,2.59713499998907,0.553683033260963,1.06392000001506,66.6666666666667,1,9
7,1,1,0.937429999990854,0.693766930357064,0.835070000000997,60,1,10
7,2,2,1.6499499999918,0.296748147521183,1.06620000000112,60,1,11
7,1,1,0.96792500000447,0.622985450669795,0.72782499997993,54,1,12
7,1,1,0.81422499998007,0.476190476190476,1.2381850000238,54,1,13
7,2,2,1.24941999997827,0.042196877669869,2.10810500002117,48.6,1,14
7,2,1,1.08227999997325,0.600011213191889,0.778915000002598,48.6,0,15
7,1,1,0.810564999992494,0.61868310036226,0.744135000015376,54,1,16
7,2,2,2.96460000000661,0,0.823869999992894,54,1,17
7,1,1,0.893149999988964,0.616644655752179,0.914320000010775,48.6,1,18
7,2,1,0.827250000002095,0.693324301360688,0.966935000004014,48.6,0,19
7,1,2,1.06265000000712,0.283332111773526,0.823180000006687,54,0,20
7,2,1,1.09500000000116,0.817387361462115,0.836325000011129,60,0,21
7,1,1,0.660289999999804,1,0.721269999979995,66.6666666666667,1,22
7,1,1,1.57183000000077,1,0.757864999992307,66.6666666666667,1,23
7,2,1,1.35528000001796,0.680693657165799,0.970455000002403,60,0,24
7,2,2,0.929960000008577,0.391751910323496,0.938119999977062,66.6666666666667,1,25
7,1,1,0.681565000006231,0.760778799147866,0.705909999989672,66.6666666666667,1,26
7,2,2,0.739525000011781,0.261661734620911,0.886834999982966,60,1,27
7,1,1,0.671770000015385,0.891715745631003,0.787190000002738,60,1,28
7,2,2,1.13133500001277,0.707482993197278,1.32817500000237,54,1,29
7,1,2,1.25815000000875,0.174473572508587,0.812059999996563,54,0,30
7,2,1,0.5876200000057,0.838433900422147,0.538070000009611,60,0,31
7,1,1,0.68149999997695,0.928479641895014,0.979149999999208,66.6666666666667,1,32
7,1,1,0.719639999995707,0.794339597240518,0.902690000017174,66.6666666666667,1,33
7,2,2,0.946679999993648,0.654919628169356,1.06399999998393,60,1,34
7,2,2,1.56147499999497,0.033620704368338,0.632985000003828,60,1,35
7,1,1,0.548520000011194,0.874030207077147,0.832139999984065,54,1,36
7,2,2,0.873239999986254,0.68724209310376,0.905170000012731,54,1,37
7,1,1,0.532165000011446,1,0.588929999998072,48.6,1,38
7,1,1,0.778294999996433,0.931240601382919,0.841214999993099,48.6,1,39
7,2,2,0.802499999990687,0.688857236221927,0.903205000009621,43.74,1,40
7,1,1,0.657124999997905,0.946258290949088,0.637100000021746,43.74,1,41
7,2,2,0.962579999992158,0.441266496236953,0.748859999992419,39.366,1,42
7,2,2,0.942465000000084,0.418109608927572,0.842219999991357,39.366,1,43
7,1,1,0.52357999997912,0.885501903711396,0.905135000008158,35.4294,1,44
7,1,2,1.07615999999689,0.657959229903308,0.739215000008699,35.4294,0,45
7,2,1,0.60120000000461,0.356297587152221,0.959940000000643,39.366,0,46
7,1,1,0.687005000014324,0.390061271338336,1.2981199999922,43.74,1,47
7,2,1,0.851414999982808,0.661706636297824,0.676145000004908,43.74,0,48
7,1,1,1.05043000000296,0.702023289005049,1.72078999999212,48.6,1,49
7,2,2,0.688534999993863,0.371007278041394,1.05100500001572,48.6,1,50
7,1,1,0.533830000000307,0.905843597406916,0.622654999984661,43.74,1,51
7,2,2,0.90819499999634,0.466850373190657,0.589100000011967,43.74,1,52
7,1,1,0.53964500001166,0.900978236647133,0.500109999993583,39.366,1,53
7,2,1,0.496769999997923,0,2.08717499999329,39.366,0,54
7,1,2,0.968150000000605,0.492569445315285,1.03411500001675,43.74,0,55
7,2,1,0.578810000006342,0.707482993197278,1.49323500000173,48.6,0,56
7,1,2,1.20069999998668,0.059058803804841,0.794465000013588,54,0,57
7,2,2,0.745174999989104,0.509211263473293,0.68520500001614,60,1,58
7,1,1,0.576029999996535,0.883271944661994,0.601949999982025,60,1,59
7,2,2,0.710340000019642,0.383771897495562,1.10514499997953,54,1,60
7,2,2,0.756159999989904,0.095238095238095,0.728780000004917,54,1,61
7,1,1,0.537740000028862,0.887053262294509,0.564114999986487,48.6,1,62
7,1,1,0.397200000006706,1,0.565080000000307,48.6,1,63
7,2,1,2.09961000000476,0.251583374539434,1.2092249999987,43.74,0,64
7,1,2,2.04977000001236,0,0.758800000010524,48.6,0,65
7,2,2,1.18856500001857,0.393566639556906,1.00904999999329,54,1,66
7,1,1,0.828385000000708,0.588554016637584,1.07032999998773,54,1,67
7,2,2,0.701835000014398,0.184239871569287,0.505145000002813,48.6,1,68
7,1,1,0.750520000001416,0.619108355207937,0.593859999993583,48.6,1,69
7,2,2,0.759210000018356,0.553450460036286,0.907229999982519,43.74,1,70
7,2,2,0.706719999987399,0.67714591593492,0.936100000020815,43.74,1,71
7,1,1,0.523644999979297,0.931477540255093,0.745105000009062,39.366,1,72
7,2,2,0.780395000008866,0.597358939250908,1.16198499998427,39.366,1,73
7,1,1,0.486499999999069,1,0.484079999994719,35.4294,1,74
7,2,2,0.766334999992978,0.732899076905714,1.4362100000144,35.4294,1,75
7,1,1,0.635930000018561,1,0.51111999998102,31.88646,1,76
7,2,2,1.04482999999891,0.248875647588788,0.857569999992847,31.88646,1,77
7,1,1,0.501825000013923,0.924151340483866,0.574239999987185,28.697814,1,78
7,2,2,1.08808499999577,0.565050892729452,0.75518499998725,28.697814,1,79
7,1,1,0.49516500000027,1,0.59437499998603,25.8280326,1,80
7,1,2,1.91641500001424,0,0.992854999989504,25.8280326,0,81
7,2,2,0.886680000025081,0.346986014350875,0.704929999978049,28.697814,1,82
7,1,1,0.537124999973457,1,0.53613000002224,28.697814,1,83
7,2,2,0.656794999988051,0.268918257154328,0.900215000001481,25.8280326,1,84
7,1,2,0.86066999999457,0.573498781625864,0.779095000005327,25.8280326,0,85
7,2,2,1.03166000000783,0.47574178252023,0.643884999997681,28.697814,1,86
7,2,1,0.581339999975171,0.811198721565028,0.519060000020545,28.697814,0,87
7,1,1,0.699805000011111,1,0.377024999994319,31.88646,1,88
7,2,2,0.794170000008307,0.517567613569646,0.543024999991758,31.88646,1,89
7,1,2,0.843515000015032,0.771368843206155,0.555794999992941,28.697814,0,90
7,2,1,0.47246499999892,0.664606078078048,0.360950000002049,31.88646,0,91
7,1,1,0.578639999992447,1,0.311165000020992,35.4294,1,92
7,2,2,0.895034999994095,0.298271913928529,0.469875000009779,35.4294,1,93
7,1,1,0.752350000024308,0.771065079994958,0.386859999998705,31.88646,1,94
7,1,1,0.611709999997402,1,0.349110000010114,31.88646,1,95
7,2,2,0.882145000010496,0.58744593719673,0.579939999995986,28.697814,1,96
8,2,2,1.03325000000041,0.857327948070359,2.62342499999978,48.6,1,1
8,1,2,1.82948500000022,0.691079886842011,1.30960500000036,48.6,0,2
8,2,2,0.813179999999178,0.975771689311263,1.5401750000001,54,1,3
8,1,1,0.764385000000388,1,1.54936499999894,54,1,4
8,2,2,0.808745000000257,0.721730973234196,1.51622500000123,48.6,1,5
8,1,1,0.789270000001125,1,1.73297999999885,48.6,1,6
8,1,1,1.12376500000028,1,1.36741000000073,43.74,1,7
8,2,2,0.915810000000434,0.64252577162832,1.5175250000011,43.74,1,8
8,2,1,2.0989499999996,0.439560674639564,1.48548500000109,39.366,0,9
8,1,1,0.680579999998386,1,1.51969000000099,43.74,1,10
8,1,1,0.656600000000239,1,1.38385000000018,43.74,1,11
8,2,1,1.57745500000054,0.362196222946138,1.75793999999954,39.366,0,12
8,2,2,1.51329000000079,0.423528116911527,1.62939999999979,43.74,1,13
8,1,1,0.738804999999033,0.851085360153952,1.82027000000016,43.74,1,14
8,1,1,0.985995000000898,0.812628564140377,1.63356999999998,39.366,1,15
8,2,1,1.61467500000069,0.544352381220396,1.95739999999932,39.366,0,16
8,2,1,0.9285550000004,0.683638475225716,2.49223999999964,43.74,0,17
8,1,1,0.725005000000237,1,1.36769500000082,48.6,1,18
8,1,1,0.974260000000882,1,1.34023499999964,48.6,1,19
8,2,2,0.728830000000016,0.635987579938052,1.74158499999979,43.74,1,20
8,1,1,0.683305000000459,1,1.48135999999975,43.74,1,21
8,2,1,0.925290000001085,0.544722654067661,1.73173999999923,39.366,0,22
8,1,1,0.78392500000156,0.836002182662532,1.69804499999917,43.74,1,23
8,2,2,0.663575000000477,0.564625850340136,1.43282000000001,43.74,1,24
8,2,2,0.798084999998508,0.866447525585268,1.6061950000003,39.366,1,25
8,1,1,0.605110000000452,1,1.33397499999957,39.366,1,26
8,1,1,0.64282999999891,0.864428088092574,2.89648500000109,35.4294,1,27
8,2,2,0.63475999999902,0.485980742769339,2.16076000000065,35.4294,1,28
8,2,1,0.724449999999721,0.879363469728535,1.78045500000007,31.88646,0,29
8,1,1,0.616469999999041,1,1.35263499999925,35.4294,1,30
8,1,1,0.718955000000249,0.843983009838834,2.18030999999976,35.4294,1,31
8,2,2,1.21463000000041,0.344001015920622,1.75330000000028,31.88646,1,32
8,2,1,0.754590000000491,0.880291105627663,2.00051999999955,31.88646,0,33
8,1,1,0.694384999998845,1,1.33708500000107,35.4294,1,34
8,2,2,1.35131499999983,0.506971876685129,1.82294000000006,35.4294,1,35
8,1,1,0.591425000000512,1,1.31712499999959,31.88646,1,36
8,2,1,1.04641500000074,0.614967207707952,1.57992499999999,31.88646,0,37
8,1,1,0.577190000000002,1,1.32191500000044,35.4294,1,38
8,1,1,0.732074999999895,1,1.37494999999943,35.4294,1,39
8,2,1,0.911775000000489,1,1.15686499999906,31.88646,0,40
8,2,1,1.32684500000143,0.347694051083535,2.88013999999926,35.4294,0,41
8,1,1,2.05362000000064,0.73898124751558,1.9158299999999,39.366,1,42
8,2,2,0.811695000000298,0.744343924910249,1.49609500000044,39.366,1,43
8,1,1,0.636520000000019,1,1.42125999999919,35.4294,1,44
8,2,2,1.1244750000005,0.431157091421196,2.16597000000003,35.4294,1,45
8,1,1,0.609964999999618,1,1.22456500000047,31.88646,1,46
8,1,1,0.734534999999567,1,4.55499500000046,31.88646,1,47
8,2,2,1.32428999999864,0.341618879313329,2.2928350000002,28.697814,1,48
8,1,1,0.671374999999884,1,1.54196500000037,28.697814,1,49
8,2,2,0.748919999999984,0.679456502653691,2.33071500000003,25.8280326,1,50
8,1,1,0.60982500000135,1,1.50334499999922,25.8280326,1,51
8,2,1,0.567965000000142,0.745803223899018,2.25007499999995,23.24522934,0,52
8,2,1,0.717579999998619,0.584302512466003,1.66356000000087,25.8280326,0,53
8,1,1,0.617704999998794,0.842034980572543,1.64609000000014,28.697814,1,54
8,2,2,0.548714999998978,0.361187307560345,1.80669000000122,28.697814,1,55
8,1,1,0.517240000001038,1,1.54409999999916,25.8280326,1,56
8,2,1,0.890230000000854,0.627263765882171,1.96375999999873,25.8280326,0,57
8,1,1,0.876104999999399,0.821331084827314,1.57759000000078,28.697814,1,58
8,1,2,0.660965000000957,0.310022230669203,1.70476500000042,28.697814,0,59
8,2,2,1.45882999999961,0.634024327695643,1.99889000000071,31.88646,1,60
8,1,1,0.553115000000631,1,1.41123499999958,31.88646,1,61
8,2,2,0.90838500000065,0.359071203964536,1.92417999999999,28.697814,1,62
8,1,2,1.80957999999914,0.574305834364269,1.70689500000118,28.697814,0,63
8,2,1,0.725270000000834,0.7623138556485,1.43110999999952,31.88646,0,64
8,1,1,1.88413000000035,0.843138554122091,2.07248000000074,35.4294,1,65
8,2,2,0.820579999999609,1,1.44116500000015,35.4294,1,66
8,1,1,0.602245000000054,1,1.28889499999967,31.88646,1,67
8,2,1,0.968530000000086,0.574273569693137,1.88968000000023,31.88646,0,68
8,2,2,2.09883999999875,0.648132889999925,1.24138000000129,35.4294,1,69
8,1,1,0.649824999998556,1,1.44862500000093,35.4294,1,70
8,2,1,0.691084999998566,1,1.29326500000025,31.88646,0,71
8,1,1,0.618024999999732,1,1.29754499999946,35.4294,1,72
8,2,2,0.892604999999108,0.622713484147449,2.31586000000063,35.4294,1,73
8,1,1,0.67115000000014,0.767310331468479,1.34101999999979,31.88646,1,74
8,1,1,0.556064999998896,0.873028526808136,1.35436000000115,31.88646,1,75
8,2,1,0.755219999999099,0.776920056642257,1.44248999999947,28.697814,0,76
8,1,1,0.54857500000071,1,1.40837499999907,31.88646,1,77
8,2,1,0.683614999999932,0.574273569693137,1.66432000000164,31.88646,0,78
8,1,1,0.619344999999157,1,1.35415500000096,35.4294,1,79
8,2,2,1.06970999999973,0.629933170450351,1.9197650000006,35.4294,1,80
8,1,1,0.784744999998948,0.601473707025302,1.39120000000007,31.88646,1,81
8,2,1,0.771890000000014,0.798625692951194,1.39692999999889,31.88646,0,82
8,1,1,0.655594999998342,1,1.26878500000015,35.4294,1,83
8,2,2,0.676620000000228,0.588079331140642,1.54959500000044,35.4294,1,84
8,2,1,0.584625000001281,0.67417769724247,1.33446499999997,31.88646,0,85
8,1,1,0.525955000001006,1,1.2080649999989,35.4294,1,86
8,2,1,0.85758499999973,0.706175866102529,1.57729500000097,35.4294,0,87
8,1,1,0.72971999999939,1,1.60897500000102,39.366,1,88
8,1,1,1.51807999999984,0.359716178701057,2.15490499999933,39.366,1,89
8,2,2,0.533670000000624,0.733928897181933,1.52192499999912,35.4294,1,90
8,1,1,0.648969999998342,1,1.29987500000058,35.4294,1,91
8,2,2,1.11477000000014,0.762288292706388,1.53418500000041,31.88646,1,92
8,1,1,0.826900000000023,0.882279294709948,1.3393750000014,31.88646,1,93
8,2,2,0.900785000001662,0.379891141590153,1.41690500000003,28.697814,1,94
8,1,1,0.634769999998738,1,1.27215000000072,28.697814,1,95
8,2,1,0.832729999999981,0.599481516500883,1.80213000000012,25.8280326,0,96
9,1,1,1.29450999991968,1,3.87648499989882,74.0740740740741,1,1
9,2,2,2.00933000002988,1,1.30850000004284,66.6666666666667,1,2
9,2,2,1.8654150001239,1,1.05440000002272,66.6666666666667,1,3
9,1,2,2.12228000001051,1,4.98702500015497,60,0,4
9,2,1,1.6079050002154,1,1.65191499982029,66.6666666666667,0,5
9,1,1,1.18249000003561,0.592969648053875,2.52698999992572,74.0740740740741,1,6
9,2,1,3.20889500016347,1,2.48590500000864,74.0740740740741,0,7
9,1,1,1.45794499991462,1,1.61859999992885,82.3045267489712,1,8
9,2,2,2.47798999981023,1,1.67465000017546,82.3045267489712,1,9
9,1,1,1.49373500002548,1,1.40404999977909,74.0740740740741,1,10
9,1,1,1.15936500020325,0.207796570581221,1.79407499986701,74.0740740740741,1,11
9,2,1,1.65122000011615,1,2.8819450000301,66.6666666666667,0,12
9,2,2,1.95407499978319,1,1.77046000002883,74.0740740740741,1,13
9,1,1,1.12609999999404,1,1.93271000008099,74.0740740740741,1,14
9,2,2,1.55060000019148,1,2.74893999984488,66.6666666666667,1,15
9,1,1,1.62693500006571,1,4.25723999994807,66.6666666666667,1,16
9,1,1,0.919794999994338,1,2.20693499990739,60,1,17
9,2,1,1.05612499988638,1,1.41911000013351,60,0,18
9,2,2,1.72297500004061,0.093775879332327,1.80150500009768,66.6666666666667,1,19
9,1,1,1.07871500006877,1,1.48027999978513,66.6666666666667,1,20
9,2,2,1.69265999994241,1,1.32597499992698,60,1,21
9,1,2,1.88617499987595,1,1.24921500007622,60,0,22
9,2,2,1.28862999984995,1,1.79621000005864,66.6666666666667,1,23
9,1,2,1.26909999991767,1,1.23964500008151,66.6666666666667,0,24
9,2,1,1.00459499983117,1,1.59424500004388,74.0740740740741,0,25
9,1,1,1.0466599999927,1,1.16157999983989,82.3045267489712,1,26
9,1,1,1.11398499994539,0.900645681428316,1.38884499995038,82.3045267489712,1,27
9,2,1,2.00934000010602,1,1.41198499989696,74.0740740740741,0,28
9,2,2,1.48197000008076,1,2.0158400000073,82.3045267489712,1,29
9,1,2,1.7373399999924,1,1.15941000008024,82.3045267489712,0,30
9,2,2,1.84295500000007,1,1.19380500004627,91.4494741655236,1,31
9,1,2,1.4540050001815,1,1.33387999981642,91.4494741655236,0,32
9,2,2,1.39394000009634,1,1.9558249998372,101.610526850582,1,33
9,1,2,1.50514500006102,1,1.46389499981888,101.610526850582,0,34
9,2,2,1.17639999999665,1,1.25901499995962,112.900585389535,1,35
9,1,1,1.03808999992907,0.612244897959183,2.02392500010319,112.900585389535,1,36
9,1,2,1.28839500015602,1,1.58497999981046,101.610526850582,0,37
9,2,2,1.55867499997839,0.385482662284288,2.55368499993347,112.900585389535,1,38
9,2,2,1.5403299999889,0.433731159195022,1.59501000004821,112.900585389535,1,39
9,1,2,2.07027999986894,1,3.94776500016451,101.610526850582,0,40
9,1,1,1.12559500010684,1,1.6001099999994,112.900585389535,1,41
9,2,2,1.62286499980837,1,1.91142500005662,112.900585389535,1,42
9,2,2,1.64547999994829,0.784735723195392,3.88585500000045,101.610526850582,1,43
9,1,2,1.29989000014029,1,2.3069700000342,101.610526850582,0,44
9,1,2,1.45328000001609,1,1.99823000002652,112.900585389535,0,45
9,2,2,1.51715499977581,0.469576690424532,1.69790500006638,125.445094877261,1,46
9,2,2,1.59187499992549,1,2.65844000014476,125.445094877261,1,47
9,1,2,1.37240499979816,1,1.8538450000342,112.900585389535,0,48
9,1,2,1.60087500000373,1,2.21087499987334,125.445094877261,0,49
9,2,2,1.21262999996543,0.399315886943436,1.50743500003591,139.383438752513,1,50
9,1,2,1.60423999978229,1,2.90071000019088,139.383438752513,0,51
9,2,2,1.4331700000912,0.590859768676546,2.21331499982625,154.870487502792,1,52
9,1,1,1.177909999853,1,1.45498999999836,154.870487502792,1,53
9,2,2,2.32325999997556,1,1.96969499997795,139.383438752513,1,54
9,2,2,1.32609000010416,1,1.35124499979429,139.383438752513,1,55
9,1,2,2.01368000009097,1,1.25583999999799,125.445094877261,0,56
9,1,1,1.15124000003561,1,1.30663999984972,139.383438752513,1,57
9,2,2,1.47260500001721,1,1.36019000015222,139.383438752513,1,58
9,2,2,1.44416499999352,1,1.29373000003397,125.445094877261,1,59
9,1,2,1.36610499978997,1,1.10743500012904,125.445094877261,0,60
9,2,2,1.22863999987021,0.646639598336047,1.63108500000089,139.383438752513,1,61
9,1,1,1.10861999983899,1,1.25608500000089,139.383438752513,1,62
9,2,2,1.46323499991558,1,1.70337000000291,125.445094877261,1,63
9,1,2,1.26228500017896,1,1.12852999987081,125.445094877261,0,64
9,1,1,1.26005499996245,1,2.27707000006922,139.383438752513,1,65
9,2,2,1.27135499985889,0.562562401646932,1.37341500003822,139.383438752513,1,66
9,2,2,1.34425999992527,1,1.56181500013918,125.445094877261,1,67
9,1,1,1.22485500015318,1,1.30138499988243,125.445094877261,1,68
9,1,2,1.39317999989726,1,1.44457500008866,112.900585389535,0,69
9,2,2,1.23686000006273,1,1.62829499994405,125.445094877261,1,70
9,1,2,1.27354500000365,0.381129045215012,1.51567499991506,125.445094877261,0,71
9,2,2,1.35279499995522,1,1.61039500008337,139.383438752513,1,72
9,2,2,1.24380499986,1,1.27198000019416,139.383438752513,1,73
9,1,1,1.07659499999136,1,1.21580499992706,125.445094877261,1,74
9,1,2,1.45493999985047,1,1.34588000015356,125.445094877261,0,75
9,2,2,1.39232000010088,0.530474802164333,1.32873499998823,139.383438752513,1,76
9,1,2,1.30989499995485,1,1.9837899999693,139.383438752513,0,77
9,2,2,1.49051000014879,0.825641076533353,1.31252499995753,154.870487502792,1,78
9,2,2,1.30255000013858,1,1.24908499978483,154.870487502792,1,79
9,1,2,1.18432500003837,1,1.24528499995358,139.383438752513,0,80
9,2,2,1.36529499990866,1,2.09575999993831,154.870487502792,1,81
9,1,2,1.32086499989964,1,1.21499500004575,154.870487502792,0,82
9,1,2,1.1773249998223,1,1.3415850000456,172.078319447546,0,83
9,2,2,1.20481000002474,1,1.2985350000672,191.198132719496,1,84
9,2,2,1.27079500001855,1,1.19380500004627,191.198132719496,1,85
9,1,1,2.32928499998525,1,1.25298000010662,172.078319447546,1,86
9,1,2,1.17582000000402,1,1.41231000004336,172.078319447546,0,87
9,2,2,1.18664000020362,1,1.10014499980025,191.198132719496,1,88
9,1,2,1.34951499989256,1,1.26970000006258,191.198132719496,0,89
9,2,2,1.07843500003219,1,1.24853500002064,212.442369688329,1,90
9,1,2,1.3676849999465,1,1.34299500007182,212.442369688329,0,91
9,2,2,1.39360500010662,1,1.21525499993004,236.047077431477,1,92
9,1,2,1.13632499985397,1,1.31839000014588,236.047077431477,0,93
9,2,2,1.26862500002608,1,1.28018499980681,262.274530479418,1,94
9,2,2,1.2338400001172,1,1.20425499998964,262.274530479418,1,95
9,1,1,1.83286000019871,1,1.37744499999098,236.047077431477,1,96
10,1,1,1.63024499997846,1,2.57414000001154,66.6666666666667,1,1
10,2,2,1.39822500001173,1,1.13274000000092,66.6666666666667,1,2
10,2,2,1.20569000000251,1,3.48618999999599,60,1,3
10,1,1,1.13668500000495,1,1.33182000002125,60,1,4
10,1,2,0.936430000001565,1,1.36832000000868,54,0,5
10,2,2,0.917805000004591,1,2.88070999999763,60,1,6
10,2,1,0.925934999977471,1,2.56225000001723,60,0,7
10,1,2,0.583459999994375,1,2.6898199999996,66.6666666666667,0,8
10,2,1,1.25238000001991,1,5.1518549999746,74.0740740740741,0,9
10,1,2,0.87472500000149,1,3.14111000002595,82.3045267489712,0,10
10,1,1,0.846075000008568,1,3.02334499999415,91.4494741655236,1,11
10,2,2,2.57099000000744,1,2.56143500001053,91.4494741655236,1,12
10,1,2,1.78028000000631,1,1.73718999998528,82.3045267489712,0,13
10,2,1,0.424180000001797,1,2.12299500001245,91.4494741655236,0,14
10,2,2,0.736024999991059,1,2.14810500000021,101.610526850582,1,15
10,1,2,1.23519999999553,1,3.10571000000346,101.610526850582,0,16
10,2,2,0.916055000008782,1,1.60550000000512,112.900585389535,1,17
10,1,2,0.857775000011316,1,3.0458299999882,112.900585389535,0,18
10,1,1,0.887350000004517,1,1.14329000000726,125.445094877261,1,19
10,2,1,0.742934999987483,1,2.9890449999948,125.445094877261,0,20
10,2,1,0.854174999985844,1,1.66445000001113,139.383438752513,0,21
10,1,2,0.942649999982677,1,3.54810000001453,154.870487502792,0,22
10,2,2,1.20907499999157,1,1.40773500001524,172.078319447546,1,23
10,1,1,1.35680499998853,1,1.5113849999907,172.078319447546,1,24
10,2,1,0.92852500002482,1,2.07345499997609,154.870487502792,0,25
10,1,1,0.98372499999823,1,1.94034000000102,172.078319447546,1,26
10,2,2,1.34026999998605,1,2.27875500000664,172.078319447546,1,27
10,1,1,0.702520000020741,1,6.92241999998805,154.870487502792,1,28
10,2,1,0.945054999989225,1,1.29735999999684,154.870487502792,0,29
10,1,2,0.869754999992438,1,2.00243999998202,172.078319447546,0,30
10,2,1,0.932995000010123,1,2.58249499998055,191.198132719496,0,31
10,1,1,0.548300000024028,1,5.37490500000422,212.442369688329,1,32
10,1,1,1.06958999999915,1,1.65466000000015,212.442369688329,1,33
10,2,1,0.920454999984941,1,1.2533650000114,191.198132719496,0,34
10,1,1,1.23801500000991,1,2.3830499999749,212.442369688329,1,35
10,2,1,0.677659999986645,1,1.47909500001697,212.442369688329,0,36
10,1,1,0.643129999982193,1,1.12246000001323,236.047077431477,1,37
10,2,2,0.601090000011027,1,1.93338999999105,236.047077431477,1,38
10,1,2,1.397799999977,1,3.07520000002114,212.442369688329,0,39
10,2,1,1.02762000000803,1,3.90909000000102,236.047077431477,0,40
10,2,2,1.05421999999089,1,1.30211499999859,262.274530479418,1,41
10,1,2,0.721669999998994,1,2.42761000001337,262.274530479418,0,42
10,1,2,0.499164999986533,1,3.1516100000008,291.416144977132,0,43
10,2,2,1.96869000000879,1,2.97444499999983,323.795716641257,1,44
10,2,2,1.04255000001285,1,3.38032999998541,323.795716641257,1,45
10,1,1,1.49975499999709,1,3.34532999998191,291.416144977132,1,46
10,1,2,1.13751500000944,1,2.9793049999862,291.416144977132,0,47
10,2,1,2.72478499999852,1,1.83793999999762,323.795716641257,0,48
10,2,1,1.61181499998202,1,2.61011000000872,359.773018490286,0,49
10,1,2,1.2882249999966,1,2.57937500000116,399.74779832254,0,50
10,2,2,1.83441999999923,1,3.36732499999925,444.164220358378,1,51
10,1,1,1.37466000000131,1,3.27408500001184,444.164220358378,1,52
10,1,2,0.752959999983432,1,2.62116500001866,399.74779832254,0,53
10,2,1,2.25130500001251,1,1.27981000000727,444.164220358378,0,54
10,2,2,1.15161499998067,1,1.10031500001787,493.515800398197,1,55
10,1,2,1.26032000000123,1,1.07915499998489,493.515800398197,0,56
10,1,2,1.2227899999998,1,2.03198999998858,548.35088933133,0,57
10,2,2,1.36430999997538,1,3.55911000000197,609.2787659237,1,58
10,2,2,0.952584999991814,1,2.96319000000949,609.2787659237,1,59
10,1,2,0.731854999990901,1,1.67087999999058,548.35088933133,0,60
10,2,2,1.37176499998895,1,2.09520000001066,609.2787659237,1,61
10,1,1,1.70066500001121,1,2.28535499999998,609.2787659237,1,62
10,2,2,1.33214499999303,1,1.32099999999627,548.35088933133,1,63
10,1,2,2.0838250000088,1,2.01641999999993,548.35088933133,0,64
10,2,1,1.49207999999635,1,4.45175500001642,609.2787659237,0,65
10,1,1,2.22652500000549,1,2.08477499999572,676.976406581889,1,66
10,1,1,2.54598500000429,1,2.50854999999865,676.976406581889,1,67
10,2,2,2.07296999997925,1,5.05141500002355,609.2787659237,1,68
10,1,1,1.81530499999644,1,2.07339499998488,609.2787659237,1,69
10,2,2,0.875759999995353,1,1.69800499998382,548.35088933133,1,70
10,2,2,1.39936000001035,1,2.44918500000495,548.35088933133,1,71
10,1,1,1.18296499998542,1,1.73341000001528,493.515800398197,1,72
10,2,2,1.17140500000096,1,1.55641499999911,493.515800398197,1,73
10,1,1,0.951860000001034,1,1.2696649999998,444.164220358378,1,74
10,1,1,1.31568499997957,1,2.58852500002831,444.164220358378,1,75
10,2,1,1.07477999999537,1,1.60987000001478,399.74779832254,0,76
10,1,1,1.14303000000655,1,1.44831999999587,444.164220358378,1,77
10,2,2,1.11926500001573,1,1.90431499999249,444.164220358378,1,78
10,2,1,0.949495000008028,1,2.24043999999412,399.74779832254,0,79
10,1,1,1.10243500000797,1,2.60228500000085,444.164220358378,1,80
10,2,1,1.44282500000554,1,2.07628999999724,444.164220358378,0,81
10,1,1,1.10401999999885,1,1.84364999999525,493.515800398197,1,82
10,2,2,1.09657500000321,1,2.37799999999697,493.515800398197,1,83
10,1,1,1.12816999998176,1,1.65890999999829,444.164220358378,1,84
10,2,1,1.05484500000603,1,2.47378999998909,444.164220358378,0,85
10,1,2,1.18338999999105,1,1.63081500001135,493.515800398197,0,86
10,1,1,1.20512499997858,1,1.30178000000888,548.35088933133,1,87
10,2,2,0.975284999993164,1,1.74558499999694,548.35088933133,1,88
10,2,1,0.870855000015581,1,2.15038999999524,493.515800398197,0,89
10,1,2,1.2402749999892,1,2.26032000000123,548.35088933133,0,90
10,1,1,1.32782999999472,1,1.9453050000011,609.2787659237,1,91
10,2,2,1.89772000000812,1,1.4761699999799,609.2787659237,1,92
10,2,1,0.881974999996601,1,2.58318499999586,548.35088933133,0,93
10,1,1,1.54471499999636,1,2.02799000000232,609.2787659237,1,94
10,2,2,1.28347500000382,1,1.9235649999755,609.2787659237,1,95
10,1,1,1.28860500000883,1,1.84164999998757,548.35088933133,1,96
11,2,2,1.27289999998175,0.252930291368404,2.9605749999173,48.6,1,1
11,1,1,1.05669500003569,1,1.04946999996901,48.6,1,2
11,2,2,1.42904000007547,0.219287936168875,1.75912500009872,43.74,1,3
11,1,1,1.0542500000447,0.56305424604478,1.93342499993742,43.74,1,4
11,1,1,1.01256499998271,0.511230768928509,1.91622499981895,39.366,1,5
11,2,1,3.01944499998353,0.125225312860381,1.65697000012733,39.366,0,6
11,1,1,1.72554000001401,0.483769113811665,1.69818999990821,43.74,1,7
11,2,1,4.43934000004083,0.014195869124016,1.50096000009216,43.74,0,8
11,1,1,2.48014499992132,0.105418878787682,1.07716500014067,48.6,1,9
11,2,2,2.79563999990933,0.020691364356072,1.8076150000561,48.6,1,10
11,2,1,4.70766999991611,0,1.41854500002228,43.74,0,11
11,1,1,2.03805000009015,0,1.56368499994278,48.6,1,12
11,2,1,2.64745500008576,0.050512522497304,0.995684999972582,48.6,0,13
11,1,1,1.35265500005335,0,0.634240000043064,54,1,14
11,1,2,4.09514999995008,0,1.91182999988087,54,0,15
11,2,1,4.11988999997266,0,0.99096000008285,60,0,16
11,2,2,0.961840000003576,0.998216944014245,1.24199000000954,66.6666666666667,1,17
11,1,1,0.939110000152141,1,1.10566499992274,66.6666666666667,1,18
11,1,1,1.70650999993086,0.428733375172789,2.39623000007123,60,1,19
11,2,2,1.32015000004321,0.390408506048054,1.95357999997213,60,1,20
11,1,1,0.869565000059083,0.642761427747789,1.6201150000561,54,1,21
11,2,2,1.37714500003494,0.280116777053328,1.22114000003785,54,1,22
11,2,2,1.61948500014842,0,2.29561999998987,48.6,1,23
11,1,1,0.844464999856427,0.554081549652555,1.7457000000868,48.6,1,24
11,1,1,1.34033500007354,0.524364616883767,0.618724999949336,43.74,1,25
11,2,2,1.14383499999531,0.190753737013312,1.46788999997079,43.74,1,26
11,2,2,2.51206499990076,0,1.65832499996759,39.366,1,27
11,1,2,5.20320999994874,0,1.17395500000566,39.366,0,28
11,1,1,3.7615400000941,0,1.57666500005871,43.74,1,29
11,2,1,2.16428999998607,0,1.26578500005417,43.74,0,30
11,2,2,1.62086999998428,0,1.98517999984324,48.6,1,31
11,1,1,0.821325000142679,0.738902527173492,1.08652999997139,48.6,1,32
11,2,2,1.24659499991685,0.504831928987402,1.32629500003532,43.74,1,33
11,1,1,0.705874999985099,0.748091578839798,1.33662499999627,43.74,1,34
11,2,2,1.51105499989353,0.204014932897468,1.29210500000045,39.366,1,35
11,1,1,0.831375000067055,0.658479146809644,1.73814500006847,39.366,1,36
11,2,2,1.53791499999352,0.001770691329723,1.15438500000164,35.4294,1,37
11,1,1,0.820470000151545,0.858414666284304,1.0655699998606,35.4294,1,38
11,1,1,2.60373000008985,0,0.69082499993965,31.88646,1,39
11,2,1,2.74238499999046,0.232773814755878,3.04932499979623,31.88646,0,40
11,2,2,1.71007499983534,0.424711615880711,2.69364000018686,35.4294,1,41
11,1,1,1.06312499986961,0.266212146350283,1.38006000011228,35.4294,1,42
11,2,2,1.52442499995232,0.566715908049267,1.28312000003643,31.88646,1,43
11,1,1,1.40593499992974,0.289155817940338,1.51427499996498,31.88646,1,44
11,2,2,2.62545500020497,0,0.799004999920726,28.697814,1,45
11,1,1,1.36812500003725,0,1.03771000006236,28.697814,1,46
11,2,1,1.87963999994099,0.376025954436051,1.42439000005834,25.8280326,0,47
11,1,1,0.836030000122264,0.574660649990781,1.11147999996319,28.697814,1,48
11,2,2,1.30377999995835,0.708135803838669,1.14066500007175,28.697814,1,49
11,1,2,3.3752899998799,0,1.47646000003442,25.8280326,0,50
11,2,2,1.61289500002749,0,0.722649999894202,28.697814,1,51
11,1,1,1.28815499995835,0.619442317589893,2.35780999995768,28.697814,1,52
11,2,2,2.00682999985293,0,1.2117300000973,25.8280326,1,53
11,1,2,1.74218000005931,0,0.699714999878779,25.8280326,0,54
11,1,1,2.29256500001065,0,1.41032999986783,28.697814,1,55
11,2,1,0.993474999908358,0,0.693784999893978,28.697814,0,56
11,1,2,1.68692500004545,0,0.899860000004992,31.88646,0,57
11,2,1,1.53536999993958,0.459635097292096,0.971045000012964,35.4294,0,58
11,1,1,1.15449999994598,0.73070336693834,0.887345000170171,39.366,1,59
11,2,2,0.912335000000894,0.860999550786215,0.946394999977201,39.366,1,60
11,1,1,0.970059999963269,0.966904173414083,1.14931999985129,35.4294,1,61
11,2,2,1.32199499988928,0.340901950954041,1.08782500005327,35.4294,1,62
11,1,1,1.05762499989942,0.832805802139171,1.01744999992661,31.88646,1,63
11,2,2,1.51962499995716,0.800736918878895,1.60166500019841,31.88646,1,64
11,1,1,1.08619000017643,0.959540548582369,1.08886000001803,28.697814,1,65
11,2,2,1.10838500014506,0.551487104623152,1.02948999986984,28.697814,1,66
11,1,1,1.14214500016533,0,1.09441499994136,25.8280326,1,67
11,2,1,1.87031499994919,0.488771022663458,0.903669999912381,25.8280326,0,68
11,1,1,1.70281499996781,0.444702663447324,0.652744999853894,28.697814,1,69
11,2,2,1.12861999985762,0.197278911564625,0.860310000134632,28.697814,1,70
11,1,1,0.808510000118986,0.622713484147449,1.00248000002466,25.8280326,1,71
11,2,2,0.896445000078529,0.927074864533808,1.04098000004888,25.8280326,1,72
11,1,2,1.44261500006542,0.322967845327074,1.46169000002556,23.24522934,0,73
11,2,1,0.774179999949411,1,0.899364999961108,25.8280326,0,74
11,2,2,1.1073149999138,0.274832147836972,1.11186500010081,28.697814,1,75
11,1,2,1.43621499999426,0,0.778214999940246,28.697814,0,76
11,2,2,2.44291500002146,0,0.779464999912307,31.88646,1,77
11,1,1,1.41923999995925,0.842222910188035,1.49368499987759,31.88646,1,78
11,1,2,1.73548499983735,0,1.05413000006229,28.697814,0,79
11,2,2,2.10193499992602,0,1.28792500006966,31.88646,1,80
11,1,1,0.929795000003651,1,0.634934999980032,31.88646,1,81
11,2,2,1.05224500014447,0.597358939250908,1.0555249999743,28.697814,1,82
11,1,1,0.82033499982208,1,0.660830000182614,28.697814,1,83
11,2,2,0.894474999979138,1,0.628104999894276,25.8280326,1,84
11,1,1,0.792559999972582,1,0.545320000033826,25.8280326,1,85
11,2,2,1.17201000009663,0.396320196474404,1.10263999993913,23.24522934,1,86
11,1,1,0.735239999834448,0.532807526303886,0.995335000101477,23.24522934,1,87
11,2,2,1.21182000008412,0.351827454767288,1.09255499998108,20.920706406,1,88
11,1,1,0.753074999898672,0.780034208538368,0.886360000120476,20.920706406,1,89
11,2,2,1.35310499998741,0.138778796523597,0.683775000041351,18.8286357654,1,90
11,2,1,1.86822000006214,0,0.870314999949187,18.8286357654,0,91
11,1,1,0.902724999934435,0.753503008344753,0.751240000128746,20.920706406,1,92
11,2,2,0.996114999987185,0,0.758124999934807,20.920706406,1,93
11,1,1,0.769480000017211,1,0.761119999922812,18.8286357654,1,94
11,1,1,0.873239999869838,0.755230870989249,0.901134999934584,18.8286357654,1,95
11,2,2,0.761394999921322,0.722453258022195,1.4078800000716,16.94577218886,1,96
12,1,1,2.06830999999875,1,2.18799500000023,60,1,1
12,2,1,1.23953999999867,1,3.82869500000015,60,0,2
12,1,2,0.687545000000682,1,1.73941500000001,66.6666666666667,0,3
12,2,1,1.2857299999996,1,1.4437199999993,74.0740740740741,0,4
12,1,2,0.899884999998903,1,2.06717500000013,82.3045267489712,0,5
12,2,1,1.22459999999774,1,1.5445749999999,91.4494741655236,0,6
12,1,1,1.52795500000138,1,1.56034499999805,101.610526850582,1,7
12,2,2,0.799105000001873,1,1.9846749999997,101.610526850582,1,8
12,1,1,0.972854999999981,1,1.3422900000005,91.4494741655236,1,9
12,2,2,0.743735000000015,1,1.66033000000243,91.4494741655236,1,10
12,2,2,0.634540000002744,1,1.82750999999917,82.3045267489712,1,11
12,1,2,0.680270000000746,1,1.39058500000101,82.3045267489712,0,12
12,1,2,0.753185000001395,1,1.59459499999866,91.4494741655236,0,13
12,2,2,0.922290000002249,1,1.52920499999891,101.610526850582,1,14
12,2,2,0.835589999998774,1,1.38767000000007,101.610526850582,1,15
12,1,1,1.5691599999991,1,1.29452999999921,91.4494741655236,1,16
12,1,1,1.28286999999912,1,1.61111500000331,91.4494741655236,1,17
12,2,1,1.17114500000025,1,1.5621649999994,82.3045267489712,0,18
12,1,2,0.873984999998356,1,1.45265500000096,91.4494741655236,0,19
12,2,2,0.8918400000002,1,1.39698000000138,101.610526850582,1,20
12,1,2,0.733154999998107,1,1.73571500000253,101.610526850582,0,21
12,2,2,0.852835000001534,1,1.45882499999792,112.900585389535,1,22
12,1,1,0.941129999999248,1,1.29408500000136,112.900585389535,1,23
12,2,2,0.874284999998054,1,1.43308000000252,101.610526850582,1,24
12,1,2,0.794365000001621,1,1.31298999999848,101.610526850582,0,25
12,2,1,0.995145000000717,1,1.50125499999925,112.900585389535,0,26
12,1,2,0.931984999999229,1,1.40747999999806,125.445094877261,0,27
12,2,1,1.14342000000033,1,2.31718499999988,139.383438752513,0,28
12,2,1,0.917054999998072,1,1.18938500000146,154.870487502792,0,29
12,1,2,1.08540999999968,1,1.2080100000021,172.078319447546,0,30
12,2,2,0.759320000000997,1,1.6162650000006,191.198132719496,1,31
12,1,2,0.87060500000004,1,1.93852999999945,191.198132719496,0,32
12,2,2,1.09884500000044,1,1.43612000000215,212.442369688329,1,33
12,1,2,0.778659999999974,1,1.75997500000079,212.442369688329,0,34
12,1,1,1.05859000000055,1,1.43011499999923,236.047077431477,1,35
12,2,2,0.762515000002168,1,1.28685499999847,236.047077431477,1,36
12,1,2,0.837149999999441,1,1.45639500000107,212.442369688329,0,37
12,2,2,1.00170999999682,1,1.260970000003,236.047077431477,1,38
12,1,2,0.904654999998515,1,1.19475000000233,236.047077431477,0,39
12,2,2,0.822065000000293,1,1.47152999999892,262.274530479418,1,40
12,1,1,1.24783000000025,1,1.32403499999782,262.274530479418,1,41
12,2,2,0.778590000001714,1,1.0963499999998,236.047077431477,1,42
12,1,2,0.731270000000193,1,1.11907000000065,236.047077431477,0,43
12,2,1,1.07565500000049,1,1.38046000000031,262.274530479418,0,44
12,1,1,1.01832499999728,1,1.16988000000129,291.416144977132,1,45
12,2,2,0.802395000002463,1,1.2463099999986,291.416144977132,1,46
12,2,1,0.82504499999783,1,1.14321000000194,262.274530479418,0,47
12,1,2,0.778184999999241,1,1.08910000000102,291.416144977132,0,48
12,1,2,2.4574500000017,1,4.22525499999756,323.795716641257,0,49
12,2,1,1.28431500000082,1,1.32374500000151,359.773018490286,0,50
12,1,2,0.639585000000778,1,1.7146499999981,399.74779832254,0,51
12,2,2,1.19514999999956,1,1.34163999999873,444.164220358378,1,52
12,1,2,0.776539999998873,1,1.41267500000325,444.164220358378,0,53
12,2,1,1.31434499999887,1,1.3174199999994,493.515800398197,0,54
12,1,2,1.00100999999995,1,1.26728499999811,548.35088933133,0,55
12,2,2,1.48825999999826,1,1.75318999999942,609.2787659237,1,56
12,2,1,1.43768500000075,1,1.33484999999928,609.2787659237,0,57
12,1,2,1.82037499999936,1,1.19766499999969,676.976406581889,0,58
12,1,2,1.61808500000188,1,1.1383949999981,752.19600731321,0,59
12,2,2,1.61488499999902,1,1.16084000000049,835.773341459123,1,60
12,2,2,1.84017499999754,1,1.32889000000065,835.773341459123,1,61
12,1,1,1.81976000000216,1,1.23702499999857,752.19600731321,1,62
12,2,2,1.85352500000229,1,1.13516499999969,752.19600731321,1,63
12,1,2,1.64353499999928,1,1.10717000000295,676.976406581889,0,64
12,2,1,1.70929500000051,1,1.25349500000087,752.19600731321,0,65
12,1,2,1.66790000000037,1,1.33041999999841,835.773341459123,0,66
12,1,2,1.79363499999815,1,1.15629000000266,928.637046065692,0,67
12,2,2,1.8869349999986,1,3.57785000000149,1031.81894007299,1,68
12,1,2,1.7117699999981,1,1.28246000000217,1031.81894007299,0,69
12,2,2,2.02341499999963,1,1.19600499999803,1146.46548896999,1,70
12,1,1,2.22597500000126,1,1.61018499999773,1146.46548896999,1,71
12,2,2,2.0829750000012,1,1.08721499999956,1031.81894007299,1,72
12,1,1,2.16887000000133,1,1.17112999999878,1031.81894007299,1,73
12,2,1,1.76609999999712,1,1.11504000000056,928.637046065692,0,74
12,2,1,2.08391499999922,1,1.40876999999821,1031.81894007299,0,75
12,1,1,2.9544749999987,1,3.56641999999923,1146.46548896999,1,76
12,2,1,2.40212000000244,1,3.88071999999741,1146.46548896999,0,77
12,1,1,2.53394499999925,1,1.2250299999977,1273.85054329999,1,78
12,1,1,2.27418499999831,1,2.52037000000209,1273.85054329999,1,79
12,2,1,2.22675499999977,1,1.22528500000038,1146.46548896999,0,80
12,1,1,2.22124999999872,1,1.24509000000043,1273.85054329999,1,81
12,2,2,2.15089499999885,1,1.27234500000125,1273.85054329999,1,82
12,1,1,2.17190000000119,1,1.31057000000146,1146.46548896999,1,83
12,2,2,1.97706500000285,1,2.37010999999975,1146.46548896999,1,84
12,1,1,1.90005499999819,1,2.23890000000037,1031.81894007299,1,85
12,2,1,2.78380000000109,1,1.12439000000083,1031.81894007299,0,86
12,1,1,2.19182999999973,1,1.09838500000117,1146.46548896999,1,87
12,2,2,1.99125499999709,1,1.16917000000109,1146.46548896999,1,88
12,1,1,1.97827999999945,1,1.13920499999949,1031.81894007299,1,89
12,2,2,1.70391999999993,1,1.7532350000001,1031.81894007299,1,90
12,1,1,1.77353500000015,1,2.0950450000019,928.637046065692,1,91
12,2,1,2.3375149999992,1,2.36957000000263,928.637046065692,0,92
12,2,1,2.00630499999889,1,5.57966500000108,1031.81894007299,0,93
12,1,1,2.0616399999999,1,1.24406499999901,1146.46548896999,1,94
12,2,2,1.81230500000308,1,1.61151499999687,1146.46548896999,1,95
12,1,1,1.7698950000013,1,1.1665549999997,1031.81894007299,1,96
13,2,2,1.47595999995247,0.344903177421587,1.67388500005472,48.6,1,1
13,1,1,1.44817999994848,1,1.82779000001028,48.6,1,2
13,2,2,1.15344500006177,0.724323046529385,1.7260299999034,43.74,1,3
13,1,1,1.16861000005156,1,1.40266499994323,43.74,1,4
13,2,1,2.7618749999674,0.372176686550957,1.4493149999762,39.366,0,5
13,1,1,0.903470000019297,0.997912736003736,1.22100499994121,43.74,1,6
13,2,2,1.41552499996033,0.159232698111217,2.22619499999564,43.74,1,7
13,1,1,0.878930000006221,1,1.62971000000834,39.366,1,8
13,1,1,0.82227000000421,1,1.25152500008699,39.366,1,9
13,2,1,1.7563599999994,0.286145987086464,1.56851000001188,35.4294,0,10
13,1,1,0.704434999963269,1,1.32746000005864,39.366,1,11
13,2,2,1.2992399999639,0.558351296873751,1.34033499995712,39.366,1,12
13,1,1,0.707255000015721,1,1.03987999993842,35.4294,1,13
13,2,1,1.10213500005193,0.358748405600701,1.22820000001229,35.4294,0,14
13,1,1,0.673259999952279,0.78201275642761,2.05370500008576,39.366,1,15
13,2,2,1.03899999998976,0.609543491642032,1.9381150000263,39.366,1,16
13,1,1,0.725570000009611,1,1.08155499992426,35.4294,1,17
13,2,2,1.35786999994889,0.77450183995988,1.53423500002827,35.4294,1,18
13,1,1,0.922744999988936,0.878117756449226,1.62765999999829,31.88646,1,19
13,2,2,0.971105000004172,1,1.32666000002064,31.88646,1,20
13,1,1,0.865014999988489,0.800736918878895,1.90149499999825,28.697814,1,21
13,2,2,0.927454999997281,0.804872021379404,1.41321999998763,28.697814,1,22
13,2,2,1.0240899999626,0.907717361325204,1.19823000009637,25.8280326,1,23
13,1,1,0.83418000000529,1,0.873489999910817,25.8280326,1,24
13,1,1,0.726664999965578,1,0.863729999982752,23.24522934,1,25
13,2,2,0.895409999997355,0.856193727928479,1.64412999991328,23.24522934,1,26
13,1,1,0.966254999977536,0.812168340052406,1.79316999996081,20.920706406,1,27
13,2,2,0.824090000009164,1,0.822049999958836,20.920706406,1,28
13,2,2,1.58221500006039,0.638271804449168,2.3170149999205,18.8286357654,1,29
13,1,1,0.765090000000782,1,0.804810000001453,18.8286357654,1,30
13,1,1,0.697739999974146,1,1.0000299999956,16.94577218886,1,31
13,2,2,1.63751499995124,0.788146872224383,1.2935249999864,16.94577218886,1,32
13,2,2,1.3554099999601,0.555441431321278,1.61534500005655,15.251194969974,1,33
13,1,2,1.55986999999732,0.47499323562773,1.16880500002299,15.251194969974,0,34
13,2,2,2.42249499994796,0.147755229432569,1.68692000000738,16.94577218886,1,35
13,1,1,0.825219999998808,1,0.856429999927059,16.94577218886,1,36
13,1,2,2.80648999998812,0.19220708451768,1.3729549999116,15.251194969974,0,37
13,2,2,1.89830000000075,0,1.59427499992307,16.94577218886,1,38
13,2,2,1.45453999994788,0.387755102040816,1.63385500002187,16.94577218886,1,39
13,1,1,0.855024999938905,1,2.15135499997996,15.251194969974,1,40
13,2,2,1.39294999989215,0.228872818838482,2.35205000010319,15.251194969974,1,41
13,1,2,1.31864999991376,0.228748307040752,1.92583500000183,13.7260754729766,0,42
13,1,2,1.39104500005487,0.015370113600176,2.09941999998409,15.251194969974,0,43
13,2,2,1.01512500003446,0.497647135774498,1.47343500005081,16.94577218886,1,44
13,1,1,0.79958499991335,1,1.04413000005297,16.94577218886,1,45
13,2,2,1.34507500007749,0.435974078535582,1.18024999997579,15.251194969974,1,46
13,1,2,1.89670000004116,0.092992324127343,1.81297500000801,15.251194969974,0,47
13,2,2,1.10799500008579,0.457788845024329,1.48548999999184,16.94577218886,1,48
13,2,2,1.02748500008602,0.576592927617368,1.88398499996401,16.94577218886,1,49
13,1,2,2.15885999996681,0.00741987778486,1.74311999999918,15.251194969974,0,50
13,1,1,0.961060000001453,0.619077987732961,1.15870000002906,16.94577218886,1,51
13,2,2,1.09445500001311,0.381658680985067,1.13121500005946,16.94577218886,1,52
13,1,2,2.09355999995023,0.083275784198566,1.8736950000748,15.251194969974,0,53
13,2,2,1.1439600000158,0.596514461160622,1.31368999998085,16.94577218886,1,54
13,1,1,0.867139999987558,0.643203092552614,1.22352999995928,16.94577218886,1,55
13,2,2,1.30049499997403,0.852341660427478,1.41803000005893,15.251194969974,1,56
13,2,2,1.11702500004321,0.272331823664411,1.53561000002082,15.251194969974,1,57
13,1,2,1.23944999999367,0.034536119869459,1.45884500001557,13.7260754729766,0,58
13,2,2,1.29420500004198,0,2.02726000000257,15.251194969974,1,59
13,1,2,1.57126500003505,0,1.35964000003878,15.251194969974,0,60
13,1,2,2.17160999996122,0,2.15324999997392,16.94577218886,0,61
13,2,2,1.17189999995753,0.529924750447879,1.44860000000335,18.8286357654,1,62
13,1,1,0.985184999997728,1,1.04331499990076,18.8286357654,1,63
13,2,2,1.30819500004873,0.454582904828752,1.54588500002865,16.94577218886,1,64
13,1,2,2.25397999992128,0.049191758006708,1.60043500002939,16.94577218886,0,65
13,2,2,1.57408999989275,0,0.917905000038445,18.8286357654,1,66
13,1,1,0.726335000013933,1,1.3939600000158,18.8286357654,1,67
13,2,2,0.89262499997858,0.642260573945769,1.95215000002645,16.94577218886,1,68
13,1,1,0.769240000052378,1,0.724545000004582,16.94577218886,1,69
13,2,2,0.906915000057779,0.550686861275261,1.37969500001054,15.251194969974,1,70
13,1,1,0.873849999974482,0.425322803206016,1.89471000002231,15.251194969974,1,71
13,2,2,1.55808000010438,0,1.03134499990847,13.7260754729766,1,72
13,1,1,1.12178500008304,0.480993552006006,1.66931999998633,13.7260754729766,1,73
13,2,1,2.3866449999623,0,1.13887000002433,12.3534679256789,0,74
13,2,2,1.83715999999549,0,1.83844500000123,13.7260754729766,1,75
13,1,1,0.697434999980032,1,0.911250000004657,13.7260754729766,1,76
13,1,1,1.25353500002529,0.410844237962575,1.46983499999624,12.3534679256789,1,77
13,2,2,1.31050999998115,0.285498271875677,1.65161499998067,12.3534679256789,1,78
13,1,1,1.04437500005588,0.205744978920243,1.07383999996819,11.1181211331111,1,79
13,2,2,1.11910999997053,0.065266102595623,1.69296500005294,11.1181211331111,1,80
13,1,2,1.01303000003099,0,1.89811499998905,10.0063090197999,0,81
13,2,1,1.96275500010233,0,2.51292999996804,11.1181211331111,0,82
13,2,2,1.00165499991272,0.179752536091955,1.68702499999199,12.3534679256789,1,83
13,1,1,2.00889000005554,0,1.63896999997087,12.3534679256789,1,84
13,2,2,2.35364999994636,0,1.58955999999307,11.1181211331111,1,85
13,1,2,1.85647499992047,0,1.28542000008747,11.1181211331111,0,86
13,2,2,2.99007999990135,0,1.74096000008285,12.3534679256789,1,87
13,1,1,2.31364499998745,0,1.51150999998208,12.3534679256789,1,88
13,2,1,3.06112999992911,0,1.3314750000136,11.1181211331111,0,89
13,1,2,1.55085999995936,0,1.05041999998502,12.3534679256789,0,90
13,1,2,1.71514999994542,0,1.07148000004236,13.7260754729766,0,91
13,2,2,2.1330799999414,0,1.55948500009254,15.251194969974,1,92
13,1,2,1.47854999999981,0,1.23800999997184,15.251194969974,0,93
13,2,2,1.0276849999791,0.232835408747866,2.11629999999423,16.94577218886,1,94
13,1,1,0.729264999972656,0.599481516500883,1.96034500002861,16.94577218886,1,95
13,2,2,1.05719499988481,0.075784471836574,2.32211500010453,15.251194969974,1,96
14,1,1,1.26560500000051,0.778804873711017,3.07087999999931,66.6666666666667,1,1
14,2,1,1.24942499999815,0.399699847118106,2.25264000000243,66.6666666666667,0,2
14,1,1,0.856654999999591,1,2.25312000000122,74.0740740740741,1,3
14,2,1,1.00025000000096,0.852039362752586,1.8961449999988,74.0740740740741,0,4
14,1,1,1.16167000000132,1,1.91138499999943,82.3045267489712,1,5
14,2,1,1.86078500000076,0.642054247134344,2.31719000000157,82.3045267489712,0,6
14,1,1,1.14585500000248,1,2.21635999999853,91.4494741655236,1,7
14,2,2,1.22460000000137,0.674206016850114,2.12848999999915,91.4494741655236,1,8
14,1,1,1.28730999999971,0.998095270543227,2.16922500000146,82.3045267489712,1,9
14,2,2,0.952069999999367,0.387798707435548,1.47886500000095,82.3045267489712,1,10
14,2,2,0.937229999999545,0.687102709468161,2.37753000000157,74.0740740740741,1,11
14,1,1,0.81700500000079,0.855174146127526,2.36395999999877,74.0740740740741,1,12
14,1,2,3.0491949999996,0,2.40135500000179,66.6666666666667,0,13
14,2,1,1.08473999999842,0.679118773713916,1.58920000000217,74.0740740740741,0,14
14,1,1,1.05783499999961,1,2.06116000000111,82.3045267489712,1,15
14,2,2,1.2255499999992,0.654252263098341,1.36592999999993,82.3045267489712,1,16
14,2,2,0.766799999997602,0.802231557324032,2.38581999999954,74.0740740740741,1,17
14,1,1,0.838039999998757,0.959939272335207,2.01813499999838,74.0740740740741,1,18
14,1,1,0.824805000000226,0.614203502635826,1.4470799999981,66.6666666666667,1,19
14,2,2,0.981794999999693,0.698290448360644,1.8865799999985,66.6666666666667,1,20
14,2,1,1.55618499999761,0.387056927731984,1.7736750000004,60,0,21
14,1,1,1.23032499999681,0.867295401695067,1.50993999999989,66.6666666666667,1,22
14,1,1,1.10134500000277,0.793969188133066,1.81379999999987,66.6666666666667,1,23
14,2,2,0.858209999998508,0.39460087660146,1.55999000000156,60,1,24
14,2,2,1.41834500000183,0.181683277329974,2.54353500000073,60,1,25
14,1,1,0.976484999999229,0.943578094220911,1.89284500000213,54,1,26
14,1,1,0.937690000002447,0.921937132142756,1.93442499999946,54,1,27
14,2,2,1.1588900000024,0.3171697976244,1.56637499999854,48.6,1,28
14,2,2,1.6854050000002,0.237183067305127,1.64634500000102,48.6,1,29
14,1,1,0.937079999999667,0.913756773265922,1.90654500000167,43.74,1,30
14,1,1,0.851224999998522,0.906880092025052,1.73421500000043,43.74,1,31
14,2,2,2.56245499999932,0,2.61954500000138,39.366,1,32
14,1,1,0.841384999999776,1,1.84037499999977,39.366,1,33
14,2,2,1.34708000000316,0.197278911564625,1.57623999999854,35.4294,1,34
14,2,1,0.97921000000136,0,1.94208000000066,35.4294,0,35
14,1,1,1.00740500000032,0.966153319934165,2.04933499999967,39.366,1,36
14,1,1,0.881235000000685,0.907364908239991,2.25159999999963,39.366,1,37
14,2,1,1.36132999999973,0.300626013959363,1.84505500000162,35.4294,0,38
14,2,1,0.981940000001458,0,4.83255999999889,39.366,0,39
14,1,1,0.730590000002878,0.810422316684344,2.40697999999975,43.74,1,40
14,2,1,0.927490000001853,0.423037669199603,1.65415999999817,43.74,0,41
14,1,1,0.985134999998962,0.873301810260802,2.31676499999961,48.6,1,42
14,2,2,1.22221999999962,0.035187106507515,2.34914500000014,48.6,1,43
14,1,1,0.835285000000964,0.752960753461265,1.38460999999737,43.74,1,44
14,2,1,1.64780500000052,0.243043662685247,1.64105999999814,43.74,0,45
14,1,1,0.975890000001527,1,2.95349999999965,48.6,1,46
14,1,1,0.766080000001239,0.952718923643072,2.03861999999936,48.6,1,47
14,2,1,0.820045000000391,0.709521366404195,1.79873500000034,43.74,0,48
14,2,1,1.26512500000175,0.900645681428316,2.63589499999944,48.6,0,49
14,1,2,1.72798999999941,0,2.02267500000016,54,0,50
14,2,2,0.941290000002482,0.693407312143091,1.69132499999984,60,1,51
14,1,1,0.896215000000666,0.457364945708275,1.2844299999997,60,1,52
14,1,1,0.817265000001527,0.332603911700858,1.63183500000008,54,1,53
14,2,2,0.781569999999134,0.390798875032794,1.43586000000144,54,1,54
14,2,2,1.55285500000173,0.038662096110562,1.72615500000026,48.6,1,55
14,1,1,0.788265000002924,0.893860588716202,1.41029999999952,48.6,1,56
14,2,1,1.35378000000131,0.021678729557113,2.98932499999856,43.74,0,57
14,1,1,0.93220000000298,0.14131426631572,1.7347999999983,48.6,1,58
14,1,1,0.723020000001183,0.619533372850171,1.62785000000079,48.6,1,59
14,2,1,0.759740000001271,0,1.61680499999784,43.74,0,60
14,2,2,1.13643999999843,0.142695127371637,2.56555000000296,48.6,1,61
14,1,1,0.843160000000382,0.369293339448128,1.82205500000052,48.6,1,62
14,1,1,0.863040000000154,0.183956793182702,2.37271999999939,43.74,1,63
14,2,2,1.02711999999883,0,1.64203500000073,43.74,1,64
14,2,1,0.813829999999143,0.706856912374551,1.98702000000048,39.366,0,65
14,1,1,0.819980000000214,0.324554649967398,1.43357499999914,43.74,1,66
14,2,1,0.8245349999998,0.115735752499975,1.40653499999817,43.74,0,67
14,1,1,1.45340000000212,0,4.19724499999941,48.6,1,68
14,2,1,0.946540000000852,0.317823209614612,2.0287949999983,48.6,0,69
14,1,1,0.898404999999912,0,1.56784499999776,54,1,70
14,1,1,1.15495000000007,0,1.44081500000169,54,1,71
14,2,1,1.05182500000228,0.213556106052509,1.96034499999951,48.6,0,72
14,1,1,0.781504999998957,0,1.60645500000101,54,1,73
14,2,2,1.33952000000142,0,2.51239999999956,54,1,74
14,1,1,0.80184999999986,1,2.39161000000243,48.6,1,75
14,2,2,3.16774000000081,0,1.86044499999844,48.6,1,76
14,1,2,1.3016949999982,0,2.69699500000209,43.74,0,77
14,2,1,0.814744999999646,0,1.6369550000017,48.6,0,78
14,2,2,0.799539999999921,0.018841691483057,1.47989999999839,54,1,79
14,1,1,0.81274499999918,0.625850340136054,1.69395499999891,54,1,80
14,2,2,2.74232000000111,0,2.07390500000108,48.6,1,81
14,1,1,1.63514500000025,0.544352381220396,1.38641500000074,48.6,1,82
14,2,1,2.37733500000113,0,1.58709499999892,43.74,0,83
14,1,1,0.846789999999688,0.003677953935632,1.87490999999852,48.6,1,84
14,2,2,0.704949999999255,0,1.48655499999959,48.6,1,85
14,1,1,0.807625000001281,0,2.63865499999886,43.74,1,86
14,1,1,0.920784999998403,0,1.81757500000088,43.74,1,87
14,2,1,1.09469999999774,0,1.36131000000029,39.366,0,88
14,1,1,0.823499999998603,0,1.24278000000049,43.74,1,89
14,2,1,0.889580000002636,0,1.69968499999959,43.74,0,90
14,1,1,0.7796650000019,0,1.74375999999745,48.6,1,91
14,2,1,1.14670000000112,0,1.87132500000007,48.6,0,92
14,1,1,0.936030000000726,0.293366518146432,2.15567499999818,54,1,93
14,2,1,1.00664999999932,0.419098678314649,1.7653900000006,54,0,94
14,2,2,2.95208500000078,0,2.39518999999936,60,1,95
14,1,1,3.56964499999967,0,2.26588999999873,60,1,96
15,2,1,1.59082500007935,1,2.01049999985844,66.6666666666667,0,1
15,1,2,2.39250999991782,1,1.87685499992222,74.0740740740741,0,2
15,1,2,2.109775000019,1,1.75249499990605,82.3045267489712,0,3
15,2,1,2.8399849999696,1,2.38925000000745,91.4494741655236,0,4
15,1,1,1.83908999990672,1,1.84288499993272,101.610526850582,1,5
15,2,2,1.63945500017144,1,3.83588499994949,101.610526850582,1,6
15,2,1,2.43433499988168,1,4.12299999990501,91.4494741655236,0,7
15,1,2,1.81538500008173,1,2.68448499985971,101.610526850582,0,8
15,2,1,2.13371500000358,1,3.41932999994606,112.900585389535,0,9
15,1,1,2.44615500001237,1,3.4048850000836,125.445094877261,1,10
15,2,2,1.3743849999737,1,2.90950500010513,125.445094877261,1,11
15,1,1,2.3827399997972,1,3.2516300000716,112.900585389535,1,12
15,1,1,1.82370499987155,1,2.88995500002056,112.900585389535,1,13
15,2,2,1.52916499995627,1,3.05507000000216,101.610526850582,1,14
15,2,2,1.84635500004515,1,3.95502999983728,101.610526850582,1,15
15,1,1,2.2507199998945,1,2.65844000014476,91.4494741655236,1,16
15,1,2,1.31508999993093,1,2.46995500009507,91.4494741655236,0,17
15,2,1,1.87398999999277,1,2.3454549999442,101.610526850582,0,18
15,1,2,1.82972000003792,1,2.6569399998989,112.900585389535,0,19
15,2,2,1.89376999996603,1,3.02181500010192,125.445094877261,1,20
15,2,1,1.64290500013158,1,4.58294999995269,125.445094877261,0,21
15,1,1,1.66014000005089,1,2.10524499998428,139.383438752513,1,22
15,1,2,1.77377499989234,1,3.13047500001267,139.383438752513,0,23
15,2,1,1.55106500000693,1,3.32292999979109,154.870487502792,0,24
15,2,2,1.64258999982849,1,3.93033500015736,172.078319447546,1,25
15,1,2,1.66385499993339,1,2.07991500012577,172.078319447546,0,26
15,1,1,1.77803499996662,1,2.49341499991715,191.198132719496,1,27
15,2,2,2.14033999992535,1,3.24552000011317,191.198132719496,1,28
15,2,1,1.9937800001353,1,3.17763499985449,172.078319447546,0,29
15,1,1,1.53071499988437,1,3.65398499998264,191.198132719496,1,30
15,2,2,2.05826000007801,1,2.40301499981433,191.198132719496,1,31
15,1,2,2.33334499993362,1,2.98288000002503,172.078319447546,0,32
15,2,1,2.32075499999337,1,1.83535499987192,191.198132719496,0,33
15,1,2,1.65549500007182,1,1.91530500003137,212.442369688329,0,34
15,2,2,2.32726500020362,1,2.4745699998457,236.047077431477,1,35
15,1,1,2.2257699999027,1,2.94685000018217,236.047077431477,1,36
15,2,1,1.92663999996148,1,2.19388999999501,212.442369688329,0,37
15,1,2,1.28850500006229,1,3.8439350000117,236.047077431477,0,38
15,2,2,1.37853000010364,1,3.07199000008404,262.274530479418,1,39
15,1,2,1.33330000005662,1,3.81007999996655,262.274530479418,0,40
15,1,1,1.24101500003599,1,4.41721999994479,291.416144977132,1,41
15,2,1,1.40334499999881,1,2.10855000000447,291.416144977132,0,42
15,2,1,1.43387499987148,1,1.95040500001051,323.795716641257,0,43
15,1,2,2.18574499990791,1,1.91730499989353,359.773018490286,0,44
15,1,2,1.42472500004806,1,3.85505000012927,399.74779832254,0,45
15,2,1,1.84320500004105,1,2.42003499995917,444.164220358378,0,46
15,1,2,2.31264999997802,1,3.82750499993563,493.515800398197,0,47
15,2,1,1.73600000003353,1,3.26499500009231,548.35088933133,0,48
15,1,1,3.17429499980062,1,1.9291900000535,609.2787659237,1,49
15,2,2,1.62512500002049,1,1.58939000009559,609.2787659237,1,50
15,1,1,1.70400999998674,0,1.92391499993391,548.35088933133,1,51
15,2,2,1.70270000002347,0,1.52804500004277,548.35088933133,1,52
15,1,1,3.42298500007018,0,2.29321999987587,493.515800398197,1,53
15,2,2,2.74038499989547,0,7.03370500006713,493.515800398197,1,54
15,2,1,1.5671250000596,0,3.71248499979265,444.164220358378,0,55
15,1,2,1.71423000004143,0,5.34660999989137,493.515800398197,0,56
15,2,2,1.69139499985613,1,7.09220500010997,548.35088933133,1,57
15,1,1,4.67137499991804,0,2.00257500004955,548.35088933133,1,58
15,1,2,1.63945999997668,0,3.17487500002608,493.515800398197,0,59
15,2,1,1.60636499989778,0,3.45249000005424,548.35088933133,0,60
15,2,2,2.19029000005685,0,4.03737499983981,609.2787659237,1,61
15,1,1,1.62293500010855,0,1.82247999985702,609.2787659237,1,62
15,2,2,1.40492499992251,0,1.57672000001185,548.35088933133,1,63
15,1,1,1.39648499991745,0,1.48137499997392,548.35088933133,1,64
15,2,1,1.64095499995165,0,1.60716999997385,493.515800398197,0,65
15,1,2,1.39000499993563,0,2.18890499998815,548.35088933133,0,66
15,2,1,2.27541999984533,0,1.15222000004724,609.2787659237,0,67
15,1,1,2.07254000008106,0,1.22442000010051,676.976406581889,1,68
15,1,2,1.53707999992184,0,0.981655000010505,676.976406581889,0,69
15,2,2,2.29324500006624,0,1.1036900000181,752.19600731321,1,70
15,2,1,1.77356499992311,0,0.956350000109524,752.19600731321,0,71
15,1,2,2.22383000003174,0,0.961215000133961,835.773341459123,0,72
15,1,2,2.39892499987036,0.03012542557726,1.68177000014111,928.637046065692,0,73
15,2,2,3.17622000002302,0.160986050727494,1.26431999984197,1031.81894007299,1,74
15,1,1,3.15348999993876,0,1.39382999995723,1031.81894007299,1,75
15,2,2,2.48470999998972,0,1.56534500000998,928.637046065692,1,76
15,1,2,2.69247500016354,0.0675769706958,2.3148499999661,928.637046065692,0,77
15,2,1,2.69530500005931,0.022062261027358,1.83466499997303,1031.81894007299,0,78
15,2,2,3.25314499996603,0.081929114103113,1.90638999990188,1146.46548896999,1,79
15,1,1,2.98365999991074,0,1.6668850001879,1146.46548896999,1,80
15,1,1,2.25272500002757,0,1.44598499988206,1031.81894007299,1,81
15,2,2,2.08993500005454,0,1.64419499994256,1031.81894007299,1,82
15,2,2,2.60085500008427,0,1.49683500011452,928.637046065692,1,83
15,1,1,1.93216999992728,0,1.00400000018999,928.637046065692,1,84
15,1,2,1.65753500000574,0,1.45301500009373,835.773341459123,0,85
15,2,2,2.20870000007562,0.040342270636373,2.58961999998428,928.637046065692,1,86
15,2,1,2.44639000017196,0,1.38789999997243,928.637046065692,0,87
15,1,2,1.88334000017494,0,1.24832499981858,1031.81894007299,0,88
15,2,1,2.96322999987751,0,1.9780150000006,1146.46548896999,0,89
15,1,2,2.40177999995649,0,1.44036999996752,1273.85054329999,0,90
15,2,2,2.86120000015944,0.047040155363629,2.94492499995977,1415.38949255554,1,91
15,1,2,3.05618500011042,0,1.41767499991693,1415.38949255554,0,92
15,2,1,3.27738999994472,0,1.96285500004888,1572.65499172838,0,93
15,1,1,3.47769000008702,0.088706095035402,2.95878499979153,1747.39443525376,1,94
15,2,2,3.66017500008456,0.067850433677375,2.85032500000671,1747.39443525376,1,95
15,1,1,3.13795999996364,0,1.4756149998866,1572.65499172838,1,96
16,2,2,0.978219999999041,0.782762995768417,1.93625500000053,60,1,1
16,1,1,0.695054999998305,1,0.987780000001309,54,1,2
16,2,2,1.77275000000009,0,1.68631499999901,54,1,3
16,1,1,1.10584999999992,1,0.828729999999254,48.6,1,4
16,1,1,0.687825000000885,1,0.664364999998739,48.6,1,5
16,2,1,0.708700000001059,0.348824789104561,1.68017999999938,43.74,0,6
16,2,1,1.20255500000165,0.358886773186007,2.0807049999985,48.6,0,7
16,1,1,0.876195000000764,0.371862107157195,1.54380499999932,54,1,8
16,2,1,1.83731500000067,0.340327642369517,1.26346000000014,54,0,9
16,1,1,0.888375000000437,0.360728041450931,0.961629999999801,60,1,10
16,1,1,0.821770000000455,0.455936900263003,1.14859499999875,60,1,11
16,2,1,1.17929999999978,0.42377318157711,1.42452500000037,54,0,12
16,1,1,0.875509999999864,0.493442784297828,1.643105000001,60,1,13
16,2,1,1.97935000000143,0.520504092138372,1.20535000000015,60,0,14
