"Subj_idx","Stimulus","Response","RT_dec","Confidence","RT_conf","SOA","Accuracy","Trial"
1,2,1,1.24150500000088,0.633607242088722,4.02248999999938,74.0740740740741,0,1
1,1,1,0.921519999999873,0.787201967929937,1.0586000000003,82.3045267489712,1,2
1,1,1,0.683944999999774,0.799067969016107,0.791215000000186,82.3045267489712,1,3
1,2,1,1.72913499999957,0.423405544806986,1.12656000000061,74.0740740740741,0,4
1,1,1,0.682574999999822,0.200528692901332,1.14900000000033,82.3045267489712,1,5
1,2,1,0.880699999999706,0.594383341558712,1.10887000000002,82.3045267489712,0,6
1,1,1,0.65763500000049,0.571007326386117,0.850429999999498,91.4494741655236,1,7
1,2,1,1.7055049999999,0.723762533567358,1.10075499999948,91.4494741655236,0,8
1,1,1,0.819080000000205,0.966320220189113,1.24873500000012,101.610526850582,1,9
1,2,1,0.743335000000108,0.565214302633428,1.24258499999996,101.610526850582,0,10
1,2,1,0.826159999999625,0.225872931506602,1.07244500000071,112.900585389535,0,11
1,1,1,0.670935000000085,0.961281282463862,1.71637499999997,125.445094877261,1,12
1,1,1,1.37153500000024,0.866241177729995,1.24938999999996,125.445094877261,1,13
1,2,2,0.769760000000126,0.681283462571794,1.27960500000062,112.900585389535,1,14
1,1,1,0.775949999999313,0.870748299319727,2.79439000000001,112.900585389535,1,15
1,2,2,1.73988499999995,0,1.33286500000031,101.610526850582,1,16
1,1,1,0.767964999999997,0.857513004751887,2.39130500000011,101.610526850582,1,17
1,2,2,0.742234999999695,0.483584458950821,1.72091499999989,91.4494741655236,1,18
1,1,1,0.657940000000061,0.891514438571331,1.36592999999993,91.4494741655236,1,19
1,2,2,0.719454999999463,0.64628782493026,1.01542500000051,82.3045267489712,1,20
1,2,2,0.710155000000668,0.898314820749249,1.19312999999966,82.3045267489712,1,21
1,1,1,0.649625,0.732370493914679,1.74537000000058,74.0740740740741,1,22
1,2,2,0.686700000000215,0.633607242088722,1.15359499999974,74.0740740740741,1,23
1,1,1,0.737670000000449,0.711581957448031,1.05265999999939,66.6666666666667,1,24
1,2,2,0.600190000000119,0.814273868678179,1.50572999999986,66.6666666666667,1,25
1,1,1,0.675729999999923,0.815723262792301,1.9500849999995,60,1,26
1,1,1,0.891674999999843,0.772355377351953,3.02310500000021,60,1,27
1,2,2,0.805260000000097,0.596357970460197,1.88205999999991,54,1,28
1,2,2,0.703480000000127,0.789214950764817,2.14939500000037,54,1,29
1,1,1,0.668154999999388,0.626331797935071,1.20149500000026,48.6,1,30
1,1,1,0.780264999999403,0.476788229009571,1.19487500000015,48.6,1,31
1,2,2,0.671064999999537,0.828503780109911,1.36443500000043,43.74,1,32
1,2,1,1.2452199999998,0,1.08241499999983,43.74,0,33
1,1,1,0.817984999999695,0.638271804449168,2.0152050000006,48.6,1,34
1,2,2,1.20680499999979,0.735510878452733,1.0723250000001,48.6,1,35
1,1,1,0.601800000000338,0.684114268953257,1.07849499999976,43.74,1,36
1,2,2,0.667550000000134,0.787724270484216,1.80282500000065,43.74,1,37
1,1,1,0.673310000000114,0.60785017628486,1.01940000000014,39.366,1,38
1,1,1,0.605870000000315,0.555176296589678,1.01427999999942,39.366,1,39
1,2,2,0.759879999999597,0.488294612503031,1.94069000000038,35.4294,1,40
1,1,1,0.725574999999459,0.356714611366997,1.02494500000012,35.4294,1,41
1,2,2,0.776135000000068,0.231292517006802,2.12839499999973,31.88646,1,42
1,1,1,0.746575000000128,0.074829931972789,1.90849999999959,31.88646,1,43
1,2,1,0.834654999999679,0.177521410593649,1.09961999999994,28.697814,0,44
1,2,1,1.25647000000026,0.309408711254276,1.37426000000047,31.88646,0,45
1,1,1,0.702540000000212,0.259884628996345,1.12222999999992,35.4294,1,46
1,1,1,0.756820000000531,0.105418878787682,1.09735499999986,35.4294,1,47
1,2,1,0.8034449999996,0,1.92540000000008,31.88646,0,48
1,1,1,1.49345999999973,0,1.93506499999965,35.4294,1,49
1,2,2,0.924420000000275,0.073336715402322,2.16275999999925,35.4294,1,50
1,1,1,0.773290000000095,0,1.04667500000051,31.88646,1,51
1,2,2,1.20038999999996,0.111313492411828,1.20504499999969,31.88646,1,52
1,2,1,0.821500000000058,0,1.11117999999988,28.697814,0,53
1,1,1,0.721424999999756,0.383112429389869,2.0115999999998,31.88646,1,54
1,1,1,0.691224999999627,0.551753647530275,2.06409000000072,31.88646,1,55
1,2,1,1.35295000000042,0.01360544217687,1.13381500000012,28.697814,0,56
1,1,1,1.2536399999999,0.121837774943451,5.58163500000047,31.88646,1,57
1,2,1,1.26068000000028,0.222215179999965,1.86812999999983,31.88646,0,58
1,2,2,0.700460000000021,0.364116758745216,1.21554999999987,35.4294,1,59
1,1,1,1.62979499999987,0.374865240556202,1.02417500000045,35.4294,1,60
1,1,1,2.27423499999987,0.435374149659863,1.35959500000079,31.88646,1,61
1,2,1,0.791669999999634,0.244897959183673,1.53417999999964,31.88646,0,62
1,2,1,1.16823000000021,0,1.42953500000021,35.4294,0,63
1,1,1,0.750984999999695,0.451009109149045,1.14274500000005,39.366,1,64
1,2,1,1.02797999999986,0.077471220961927,1.08133999999973,39.366,0,65
1,1,1,1.04186000000028,0,1.27821499999939,43.74,1,66
1,2,2,0.687539999999921,0.530302959284515,2.33157500000013,43.74,1,67
1,1,1,0.730119999999239,0.343192399398537,1.01965500000009,39.366,1,68
1,2,1,0.708365000000398,0.215046161577303,2.71571499999939,39.366,0,69
1,1,1,0.61740499999997,0.801447779694634,1.52887000000011,43.74,1,70
1,1,1,0.753600000000035,0.510239511510584,0.965119999999821,43.74,1,71
1,2,1,0.851415000000095,0.510239511510584,0.904929999999702,39.366,0,72
1,2,2,0.721884999999893,0.058139955138696,1.27949999999965,43.74,1,73
1,1,1,1.9929149999998,0.306946265437184,0.800634999999602,43.74,1,74
1,1,1,0.740229999999399,0.866241177729995,1.25912500000052,39.366,1,75
1,2,2,1.08516000000056,0.435374149659863,1.13354499999969,39.366,1,76
1,1,1,1.86991500000021,0.872664034471996,1.01460500000033,35.4294,1,77
1,2,2,1.27612500000035,0.040311728133826,1.14206999999989,35.4294,1,78
1,2,1,1.81460500000045,0.289798057582526,1.33804999999941,31.88646,0,79
1,1,1,1.32001000000036,0.804505730350055,1.18902999999956,35.4294,1,80
1,1,1,1.04527500000037,0.054421768707482,1.44541499999928,35.4294,1,81
1,2,2,1.81135999999975,0.84013016969733,1.35847000000009,31.88646,1,82
1,2,2,0.656864999999932,0.74410917077587,1.53122999999957,31.88646,1,83
1,1,1,0.648090000000608,0.883339590374589,1.11981999999989,28.697814,1,84
1,2,2,0.82373000000004,0,1.32521000000002,28.697814,1,85
1,1,1,0.706435000000056,0.816712422978259,2.22455499999982,25.8280326,1,86
1,2,1,0.872504999999364,0.271271598781616,1.61413000000082,25.8280326,0,87
1,1,1,0.653924999999581,0.966007261604079,1.09878500000015,28.697814,1,88
1,1,1,0.741289999999979,0.578680388965864,1.0077350000001,28.697814,1,89
1,2,2,1.20141000000061,0.021678729557113,1.03178499999922,25.8280326,1,90
1,1,1,0.653875,0.930852770446196,1.36056499999994,25.8280326,1,91
1,2,2,0.996439999999886,0.243942012947741,1.16957000000001,23.24522934,1,92
1,2,1,0.688595000000496,0.339704703427706,0.977864999999874,23.24522934,0,93
1,1,1,0.675655000000028,0.890843131903694,1.79724999999959,25.8280326,1,94
1,2,2,1.00681000000075,0.123840758964798,1.06007499999937,25.8280326,1,95
1,1,1,0.834595000000263,0.840718467860325,1.71958999999968,23.24522934,1,96
2,1,1,0.833240000007208,1,1.39261499996064,74.0740740740741,1,1
2,2,2,0.798910000012256,1,1.81269499997143,66.6666666666667,1,2
2,1,1,1.0610100000049,1,1.84405499999411,66.6666666666667,1,3
2,2,2,1.06161999999313,1,2.61667000001762,60,1,4
2,2,2,1.16918999998597,1,2.33087500004331,60,1,5
2,1,1,0.979210000019521,1,2.02850999997463,54,1,6
2,2,2,0.977489999961108,1,2.17290000000503,54,1,7
2,1,1,0.936939999985043,1,1.75049499998568,48.6,1,8
2,2,2,0.819145000015851,1,0.987239999987651,48.6,1,9
2,1,1,1.25695499998983,1,1.19543000002159,43.74,1,10
2,1,1,0.853890000027604,1,4.18179499998223,43.74,1,11
2,2,2,1.14538000000175,1,1.31742500001565,39.366,1,12
2,2,2,1.35090999997919,1,1.30794000002788,39.366,1,13
2,1,1,2.03554999997141,1,1.73807500000112,35.4294,1,14
2,1,1,0.848964999953751,0.420168209430164,4.02014500001678,35.4294,1,15
2,2,1,0.920199999993201,0.792387127655821,2.08285000000615,31.88646,0,16
2,2,1,1.38599500001874,0,1.76594499999192,35.4294,0,17
2,1,1,1.05188499996439,0.259942077362924,1.4192950000288,39.366,1,18
2,1,1,0.927835000038613,0.561117675686267,1.87708499998553,39.366,1,19
2,2,2,1.26477499998873,0,1.40206000005128,35.4294,1,20
2,2,1,0.977325000043493,0,1.43009499995969,35.4294,0,21
2,1,1,0.985189999977592,0.637590203856973,1.44244499999331,39.366,1,22
2,1,1,0.720785000012256,0.595637686122726,1.49945499998285,39.366,1,23
2,2,1,1.18681499996455,0,1.45008999999845,35.4294,0,24
2,1,1,1.01480499998434,0.074936198552137,1.70632499997737,39.366,1,25
2,2,1,1.35371500003384,0,2.44779999996535,39.366,0,26
2,1,1,0.944385000038892,0.01226876531961,1.75732500001322,43.74,1,27
2,2,2,0.760345000016969,0.394557823129251,1.29687999997986,43.74,1,28
2,2,2,0.815025000018068,0.051943143718045,1.18588000000454,39.366,1,29
2,1,1,0.834524999954738,0.258733935867903,1.20909000001848,39.366,1,30
2,2,1,0.94410500000231,0,1.24382500001229,35.4294,0,31
2,1,1,0.929799999983516,0.292729539961418,1.1881150000263,39.366,1,32
2,1,1,0.850564999971539,0.35934772313719,2.14367499999935,39.366,1,33
2,2,2,0.691229999996722,0,1.23318500001915,35.4294,1,34
2,2,1,0.822095000010449,0.295113431369248,1.32844000001205,35.4294,0,35
2,1,1,0.83346499997424,0.163567500123951,1.69011000002502,39.366,1,36
2,2,2,0.819145000015851,0,1.30904999998165,39.366,1,37
2,1,1,0.815980000013951,0.312925170068027,1.23641499999212,35.4294,1,38
2,1,1,0.799434999993537,0,1.29051000002073,35.4294,1,39
2,2,2,0.968190000043251,0.180540525823257,1.32211000000825,31.88646,1,40
2,1,1,0.799355000024661,0,1.34193999995477,31.88646,1,41
2,2,1,1.40986999997403,0,1.15302999998676,28.697814,0,42
2,2,2,1.02439500001492,0,1.22687499999302,31.88646,1,43
2,1,1,0.701865000010002,0.137626233035214,1.15656500001205,31.88646,1,44
2,2,1,1.0667249999824,0,1.18921500002034,28.697814,0,45
2,1,1,0.844419999979436,0.085819541686688,1.18070500000613,31.88646,1,46
2,2,2,0.785950000048615,0,1.13192999997409,31.88646,1,47
2,1,1,0.683254999981727,0.444111655948584,1.40954500000225,28.697814,1,48
2,2,1,1.58168999996269,0.578744522785094,1.30203500000061,28.697814,0,49
2,1,1,0.814980000024661,0.240094365851362,0.943175000022165,31.88646,1,50
2,2,1,1.17827500001295,0,0.992254999990109,31.88646,0,51
2,1,1,0.79281000001356,0.754612317499915,1.84613000001991,35.4294,1,52
2,2,2,0.655540000007022,0.140335487027192,1.0980199999758,35.4294,1,53
2,1,1,0.760009999969043,0.225370574223792,1.12963000003947,31.88646,1,54
2,2,2,0.584310000005644,0.251524708588727,1.86312499997439,31.88646,1,55
2,1,1,0.642649999994319,0.319927927937277,1.95049499999732,28.697814,1,56
2,1,1,0.881584999966435,0.54192383304681,1.48568500002148,28.697814,1,57
2,2,1,0.81618999998318,0.054421768707482,1.25608500000089,25.8280326,0,58
2,2,1,0.97714500001166,0.312315563491703,1.28445999999531,28.697814,0,59
2,1,1,0.865610000037123,0.451009109149045,1.22042499994859,31.88646,1,60
2,2,1,1.10250999999698,0.66090097892473,1.17164000001503,31.88646,0,61
2,1,1,0.772660000016913,0.340901950954041,1.18551499996101,35.4294,1,62
2,2,2,1.48164499999257,0.076207376708906,1.26889000000665,35.4294,1,63
2,1,1,0.739704999956302,0.485686308533076,1.33418000000529,31.88646,1,64
2,1,1,0.997910000034608,0.469538908023232,1.76698000001488,31.88646,1,65
2,2,2,0.72734500002116,0.771773703889632,1.47212499997113,28.697814,1,66
2,2,1,0.81576500000665,0.030311864780378,1.7470650000032,28.697814,0,67
2,1,1,0.835655000002589,0.286738868131889,1.17214999999851,31.88646,1,68
2,1,1,0.682400000048801,0.432606421294057,1.13694499997655,31.88646,1,69
2,2,2,0.635209999978542,0.368976987917732,1.23515000002226,28.697814,1,70
2,1,1,0.951269999961369,0.457172165202719,1.12247500004014,28.697814,1,71
2,2,2,0.652490000007674,0.578231292517006,1.16626500000712,25.8280326,1,72
2,1,1,0.647274999995716,0.521897856118462,1.12718499999028,25.8280326,1,73
2,2,1,0.902395000040997,0.461667117361602,1.28617999999551,23.24522934,0,74
2,1,1,0.614094999968074,0.485354905067493,1.08669000002556,25.8280326,1,75
2,2,2,0.971844999992754,0,1.29966999997851,25.8280326,1,76
2,2,2,0.814045000006445,0.537312917515858,1.20234499999788,23.24522934,1,77
2,1,1,0.858439999981783,0.354858495886812,1.00778499996522,23.24522934,1,78
2,2,1,0.800585000019055,0.003677953935632,1.46893999999156,20.920706406,0,79
2,1,1,0.738970000005793,0.593849598404401,1.16378999996232,23.24522934,1,80
2,2,1,1.0158100000117,0,1.07670000003418,23.24522934,0,81
2,1,1,0.733935000025667,0,1.00451499997871,25.8280326,1,82
2,1,1,0.878054999979213,0.532636276860212,1.17543000000296,25.8280326,1,83
2,2,1,0.87320999999065,0,1.9159750000108,23.24522934,0,84
2,1,1,0.805374999996275,0,1.16417500004172,25.8280326,1,85
2,2,2,0.722940000006929,0,1.0844700000016,25.8280326,1,86
2,1,1,1.83844500000123,0.594163611777538,0.897004999977071,23.24522934,1,87
2,2,2,0.907810000004247,0,1.31989499996416,23.24522934,1,88
2,2,2,0.696475000004284,0.088835188652059,1.61514999996871,20.920706406,1,89
2,1,1,0.59006000001682,0.400211371735157,1.21422999998322,20.920706406,1,90
2,1,1,1.13608500000555,0,1.10200999997323,18.8286357654,1,91
2,2,2,0.738684999989346,0,1.16647500003455,18.8286357654,1,92
2,1,1,0.682354999997187,0.361554419371881,1.13650500000222,16.94577218886,1,93
2,2,1,0.79228500003228,0,1.39383999997517,16.94577218886,0,94
2,2,1,0.690560000017285,0,1.16425999999046,18.8286357654,0,95
2,1,1,0.701130000001285,0.226750413801527,1.15350499999477,20.920706406,1,96
3,2,2,0.787845000013476,0.838834672766109,1.98601500000223,48.6,1,1
3,1,1,0.721820000006119,0.989096022854502,2.62338500001351,48.6,1,2
3,1,1,0.969634999986738,0.596389271250477,1.32717000000412,43.74,1,3
3,2,2,0.724970000010217,0.588079331140642,1.31065499997931,43.74,1,4
3,1,1,0.722565000003669,1,2.11884499998996,39.366,1,5
3,2,2,0.69662000000244,0.997993866071321,1.40376499999547,39.366,1,6
3,2,2,0.888085000013234,0.434372882601263,1.421875,35.4294,1,7
3,1,1,0.712040000013076,0.631727577618491,1.09085999999661,35.4294,1,8
3,2,2,0.721510000003036,0.591238103307154,1.55782499999623,31.88646,1,9
3,1,1,0.744445000018459,0.857859893792287,1.26632999998401,31.88646,1,10
3,2,2,1.09199500002433,0.245851554480589,1.28350999997929,28.697814,1,11
3,1,1,0.703504999983124,0.968404358372406,2.16409000000567,28.697814,1,12
3,1,1,0.673895000014454,0.970235171987035,1.36999000000651,25.8280326,1,13
3,2,2,0.85376999998698,0.304521987685915,1.33202500001062,25.8280326,1,14
3,2,2,0.807220000016969,0.277647876476886,1.15317499998491,23.24522934,1,15
3,1,1,0.674170000012964,0.765350708477748,1.05036500000278,23.24522934,1,16
3,2,2,0.770789999980479,0.689330046186526,1.04338499999722,20.920706406,1,17
3,1,1,0.653229999996256,1,1.82069500000216,20.920706406,1,18
3,1,1,0.659524999995483,1,3.11445500000264,18.8286357654,1,19
3,2,2,0.705825000011828,0.328105413079482,1.37526999998954,18.8286357654,1,20
3,1,1,0.636030000023311,0.430552122799633,2.61950499998056,16.94577218886,1,21
3,2,2,0.754799999995157,0.352621979173609,2.31171000000904,16.94577218886,1,22
3,2,1,0.799414999986766,0.180540525823257,1.15466000000015,15.251194969974,0,23
3,1,1,0.696934999985388,0.803112530928226,1.8766750000068,16.94577218886,1,24
3,2,2,1.28210000001127,0.125570335468691,1.45094499998959,16.94577218886,1,25
3,1,1,0.645244999992428,0.986722352227908,1.51640500000212,15.251194969974,1,26
3,1,1,0.587479999987409,0.97670211408184,1.75774500000989,15.251194969974,1,27
3,2,2,0.887699999992037,0.382055557111848,1.27384999999776,13.7260754729766,1,28
3,1,1,0.701585000002524,0.991627902935127,1.82421500000055,13.7260754729766,1,29
3,2,2,0.682135000010021,0.497177332589881,1.18938499997603,12.3534679256789,1,30
3,1,1,0.603144999971846,0.995232199260134,2.14227500002016,12.3534679256789,1,31
3,2,2,0.890429999999469,0.291079685273933,1.51872000002186,11.1181211331111,1,32
3,2,2,0.73175999999512,0.329430066876456,1.40242499997839,11.1181211331111,1,33
3,1,1,0.506005000002915,0.989525207174402,1.87924999999814,10.0063090197999,1,34
3,1,1,0.592029999999795,0.970235171987035,1.12590499999351,10.0063090197999,1,35
3,2,2,0.671399999991991,0.368615203719303,1.36494500000845,9.00567811781995,1,36
3,1,1,0.613909999985481,0.994500047355977,2.07360000000335,9.00567811781995,1,37
3,2,2,0.805989999993471,0.36511985585291,1.23716499999864,8.10511030603796,1,38
3,2,2,0.894020000007004,0.190684372030782,1.1403949999949,8.10511030603796,1,39
3,1,1,0.603390000003856,0.994561078015067,2.10784499999136,7.29459927543416,1,40
3,2,2,0.70329999999376,0.123840758964798,1.34995999999228,7.29459927543416,1,41
3,1,1,0.601629999990109,0.988482619963207,2.3255750000244,6.56513934789075,1,42
3,2,2,0.793839999998454,0.348118383014044,1.35123499998008,6.56513934789075,1,43
3,1,1,0.569524999998976,0.80007460120492,1.09686499999953,5.90862541310167,1,44
3,2,2,0.651949999999488,0.244897959183673,1.38003000000026,5.90862541310167,1,45
3,1,1,0.6186699999962,0.990444340554169,1.80402999999933,5.3177628717915,1,46
3,1,1,0.639499999990221,0.785334202444312,1.38086999999359,5.3177628717915,1,47
3,2,2,1.5599649999931,0.159079469675811,1.34359000000404,4.78598658461235,1,48
3,1,1,0.631309999997029,0.985984680962804,1.91989499999909,4.78598658461235,1,49
3,2,2,0.59492499998305,0.53057788684433,1.21865500000422,4.30738792615112,1,50
3,1,1,0.604720000002999,0.994194844923705,1.75300499997684,4.30738792615112,1,51
3,2,2,0.624745000008261,0.510239511510584,1.28932499999064,3.87664913353601,1,52
3,2,2,0.594825000007404,0.469538908023232,1.92625999997836,3.87664913353601,1,53
3,1,1,0.668865000014193,0.995394835728702,2.1142600000021,3.48898422018241,1,54
3,2,2,0.660269999993034,0.457172165202719,1.21557500000927,3.48898422018241,1,55
3,1,1,0.883739999990212,0.279788423592083,1.13205500002368,3.14008579816417,1,56
3,1,1,0.541984999988927,0.983193561717472,2.14051500000642,3.14008579816417,1,57
3,2,2,0.659435000008671,0.170068027210884,1.2031100000022,2.82607721834775,1,58
3,1,1,0.595425000006799,0.453691463085544,1.06682499998715,2.82607721834775,1,59
3,2,2,0.549679999996442,0.680693657165799,1.31836999999359,2.54346949651297,1,60
3,1,1,0.574824999988778,1,1.69997000001604,2.54346949651297,1,61
3,2,2,0.8344550000038,0.313736712776866,1.29587000000174,2.28912254686168,1,62
3,1,1,0.546195000002626,0.995618422937253,2.03226000000723,2.28912254686168,1,63
3,2,2,0.564174999977695,1,1.3745400000189,2.06021029217551,1,64
3,1,1,0.622149999981048,0.992280374618566,1.34812999999849,2.06021029217551,1,65
3,2,2,0.910914999985835,0.537312917515858,1.19959500001278,1.85418926295796,1,66
3,2,2,0.573424999980489,0.402889010071607,1.42727000001469,1.85418926295796,1,67
3,1,1,0.983184999990044,0.987561891527491,1.37907500000438,1.66877033666216,1,68
3,2,2,0.564075000002049,0.555043691451809,1.24417499999981,1.66877033666216,1,69
3,1,1,0.568345000006957,1,1.47495999999228,1.50189330299595,1,70
3,2,2,0.680770000006305,0.360728041450931,1.17687999998452,1.50189330299595,1,71
3,1,1,0.548754999996163,0.608527960352874,2.41646000000765,1.35170397269635,1,72
3,1,1,0.500850000011269,0.997993866071321,1.6136150000093,1.35170397269635,1,73
3,2,2,0.688580000016373,0.333527657143172,1.23092000000179,1.21653357542672,1,74
3,1,1,0.596799999999348,0.443598967680334,1.76588500000071,1.21653357542672,1,75
3,2,2,0.623364999977639,0.41645727322706,1.91515500002424,1.09488021788405,1,76
3,1,1,0.549640000012005,0.976536761755577,1.56396499997936,1.09488021788405,1,77
3,2,2,0.659425000019837,0.524676653889973,1.28228999997373,0.98539219609564,1,78
3,1,1,0.709475000010571,0.990403506011363,1.86012499997742,0.98539219609564,1,79
3,2,2,1.00320999999531,0.171248881105175,1.33217499998864,0.886852976486076,1,80
3,2,2,0.673790000000736,0.218712442610022,1.33355000001029,0.886852976486076,1,81
3,1,1,0.491700000013225,0.408499099808221,1.0610250000027,0.798167678837469,1,82
3,1,2,0.737664999993285,0.395074237373311,1.5781399999978,0.798167678837469,0,83
3,2,2,0.709470000001602,0.381658680985067,1.04236500000115,0.886852976486076,1,84
3,1,2,0.722370000003139,0.279788423592083,1.12388499997905,0.886852976486076,0,85
3,2,2,0.839574999990873,0.235229747798374,1.24965000001248,0.98539219609564,1,86
3,2,2,0.70623500001966,0.149738954661313,1.39567499997793,0.98539219609564,1,87
3,1,1,0.502529999997932,0.719023725970713,1.11964000001899,0.886852976486076,1,88
3,1,2,1.02685000002384,0.168065166857862,1.22149499997613,0.886852976486076,0,89
3,2,2,0.697404999984428,0.105418878787682,1.27290999999968,0.98539219609564,1,90
3,2,2,0.733700000011595,0,1.2873799999943,0.98539219609564,1,91
3,1,1,0.549144999997225,0.714717524316703,1.03358000001754,0.886852976486076,1,92
3,2,1,1.02487500000279,0.228499158202889,1.39002500000061,0.886852976486076,0,93
3,1,1,0.738545000000158,0.537551006805441,1.58289499999955,0.98539219609564,1,94
3,2,2,0.770484999986365,0.221771245802922,1.41393000000971,0.98539219609564,1,95
3,1,1,0.584304999996675,0.946343268551044,1.2550549999869,0.886852976486076,1,96
4,1,1,1.043,0.860492331184689,1.092,48.6,1,1
4,2,1,1.276,1,1.028,48.6,0,2
4,1,1,0.504,1,1.244,54,1,3
4,2,2,0.571,1,1.24,54,1,4
4,1,1,0.433,0.962998352872442,1.051,48.6,1,5
4,2,1,1.295,1,0.901,48.6,0,6
4,1,1,1.648,0.989668232471116,1.291,54,1,7
4,2,2,1.916,1,0.614,54,1,8
4,1,1,0.454,1,0.978,48.6,1,9
4,2,2,1.404,1,0.778,48.6,1,10
4,2,2,0.855,0.986476515344061,1.549,43.74,1,11
4,1,1,0.397,1,0.999,43.74,1,12
4,2,2,0.688,0.9888098095479,1.326,39.366,1,13
4,1,1,0.656,1,1.052,39.366,1,14
4,1,1,0.577,0.978519380460511,0.996,35.4294,1,15
4,2,2,0.84,1,0.847,35.4294,1,16
4,2,1,1.292,0.939716358016295,0.845,31.88646,0,17
4,1,1,0.467,1,0.935,35.4294,1,18
4,2,1,0.858,1,1.447,35.4294,0,19
4,1,1,0.555,1,1.132,39.366,1,20
4,1,1,0.378,1,1.086,39.366,1,21
4,2,1,0.471,0.989279978914102,1.057,35.4294,0,22
4,1,1,1.212,1,0.999,39.366,1,23
4,2,1,1.102,1,0.994,39.366,0,24
4,2,1,0.813,0.999453221971961,1.262,43.74,0,25
4,1,1,0.429,1,0.979,48.6,1,26
4,1,1,0.674,1,0.86,48.6,1,27
4,2,1,0.87,1,0.921,43.74,0,28
4,1,1,0.603,1,0.92,48.6,1,29
4,2,1,0.587,0.988380353810718,0.994,48.6,0,30
4,1,1,0.485,0.989279978914102,1.031,54,1,31
4,2,1,0.714,1,1.015,54,0,32
4,2,2,0.684,1,0.95,60,1,33
4,1,1,0.451,1,1.073,60,1,34
4,2,2,0.58,0.962475138441178,1.206,54,1,35
4,1,1,0.464,1,0.858,54,1,36
4,2,2,0.497,1,0.768,48.6,1,37
4,1,1,0.702,1,1.151,48.6,1,38
4,2,2,0.988,0.998399429898184,0.864,43.74,1,39
4,1,1,0.593,1,1.016,43.74,1,40
4,1,1,0.693,0.992728731435713,1.117,39.366,1,41
4,2,2,0.571,1,1.034,39.366,1,42
4,2,2,0.726,1,1.018,35.4294,1,43
4,1,1,0.821,1,0.878,35.4294,1,44
4,2,2,1.463,1,0.926,31.88646,1,45
4,1,2,1.905,1,0.818,31.88646,0,46
4,2,2,1.626,0.987561891527491,0.852,35.4294,1,47
4,1,1,0.917,1,0.813,35.4294,1,48
4,1,1,0.896,1,0.958,31.88646,1,49
4,2,1,0.67,1,0.974,31.88646,0,50
4,1,2,1.492,1,1.152,35.4294,0,51
4,2,2,1.591,1,0.86,39.366,1,52
4,2,2,0.743,0.992952843474086,0.889,39.366,1,53
4,1,2,1.019,0.979179474862,1.17,35.4294,0,54
4,2,2,0.857,1,1.085,39.366,1,55
4,1,1,0.791,0.989852095601817,0.977,39.366,1,56
4,1,1,0.969,1,0.934,35.4294,1,57
4,2,2,1.264,0.995659070439481,0.987,35.4294,1,58
4,1,1,1.973,1,0.923,31.88646,1,59
4,2,2,1.429,0.965005200035332,0.792,31.88646,1,60
4,1,1,1.22,1,0.831,28.697814,1,61
4,2,2,1.18,0.983378481868363,0.923,28.697814,1,62
4,1,2,1.642,1,1.072,25.8280326,0,63
4,2,2,1.343,0.999230385504726,1.117,28.697814,1,64
4,1,1,0.714,1,0.948,28.697814,1,65
4,2,2,1.482,1,1.179,25.8280326,1,66
4,1,1,1.256,0.98436421033077,0.952,25.8280326,1,67
4,2,2,1.028,0.96855010168214,0.854,23.24522934,1,68
4,2,2,1.077,1,1.075,23.24522934,1,69
4,1,2,1.595,1,1.073,20.920706406,0,70
4,2,2,1.344,0.975875108054346,0.946,23.24522934,1,71
4,1,2,1.892,1,0.859,23.24522934,0,72
4,2,2,1.289,0.994561078015067,0.913,25.8280326,1,73
4,1,1,1.416,1,0.976,25.8280326,1,74
4,1,1,0.931,0.991954185670028,0.918,23.24522934,1,75
4,2,2,1.097,1,0.941,23.24522934,1,76
4,1,1,1.421,0.986578953881911,0.96,20.920706406,1,77
4,2,2,0.987,1,1.001,20.920706406,1,78
4,1,1,0.907,0.986578953881911,1.049,18.8286357654,1,79
4,2,2,1.531,1,0.834,18.8286357654,1,80
4,1,1,0.875,1,1.365,16.94577218886,1,81
4,2,2,1.304,0.993706350563004,1.137,16.94577218886,1,82
4,1,1,1.062,1,0.865,15.251194969974,1,83
4,2,2,0.867,1,1.033,15.251194969974,1,84
4,2,2,1.18,0.983707153855727,0.861,13.7260754729766,1,85
4,1,2,1.273,0.99563874686977,0.846,13.7260754729766,0,86
4,2,2,1.195,1,1.006,15.251194969974,1,87
4,1,2,1.089,1,0.955,15.251194969974,0,88
4,2,2,1.136,0.986415047760997,1.033,16.94577218886,1,89
4,1,2,1.461,0.989198224355809,0.908,16.94577218886,0,90
4,1,1,1.25,1,0.884,18.8286357654,1,91
4,2,2,1.054,1,0.821,18.8286357654,1,92
4,1,2,1.105,0.980436705327402,0.944,16.94577218886,0,93
4,2,2,1.243,0.992402671311471,0.796,18.8286357654,1,94
4,2,2,1.402,1,1.066,18.8286357654,1,95
4,1,1,0.9,0.989668232471116,0.797,16.94577218886,1,96
5,2,1,0.999939999892376,0.617710196428499,0.847490000072867,48.6,0,1
5,1,1,0.515985000063665,0.785633297407597,0.575330000021495,54,1,2
5,1,1,0.55058999999892,1,0.735970000037923,54,1,3
5,2,1,0.67566499998793,0.843255882882098,0.703159999917261,48.6,0,4
5,1,1,0.540024999994785,0.604606831205577,0.559744999976829,54,1,5
5,2,1,0.655989999999292,0.710416707978222,0.510905000031926,54,0,6
5,2,2,0.58832999994047,0.630741168752625,0.598890000022948,60,1,7
5,1,1,0.992179999942891,0.868828936525774,0.599285000003874,60,1,8
5,1,1,1.41655500000343,0.780034208538368,0.743384999921545,54,1,9
5,2,2,0.626825000043027,0.908487940517117,0.518700000015087,54,1,10
5,1,1,0.66148000000976,0.795079976610838,0.535275000031106,48.6,1,11
5,2,1,0.970074999961071,0.817507836276506,1.04677000001539,48.6,0,12
5,1,1,0.47238000005018,0.404286352859806,0.918789999908768,54,1,13
5,2,1,0.929375000065193,0.496815710731843,0.623904999927618,54,0,14
5,1,1,0.803799999994226,0.14009026317123,0.696620000060648,60,1,15
5,2,1,0.721460000029765,0.47824284138848,0.461784999934025,60,0,16
5,1,1,0.507140000001527,0.881534176004411,0.605265000020154,66.6666666666667,1,17
5,2,2,0.538034999975935,0.648279139429456,0.670875000068918,66.6666666666667,1,18
5,2,2,1.06053000001702,1,1.02312000002712,60,1,19
5,1,1,0.474369999952614,1,0.470205000019632,60,1,20
5,2,2,0.6623799999943,1,0.83055999991484,54,1,21
5,1,1,0.650755000067875,1,0.839959999895655,54,1,22
5,2,2,0.718869999982417,0.857513004751887,0.607609999948181,48.6,1,23
5,1,1,0.657510000048205,0.52951191635707,0.527639999985695,48.6,1,24
5,2,2,0.533189999987371,0.878049764735822,0.433035000110976,43.74,1,25
5,1,1,0.570320000057109,0.702050675285079,0.598739999928512,43.74,1,26
5,1,1,0.773165000020526,0.84013016969733,0.511580000049435,39.366,1,27
5,2,2,0.512254999950528,0.853805342618349,0.679470000090078,39.366,1,28
5,2,2,0.781014999956824,0.877324237837684,0.671270000049844,35.4294,1,29
5,1,1,0.482809999957681,0.806823187507274,0.503420000080951,35.4294,1,30
5,1,1,0.477889999980107,0.734799339757915,0.551390000036918,31.88646,1,31
5,2,2,0.70563499990385,0.264000178348453,0.711300000082701,31.88646,1,32
5,1,1,0.985169999999925,0.84840459990213,0.871444999938831,28.697814,1,33
5,2,1,0.600845000008121,1,0.487665000022389,28.697814,0,34
5,2,2,0.644895000034012,0.694430435112636,0.463170000002719,31.88646,1,35
5,1,1,0.593715000082739,0.702570846050123,0.535249999957159,31.88646,1,36
5,2,1,1.63765499996953,0,0.751344999996945,28.697814,0,37
5,1,1,0.628580000018701,0.31575928682131,0.631500000017695,31.88646,1,38
5,2,1,0.754405000014231,0.201605140167949,0.558825000072829,31.88646,0,39
5,1,1,0.69453999993857,0.124620452399149,0.58299500006251,35.4294,1,40
5,2,1,0.625660000019707,0.049191758006708,0.535519999917597,35.4294,0,41
5,1,1,0.501104999915697,0.035706187053152,0.615680000046268,39.366,1,42
5,1,1,0.488560000085272,0.011371211547682,0.535204999963753,39.366,1,43
5,2,2,0.444980000029318,0,0.527309999917634,35.4294,1,44
5,1,1,0.490440000081435,0.138778796523597,0.734034999972209,35.4294,1,45
5,2,2,0.612319999956526,0,0.49577500007581,31.88646,1,46
5,2,1,0.43179499998223,0.079249356698156,0.472010000026785,31.88646,0,47
5,1,2,0.355344999930821,0,0.521165000041947,35.4294,0,48
5,2,2,1.04344499995932,0.073229662234946,0.830889999982901,39.366,1,49
5,1,1,0.595184999983758,0.194889567001534,0.655109999934211,39.366,1,50
5,1,1,0.56495500006713,0.076734862470326,0.455814999993891,35.4294,1,51
5,2,1,10.0102300000144,0.080909989161884,0.735140000004321,35.4294,0,52
5,1,1,0.557419999968261,0.057216886664663,0.470835000043735,39.366,1,53
5,2,2,0.602095000096597,0,0.679275000002235,39.366,1,54
5,2,2,0.581805000081658,0.025432882678271,0.534204999916255,35.4294,1,55
5,1,1,0.441335000097752,0,0.5359499999322,35.4294,1,56
5,2,1,1.0371949999826,0,0.422515000100248,31.88646,0,57
5,1,1,0.681315000052564,0.019413067236415,0.528034999966621,35.4294,1,58
5,1,1,0.526394999935292,0.060087535920765,0.479930000030436,35.4294,1,59
5,2,2,1.04806499998085,0,0.591739999945275,31.88646,1,60
5,2,2,0.46441000001505,0.128058608867209,0.75921000004746,31.88646,1,61
5,1,1,0.380234999931417,0.050632144943236,0.543750000069849,28.697814,1,62
5,1,1,0.528520000050776,0.176581139642827,0.488269999972545,28.697814,1,63
5,2,2,0.746875000069849,0.137626233035214,0.543449999997392,25.8280326,1,64
5,2,1,1.01982500008307,0,1.04682499996852,25.8280326,0,65
5,1,1,0.557135000010021,0,0.502929999958724,28.697814,1,66
5,1,1,0.570055000018328,0,0.662840000004508,28.697814,1,67
5,2,1,0.980945000075735,0,0.655554999946617,25.8280326,0,68
5,1,1,0.499744999920949,0,0.68788000009954,28.697814,1,69
5,2,1,0.487930000061169,0,0.687479999964125,28.697814,0,70
5,2,1,0.699415000039153,0.080909989161884,0.608084999956191,31.88646,0,71
5,1,1,0.463254999951459,0,0.45711499999743,35.4294,1,72
5,1,1,0.330539999995381,0.043939186635999,0.383484999998473,35.4294,1,73
5,2,1,0.412705000024289,0.079977406179036,0.32715000002645,31.88646,0,74
5,2,1,0.489174999995157,0.124879845634754,0.39234999998007,35.4294,0,75
5,1,1,0.454675000044517,0.149343287005639,0.336220000055619,39.366,1,76
5,1,1,0.433745000045747,0.167990739014853,0.465459999977611,39.366,1,77
5,2,1,0.43019500002265,0.106905574839262,0.430775000015274,35.4294,0,78
5,2,1,0.729234999977052,0.167990739014853,0.526945000048727,39.366,0,79
5,1,1,0.564475000021048,0.064820918673112,0.447709999978542,43.74,1,80
5,1,1,0.515030000009574,0.28593019072978,0.447150000021793,43.74,1,81
5,2,2,0.974625000031665,0.38346424854108,0.559065000037663,39.366,1,82
5,2,2,0.679839999997057,0.059173366053299,0.567355000064708,39.366,1,83
5,1,1,0.339959999895655,0.032700515653931,0.735450000036508,35.4294,1,84
5,1,1,0.527449999935925,0.025157673948686,0.487124999985099,35.4294,1,85
5,2,2,0.596260000020266,0.054421768707482,0.759014999959618,31.88646,1,86
5,2,2,0.499729999923147,0.615302994228476,0.872474999981932,31.88646,1,87
5,1,1,0.510939999949187,0.636937680593583,1.02264500001911,28.697814,1,88
5,1,1,0.520194999990053,0.845880398214192,0.455925000016578,28.697814,1,89
5,2,2,1.56561499997042,0,0.725700000068173,25.8280326,1,90
5,1,1,0.562235000077635,0.776139869803149,0.654875000007451,25.8280326,1,91
5,2,2,0.684315000078641,0.66849390761065,0.751619999995455,23.24522934,1,92
5,2,2,0.610345000051893,0.776743943277225,0.439144999952987,23.24522934,1,93
5,1,1,0.519704999984242,0.300312856459927,0.495009999955073,20.920706406,1,94
5,2,2,0.528699999907985,0.577749807162931,0.615575000061654,20.920706406,1,95
5,1,2,1.03134999994654,0.597140093024143,0.535284999990836,18.8286357654,0,96
6,1,1,2.48954499996034,0,1.45440500002587,48.6,1,1
6,2,2,0.770350000006147,0.931525998587209,0.765910000016447,48.6,1,2
6,1,1,1.04501999996137,0.912359805494816,0.982030000013765,43.74,1,3
6,2,2,0.973509999981616,0.747760391644775,1.21686000004411,43.74,1,4
6,2,2,1.35353500000201,0.987546539699859,1.1076549999998,39.366,1,5
6,1,1,0.645979999972042,0.966680013433406,0.810880000004545,39.366,1,6
6,1,1,0.84148499998264,0.962585034013605,0.784274999983609,35.4294,1,7
6,2,2,0.792264999996405,0.934021340662632,1.264765000029,35.4294,1,8
6,2,2,0.757024999998976,0.920463871869846,0.933310000051279,31.88646,1,9
6,1,1,1.13839999999618,0.972171929831089,1.21693499997491,31.88646,1,10
6,2,2,0.772835000010673,0.911504277404025,1.13345999998273,28.697814,1,11
6,1,1,0.972349999996368,0.896296079127325,0.88584499998251,28.697814,1,12
6,1,1,0.742184999980964,0.853602181992534,0.830595000006724,25.8280326,1,13
6,2,2,0.737254999985453,0.871780737030769,0.858194999978878,25.8280326,1,14
6,1,1,0.788179999974091,0.884021435639478,0.802970000018831,23.24522934,1,15
6,2,2,0.741065000009257,0.91741301062783,0.767295000026934,23.24522934,1,16
6,1,1,0.721689999976661,0.961642717154356,1.33357999997679,20.920706406,1,17
6,2,2,0.573889999999665,0.958957942784236,0.916855000017677,20.920706406,1,18
6,1,1,0.50675499998033,0.915315907738634,0.772470000025351,18.8286357654,1,19
6,2,2,0.772095000022091,0.940213180516961,0.952969999983907,18.8286357654,1,20
6,1,1,0.772360000002664,0.946454791593384,0.884230000025127,16.94577218886,1,21
6,2,2,0.621619999990799,0.931267528886947,0.806520000041928,16.94577218886,1,22
6,2,2,0.707350000040606,0.973892974724746,0.831999999994878,15.251194969974,1,23
6,1,1,0.644590000039898,0.960280171733368,0.795999999972992,15.251194969974,1,24
6,1,1,0.795729999954347,0.888809769959848,0.777755000046454,13.7260754729766,1,25
6,2,2,0.722754999995232,0.804926952824183,0.484505000000354,13.7260754729766,1,26
6,2,1,0.795685000019148,0.832930301499192,0.811184999998659,12.3534679256789,0,27
6,1,1,0.906775000039488,0.84593305147417,0.9674750000122,13.7260754729766,1,28
6,2,2,0.622259999974631,0.828986029781889,0.61868500005221,13.7260754729766,1,29
6,1,1,0.757680000038818,0.871985958529126,0.802299999981187,12.3534679256789,1,30
6,2,2,0.773444999998901,0.564732134873628,0.899514999997336,12.3534679256789,1,31
6,1,1,1.05771500000264,0.893151717991792,0.933495000004768,11.1181211331111,1,32
6,1,1,0.743614999984857,0.848573818436255,0.96359499997925,11.1181211331111,1,33
6,2,2,0.653865000000224,0.61786989880276,0.534050000016578,10.0063090197999,1,34
6,1,1,0.557860000000801,0.557963462599705,0.965884999954142,10.0063090197999,1,35
6,2,2,0.84048499999335,0.60384027673128,0.744535000005271,9.00567811781995,1,36
6,2,2,0.739204999990761,0.493233656058964,0.751209999958519,9.00567811781995,1,37
6,1,1,0.721765000023879,0.308294580774861,0.604509999975562,8.10511030603796,1,38
6,2,2,0.773710000037681,0.301525112498542,0.890519999957178,8.10511030603796,1,39
6,1,1,0.722970000002533,0.602071878332264,0.935924999997951,7.29459927543416,1,40
6,1,1,0.756379999977071,0.623053427210951,0.524789999995846,7.29459927543416,1,41
6,2,2,0.67421500000637,0.582462556833428,0.672870000009425,6.56513934789075,1,42
6,2,2,0.758140000049025,0.299646660927132,0.698464999964926,6.56513934789075,1,43
6,1,1,0.677789999986999,0.51127498646527,0.827534999989439,5.90862541310167,1,44
6,1,1,0.629814999992959,0.518066685094183,0.700130000011995,5.90862541310167,1,45
6,2,2,0.724295000021812,0.415225176220386,0.799754999985453,5.3177628717915,1,46
6,2,2,0.721194999990985,0.34024383199146,0.787100000015926,5.3177628717915,1,47
6,1,1,0.572204999974929,0.535140756381574,0.984985000046436,4.78598658461235,1,48
6,1,1,2.16944500000682,0.251891227739452,1.14637999999104,4.78598658461235,1,49
6,2,1,1.05763499997556,0.196001000768218,0.769900000013877,4.30738792615112,0,50
6,2,2,0.740720000001602,0.490061022650625,0.821304999990389,4.78598658461235,1,51
6,1,1,0.778824999986682,0.54372077403685,0.559019999986049,4.78598658461235,1,52
6,1,1,0.788369999965653,0.644563332873275,0.613305000006221,4.30738792615112,1,53
6,2,2,0.770829999994021,0.056782729126927,0.594069999991916,4.30738792615112,1,54
6,1,1,0.78917999996338,0.52993334846437,0.651575000025332,3.87664913353601,1,55
6,2,2,0.743889999983367,0.000202318672197,0.546269999991637,3.87664913353601,1,56
6,2,2,0.701814999978524,0.065959802424092,1.08314000000246,3.48898422018241,1,57
6,1,1,0.705205000005662,0.540342340855916,0.623874999990221,3.48898422018241,1,58
6,1,1,0.772644999960903,0.710396369739645,0.520745000045281,3.14008579816417,1,59
6,2,2,0.745875000022352,0.230131159854784,0.878175000019837,3.14008579816417,1,60
6,2,1,0.705705000029411,0,0.767024999950081,2.82607721834775,0,61
6,1,1,0.85514499997953,0.133742701209686,0.637510000029579,3.14008579816417,1,62
6,1,1,0.623454999993555,0.523401582809929,0.605355000006966,3.14008579816417,1,63
6,2,2,1.02575500000967,0.263673036818245,0.748584999993909,2.82607721834775,1,64
6,2,2,0.708885000029113,0.028329653498797,0.56240999995498,2.82607721834775,1,65
6,1,2,0.93911500001559,0,1.2037999999593,2.54346949651297,0,66
6,2,2,0.787990000040736,0,0.918955000001006,2.82607721834775,1,67
6,1,1,0.615084999997634,0,0.728295000037178,2.82607721834775,1,68
6,2,2,0.779864999989513,0,0.668424999981653,2.54346949651297,1,69
6,1,2,0.917384999978822,0,0.8636149999802,2.54346949651297,0,70
6,1,1,0.759465000010096,0.194358208454533,0.709419999970123,2.82607721834775,1,71
6,2,1,0.791800000006333,0.371468612341847,0.441894999996293,2.82607721834775,0,72
6,1,1,0.79045499995118,0.378128708752918,0.487760000047274,3.14008579816417,1,73
6,2,2,0.567949999996927,0.061252832499013,0.531185000028927,3.14008579816417,1,74
6,2,2,0.661190000013448,0.088460382801623,0.735329999995884,2.82607721834775,1,75
6,1,1,0.660245000035502,0.293167562424663,0.519860000000335,2.82607721834775,1,76
6,2,2,0.600380000018049,0.136075161000964,0.554854999994859,2.54346949651297,1,77
6,1,1,0.656640000001062,0.354684130050971,0.515514999977313,2.54346949651297,1,78
6,1,1,0.604489999997895,0.357096577986889,0.959259999974165,2.28912254686168,1,79
6,2,2,0.690994999953546,0.204231660238672,0.839670000015758,2.28912254686168,1,80
6,1,1,0.717029999999795,0.782619247007833,0.733340000035241,2.06021029217551,1,81
6,2,2,0.629635000019334,0.728216616472246,0.495890000020154,2.06021029217551,1,82
6,2,2,1.0743599999696,0,1.01717000000644,1.85418926295796,1,83
6,1,1,0.624994999961928,0.414976356299829,0.454625000013039,1.85418926295796,1,84
6,1,2,0.72968500002753,4.048665034e-05,0.470065000001341,1.66877033666216,0,85
6,2,2,0.715154999983497,0,0.450104999996256,1.85418926295796,1,86
6,1,1,0.533909999998286,0.221279115920709,1.07053999998607,1.85418926295796,1,87
6,2,2,0.619484999973793,0,0.468690000008792,1.66877033666216,1,88
6,2,2,0.779339999950025,0.212857526640206,0.740120000031311,1.66877033666216,1,89
6,1,1,0.650075000012293,0.450161069521595,0.594005000020843,1.50189330299595,1,90
6,2,2,0.504109999979846,0.382286929672789,0.501035000022966,1.50189330299595,1,91
6,1,1,0.36498999997275,0.598647257026926,0.560645000019576,1.35170397269635,1,92
6,1,1,0.586944999988191,0.530826943033288,0.807380000012927,1.35170397269635,1,93
6,2,2,0.59301500004949,0.113962471850512,0.492089999956079,1.21653357542672,1,94
6,1,1,0.503665000025649,0.714454415964861,0.468605000001844,1.21653357542672,1,95
6,2,2,0.595499999995809,0.020726730019197,0.41970000002766,1.09488021788405,1,96
7,2,2,0.847965000000841,1,2.09083999999712,48.6,1,1
7,1,1,0.75159999999596,1,1.0734500000035,48.6,1,2
7,2,2,0.83914999999979,1,1.02765499999805,43.74,1,3
7,1,1,0.709020000002056,1,1.57421500000055,43.74,1,4
7,1,1,0.829639999996289,1,1.46344000000681,39.366,1,5
7,2,2,0.996129999999539,1,1.22138000000268,39.366,1,6
7,1,1,0.825024999998277,1,1.43289999999979,35.4294,1,7
7,2,2,1.40688999999838,0.570910080686597,3.84870999999839,35.4294,1,8
7,2,2,1.74051999999938,0.769113525162932,1.75568499999645,31.88646,1,9
7,1,1,0.798235000002023,1,1.08955499999865,31.88646,1,10
7,1,1,0.745050000004994,1,1.38483499999711,28.697814,1,11
7,2,2,1.00617999999668,1,1.59238500000356,28.697814,1,12
7,2,2,1.0786750000043,0.933349673500141,1.45859499999642,25.8280326,1,13
7,1,1,0.876065000004019,1,1.58247499999561,25.8280326,1,14
7,2,2,1.00891000000411,0.670544647230695,1.59677499999816,23.24522934,1,15
7,1,1,0.717510000002221,1,0.974060000000463,23.24522934,1,16
7,2,2,1.89904999999999,0.497899964044441,2.81204000000434,20.920706406,1,17
7,1,1,0.844994999999471,1,1.92721500000334,20.920706406,1,18
7,1,1,0.690495000002556,1,1.34824999999546,18.8286357654,1,19
7,2,2,2.51753999999346,0.589723592460871,1.55311000000074,18.8286357654,1,20
7,2,2,1.17222000000038,0.411512455289233,1.63697500000126,16.94577218886,1,21
7,1,1,0.767939999997907,1,0.985399999997753,16.94577218886,1,22
7,1,1,1.40873500000453,1,1.12693499999295,15.251194969974,1,23
7,2,1,1.24543499999709,1,1.09770000000572,15.251194969974,0,24
7,1,1,0.769249999997555,1,1.52005500000087,16.94577218886,1,25
7,2,1,0.825864999998885,1,1.19193500000256,16.94577218886,0,26
7,2,1,1.11198000000149,1,1.19828000000416,18.8286357654,0,27
7,1,1,0.821134999998321,1,1.09918499999912,20.920706406,1,28
7,1,1,0.710285000001022,1,0.955819999995583,20.920706406,1,29
7,2,1,1.70142499999929,0.334546559442795,1.51264500000252,18.8286357654,0,30
7,1,1,0.794369999995979,1,1.12681999999768,20.920706406,1,31
7,2,1,2.35006499999872,0.330506673662987,1.63943999999901,20.920706406,0,32
7,2,1,1.37342000000353,1,1.05098999999609,23.24522934,0,33
7,1,1,0.689055000002554,1,1.55013999999937,25.8280326,1,34
7,1,1,0.750399999997171,1,1.13493999999628,25.8280326,1,35
7,2,2,1.00106499999674,1,1.24045000000478,23.24522934,1,36
7,1,1,0.779370000003837,1,1.30600499999855,23.24522934,1,37
7,2,1,1.6770600000018,1,1.03883499999938,20.920706406,0,38
7,2,2,1.681700000001,0.75275409381348,1.08492000000115,23.24522934,1,39
7,1,1,0.775544999996782,1,0.985424999998941,23.24522934,1,40
7,1,1,0.766819999997097,1,1.04159500000242,20.920706406,1,41
7,2,2,1.29656499999692,1,1.00437000000238,20.920706406,1,42
7,1,1,0.77664999999979,1,0.973124999996799,18.8286357654,1,43
7,2,2,0.953994999996212,1,0.903130000006058,18.8286357654,1,44
7,2,2,1.16386499999498,1,0.948070000005828,16.94577218886,1,45
7,1,1,0.763735000000452,1,1.9331749999983,16.94577218886,1,46
7,2,2,1.10014999999839,1,0.865550000002258,15.251194969974,1,47
7,1,1,0.943919999997888,1,0.899725000002945,15.251194969974,1,48
7,2,2,1.23502999999619,1,1.29608500000171,13.7260754729766,1,49
7,1,1,0.704724999995902,1,1.13247000000416,13.7260754729766,1,50
7,2,2,0.968865000002552,1,1.07890999999654,12.3534679256789,1,51
7,1,1,0.790260000001523,1,1.24414499999688,12.3534679256789,1,52
7,1,1,1.85763999999478,1,0.973620000004303,11.1181211331111,1,53
7,2,2,0.655460000001825,1,0.912940000001923,11.1181211331111,1,54
7,2,2,1.01774499999743,1,2.28409500000265,10.0063090197999,1,55
7,1,1,0.772844999999506,1,0.921150000002002,10.0063090197999,1,56
7,2,2,0.795944999998086,1,1.35933500000101,9.00567811781995,1,57
7,1,1,1.17624000000069,1,0.963274999994552,9.00567811781995,1,58
7,1,1,1.23722999999882,0.983378481868363,0.9559750000044,8.10511030603796,1,59
7,2,2,0.754885000002105,0.712475142046886,1.18729999999783,8.10511030603796,1,60
7,1,1,0.960874999996973,1,1.2767349999994,7.29459927543416,1,61
7,2,2,0.942330000005197,0.767818634576529,0.897599999996601,7.29459927543416,1,62
7,1,1,0.970020000000717,1,0.895810000001686,6.56513934789075,1,63
7,2,2,0.893570000000182,1,1.13040000000189,6.56513934789075,1,64
7,1,1,1.42793999999412,1,2.69949000000639,5.90862541310167,1,65
7,2,2,0.809040000000037,1,1.66266000000178,5.90862541310167,1,66
7,2,2,1.11472499999951,1,1.17794499999576,5.3177628717915,1,67
7,1,1,0.722629999996512,1,1.40702500000049,5.3177628717915,1,68
7,2,2,0.995214999995427,1,1.25077500000037,4.78598658461235,1,69
7,1,1,1.20900000000256,1,0.926549999996438,4.78598658461235,1,70
7,1,1,1.13126999999816,1,0.965299999996088,4.30738792615112,1,71
7,2,2,1.30663500000094,1,1.25884999999823,4.30738792615112,1,72
7,2,2,1.75875999999698,1,0.969165000002366,3.87664913353601,1,73
7,1,1,1.16986000000173,1,1.00985999999824,3.87664913353601,1,74
7,2,1,1.13707000000426,1,0.864174999995157,3.48898422018241,0,75
7,1,1,0.822310000003199,1,1.98046500000055,3.87664913353601,1,76
7,2,2,1.59674500000256,1,1.80944499999902,3.87664913353601,1,77
7,1,1,1.01647500000393,1,1.31727500000119,3.48898422018241,1,78
7,2,1,1.32125000000093,1,1.56800999999535,3.48898422018241,0,79
7,1,1,0.78861500000488,1,1.1002999999983,3.87664913353601,1,80
7,1,1,0.934504999997327,1,1.27205999999575,3.87664913353601,1,81
7,2,2,1.03705999999505,1,1.23855500000366,3.48898422018241,1,82
7,1,2,1.00632499999483,1,1.49049500000547,3.48898422018241,0,83
7,2,1,1.13046499999473,1,1.19708499999985,3.87664913353601,0,84
7,2,2,1.22482499999751,1,2.37615000000363,4.30738792615112,1,85
7,1,1,1.02242499999551,1,1.29715500000014,4.30738792615112,1,86
7,1,1,0.914335000001243,1,7.62972499999881,3.87664913353601,1,87
7,2,2,1.62842499999527,1,1.34655500000378,3.87664913353601,1,88
7,1,1,1.02451500000467,1,1.45857499999693,3.48898422018241,1,89
7,2,2,1.24627499999781,1,1.55845499999844,3.48898422018241,1,90
7,2,2,1.99404000000516,1,2.17955499999505,3.14008579816417,1,91
7,1,1,1.12239000000409,1,1.88050500000094,3.14008579816417,1,92
7,1,1,1.29484499999671,1,1.72440500000084,2.82607721834775,1,93
7,2,2,1.20973000000231,1,1.23054499999853,2.82607721834775,1,94
7,2,1,1.3080399999962,1,1.07970000000205,2.54346949651297,0,95
7,1,2,1.14300999999978,1,0.891545000005979,2.82607721834775,0,96
8,2,1,1.59308000000601,0.095140893667155,2.1789499999868,48.6,0,1
8,1,1,0.731364999999641,0.98368661466582,2.71970499999588,54,1,2
8,2,1,1.05346999999892,0.945578231292516,1.6271199999901,54,0,3
8,1,1,1.3474600000045,0.959204669322125,4.28955499999574,60,1,4
8,1,1,1.48718500000541,0.006957248609151,1.79676499999186,60,1,5
8,2,1,1.20672000000195,0.99718230558524,2.32400500000222,54,0,6
8,1,1,0.595370000010007,0.977941478952409,1.40170499999658,60,1,7
8,2,2,1.1250149999978,0.964545618782293,2.81260000000475,60,1,8
8,2,2,0.727400000003399,0.992361907211055,3.08451000000059,54,1,9
8,1,1,0.651925000012852,0.983399026677594,2.94766499999969,54,1,10
8,1,1,0.862119999990682,0.971315602323755,2.3023300000059,48.6,1,11
8,2,2,0.81688500000746,0.962475138441178,2.11842499999329,48.6,1,12
8,2,2,0.803969999993569,0.968570920594832,1.63644500001101,43.74,1,13
8,1,1,0.962695000009262,0.998399429898184,3.30658999999287,43.74,1,14
8,1,2,2.69366000000446,0,1.5242900000012,39.366,0,15
8,2,2,1.2054449999996,0.973120906362442,1.9076100000093,43.74,1,16
8,2,2,1.9285050000035,0.032040273907244,2.02613999998721,43.74,1,17
8,1,1,0.896875000005821,1,2.35540000000037,39.366,1,18
8,2,2,1.09623500000453,0.983399026677594,2.68461500000558,39.366,1,19
8,1,1,0.632205000001704,0.970068858839068,1.58546499999647,35.4294,1,20
8,2,1,1.03357499999402,0.992056129787352,2.16043500001251,35.4294,0,21
8,1,1,0.675445000000764,0.979076360712288,1.3348699999915,39.366,1,22
8,1,1,0.746775000006892,0.96211921111548,1.83624000000418,39.366,1,23
8,2,2,0.616444999992382,1,7.13423500000499,35.4294,1,24
8,2,2,0.647985000003246,0.9932176461574,1.41381499999261,35.4294,1,25
8,1,1,0.773084999993443,0.968737457859442,1.37114500001189,31.88646,1,26
8,1,1,0.731230000004871,1,1.61936499999138,31.88646,1,27
8,2,2,0.735839999993914,0.978498746249336,1.52887000000919,28.697814,1,28
8,2,2,0.802714999997988,0.966737360994777,1.40391000000818,28.697814,1,29
8,1,1,0.58190000000468,0.989198224355809,1.58771500000148,25.8280326,1,30
8,2,2,0.682375000003958,0.981651377878676,1.52464999999211,25.8280326,1,31
8,1,1,0.71436499999254,0.993034327797767,1.81715500001155,23.24522934,1,32
8,2,2,0.848664999997709,0.964817212570182,1.62545500000124,23.24522934,1,33
8,1,1,0.636265000008279,1,2.19764499999292,20.920706406,1,34
8,1,2,2.30229500000132,0,3.11536500000511,20.920706406,0,35
8,2,2,1.4363699999958,0.994561078015067,2.15860500000417,23.24522934,1,36
8,2,2,0.773969999994733,0.985041398923819,1.40929999999935,23.24522934,1,37
8,1,1,0.601645000002463,0.9755234453095,1.8030199999921,20.920706406,1,38
8,1,1,0.754975000003469,1,2.69562499999302,20.920706406,1,39
8,2,2,0.70823499999824,0.970630066155653,1.59506500000134,18.8286357654,1,40
8,2,2,0.661485000004177,0.980992735352947,1.45550499999081,18.8286357654,1,41
8,1,1,0.5696750000061,0.967466980304934,2.46381999998994,16.94577218886,1,42
8,1,1,0.68579000000318,0.98403572998192,1.62962000000698,16.94577218886,1,43
8,2,1,1.36359999999695,0,2.70134500000859,15.251194969974,0,44
8,2,1,1.54629499999282,0.995150872309757,2.6226650000026,16.94577218886,0,45
8,1,1,0.713354999999865,0.981795404513336,1.3557950000104,18.8286357654,1,46
8,2,2,0.847670000002836,0.97031831924306,2.16764499999408,18.8286357654,1,47
8,1,1,0.601845000011963,1,1.83898999998928,16.94577218886,1,48
8,1,1,1.0853999999963,0.974861191757326,2.06609500000195,16.94577218886,1,49
8,2,2,0.680859999993118,0.97628868745883,1.67872500000522,15.251194969974,1,50
8,2,2,0.899625000005472,0.9820422644133,1.65296499998658,15.251194969974,1,51
8,1,1,0.580870000005234,0.993584194163895,1.45247999999265,13.7260754729766,1,52
8,1,1,0.715045000004466,0.9820422644133,1.55093500000658,13.7260754729766,1,53
8,2,2,0.863190000003669,1,2.12059500000032,12.3534679256789,1,54
8,2,2,1.43051999999443,0,1.58583500000532,12.3534679256789,1,55
8,1,1,1.12801000000036,0.993584194163895,1.7731150000036,11.1181211331111,1,56
8,2,1,0.782560000006924,0.030978671281369,1.70150999999896,11.1181211331111,0,57
8,1,1,0.834560000002966,1,1.63253999999142,12.3534679256789,1,58
8,2,2,0.637934999991558,0.985349077549714,1.43038000000524,12.3534679256789,1,59
8,1,1,0.582700000013574,0.978519380460511,1.38467999998829,11.1181211331111,1,60
8,2,2,1.53783000000112,0,1.34974000000511,11.1181211331111,1,61
8,1,1,0.868814999994356,0.976764114908352,1.29621499999485,10.0063090197999,1,62
8,2,2,0.868155000003753,0.964796323104632,1.32459000000381,10.0063090197999,1,63
8,1,1,0.893759999991744,1,1.739545000004,9.00567811781995,1,64
8,2,1,1.00457000000461,0.977920834101712,1.55399000000034,9.00567811781995,0,65
8,1,1,0.758130000001984,0.989341290958723,2.7755799999868,10.0063090197999,1,66
8,2,2,0.870464999999967,1,2.69432500000403,10.0063090197999,1,67
8,1,1,0.872504999992088,0.986476515344061,1.62665000000561,9.00567811781995,1,68
8,2,2,0.688790000000154,0.991219917506106,3.21594500000356,9.00567811781995,1,69
8,1,1,0.552750000002561,0.976040558160758,5.96829999999318,8.10511030603796,1,70
8,1,1,0.617189999989932,0.99301395726486,2.21491500000411,8.10511030603796,1,71
8,2,1,1.18179500001133,0,2.3013299999875,7.29459927543416,0,72
8,2,1,1.0180449999898,0.97628868745883,1.31534000000102,8.10511030603796,0,73
8,1,1,0.751020000010612,0.964817212570182,2.43838999999571,9.00567811781995,1,74
8,2,2,0.614825000011479,0.987398127949161,1.45699999999488,9.00567811781995,1,75
8,1,1,0.5653500000044,0.979756739072174,1.88909500000591,8.10511030603796,1,76
8,1,1,0.573589999999967,0.974219259226852,1.79462499999499,8.10511030603796,1,77
8,2,2,0.681175000005169,0.987705165199577,6.15569499999401,7.29459927543416,1,78
8,2,2,0.737065000008442,0.991954185670028,2.64516999998887,7.29459927543416,1,79
8,1,1,0.79121500000474,0.978271744861617,1.55218499999319,6.56513934789075,1,80
8,1,1,1.03900999999314,0.986476515344061,2.18695000000298,6.56513934789075,1,81
8,2,2,0.59098000000813,0.980436705327402,2.4973800000007,5.90862541310167,1,82
8,1,1,0.668109999998705,0.954048673237897,1.45507999999973,5.90862541310167,1,83
8,2,2,0.940535000001546,0.017692839744298,1.54254500000388,5.3177628717915,1,84
8,2,2,0.923450000002049,0.445804289871671,1.64209499998833,5.3177628717915,1,85
8,1,1,0.858569999996689,0.998216944014245,2.23868999999831,4.78598658461235,1,86
8,1,1,1.17209500000172,0.972062979221291,1.39502999999968,4.78598658461235,1,87
8,2,1,0.872634999992442,1,1.59510500000033,4.30738792615112,0,88
8,2,2,0.593095000003814,0.966320220189113,1.94870999999694,4.78598658461235,1,89
8,1,1,0.733045000000857,0.989668232471116,1.40552000000025,4.78598658461235,1,90
8,1,1,0.601399999999558,0.979076360712288,1.36836499998753,4.30738792615112,1,91
8,2,2,0.966200000009849,0.954660238688649,1.6519249999983,4.30738792615112,1,92
8,1,1,0.584179999990738,0.970546942180395,1.51288500000373,3.87664913353601,1,93
8,2,2,0.914214999997057,0,2.62381499999901,3.87664913353601,1,94
8,1,1,0.871085000006133,0.991974575226119,1.79422999999952,3.48898422018241,1,95
8,2,1,0.714710000000196,0.965067855435532,1.46714000000793,3.48898422018241,0,96
9,2,2,0.808665000000474,0.827812733699971,2.96535499999936,48.6,1,1
9,1,1,0.699245000000708,1,1.17318999999951,48.6,1,2
9,2,2,0.820330000000467,1,1.06754000000001,43.74,1,3
9,1,1,0.74071000000005,0.988441714611559,1.32341999999971,43.74,1,4
9,1,1,0.734469999999419,0.995659070439481,1.11732000000028,39.366,1,5
9,2,2,0.779225000000224,0.723255090225944,1.54835000000003,39.366,1,6
9,2,2,0.709304999999396,0.810713542595275,1.30206500000077,35.4294,1,7
9,1,1,0.726314999999886,1,0.988400000000169,35.4294,1,8
9,1,1,0.661219999999943,0.871318836825745,0.981165000000154,31.88646,1,9
9,2,2,0.623655000000319,0.925256723379149,1.14920499999973,31.88646,1,10
9,2,2,0.717224999999409,0.904850248064133,0.90833000000022,28.697814,1,11
9,1,1,0.690459999999788,0.92517006802721,0.814069999999454,28.697814,1,12
9,1,1,0.890755000000354,0.91891229685083,1.27804000000014,25.8280326,1,13
9,2,1,0.715824999999313,0.775510204081632,1.30991500000072,25.8280326,0,14
9,2,2,0.585614999999962,0.986415047760997,0.869804999999353,28.697814,1,15
9,1,1,0.510825000000303,0.993278745704194,0.95727999999962,28.697814,1,16
9,1,1,0.615585000000458,1,1.46918499999994,25.8280326,1,17
9,2,2,0.686099999999889,0.993380570980985,1.50151000000007,25.8280326,1,18
9,2,2,0.588509999999602,1,0.717665000000125,23.24522934,1,19
9,1,1,0.46870500000022,1,0.88602999999965,23.24522934,1,20
9,2,2,0.607525000000373,0.952908986668654,0.803559999999357,20.920706406,1,21
9,1,1,0.42236500000034,0.953415660306794,0.893874999999767,20.920706406,1,22
9,1,1,0.619439999999508,1,0.764855000000331,18.8286357654,1,23
9,2,2,0.652689999999915,0.953141241161841,0.768819999999308,18.8286357654,1,24
9,1,1,0.650094999999972,0.993930269868598,0.740569999999949,16.94577218886,1,25
9,2,2,0.585685000000027,0.91176210571178,0.733220000000059,16.94577218886,1,26
9,1,1,0.577270000000688,0.911915675597869,0.789844999999332,15.251194969974,1,27
9,2,2,0.529840000000142,0.966007261604079,0.847284999999829,15.251194969974,1,28
9,2,2,0.637940000000526,0.816929419252061,1.06218499999976,13.7260754729766,1,29
9,1,1,0.643584999999788,1,1.00514999999997,13.7260754729766,1,30
9,1,1,0.54935000000021,1,0.821965000000084,12.3534679256789,1,31
9,2,2,0.598619999999763,0.971211760322953,1.63057000000027,12.3534679256789,1,32
9,2,2,1.03682000000027,0.24495762758474,0.654579999999463,11.1181211331111,1,33
9,1,1,0.472654999999591,0.898381489178094,1.32483000000048,11.1181211331111,1,34
9,1,1,0.554175000000221,1,0.738159999999858,10.0063090197999,1,35
9,2,2,0.540114999999787,0.933349673500141,0.717765000000334,10.0063090197999,1,36
9,2,2,0.654840000000142,1,0.653940000000148,9.00567811781995,1,37
9,1,1,0.73480999999991,0.891178839714903,0.951645000000106,9.00567811781995,1,38
9,1,1,0.464770000000513,0.97977735016123,0.757889999999868,8.10511030603796,1,39
9,2,2,0.652979999999836,0.959939272335207,1.24895500000002,8.10511030603796,1,40
9,1,1,0.582779999999737,1,0.708885000000009,7.29459927543416,1,41
9,2,2,0.637324999999691,1,0.72649000000002,7.29459927543416,1,42
9,1,1,0.788364999999438,0.993278745704194,0.659140000000654,6.56513934789075,1,43
9,2,2,0.501279999999504,0.891178839714903,0.578449999999953,6.56513934789075,1,44
9,1,1,0.575759999999718,1,0.942595000000438,5.90862541310167,1,45
9,2,2,0.729675000000483,0.416002024450091,0.959234999999375,5.90862541310167,1,46
9,1,1,0.777844999999623,1,0.71671499999956,5.3177628717915,1,47
9,2,1,0.833040000000416,0.217366048840101,0.973904999999853,5.3177628717915,0,48
9,2,1,0.650794999999547,0.736695497124765,0.733580000000075,5.90862541310167,0,49
9,1,1,0.530549999999494,1,1.03828500000053,6.56513934789075,1,50
9,2,1,0.732759999999864,0,0.809569999999454,6.56513934789075,0,51
9,1,1,0.713130000000092,1,0.965785000000324,7.29459927543416,1,52
9,2,1,0.665850000000326,1,0.661924999999435,7.29459927543416,0,53
9,1,1,0.531014999999577,1,0.670794999999984,8.10511030603796,1,54
9,1,1,0.496654999999912,0.779758377998839,0.822035000000149,8.10511030603796,1,55
9,2,1,0.651579999999725,0.810713542595275,0.573394999999437,7.29459927543416,0,56
9,2,2,0.710465000000142,0.36712013099296,0.733589999999793,8.10511030603796,1,57
9,1,1,0.744780000000028,0.97977735016123,0.678785000000033,8.10511030603796,1,58
9,2,1,0.901840000000433,0.625970732851435,0.741154999999679,7.29459927543416,0,59
9,1,1,0.614829999999551,1,0.646120000000345,8.10511030603796,1,60
9,1,1,0.507485000000102,0.859938708111065,0.781614999999874,8.10511030603796,1,61
9,2,1,0.789615000000573,1,0.606354999999923,7.29459927543416,0,62
9,1,1,0.526670000000158,1,0.598015000000538,8.10511030603796,1,63
9,2,2,0.674920000000333,0.130015933607232,0.669339999999502,8.10511030603796,1,64
9,2,1,0.722080000000482,0.170068027210884,0.67090499999997,7.29459927543416,0,65
9,1,1,0.646555000000284,1,0.61372499999922,8.10511030603796,1,66
9,2,2,0.602765000000596,0.449331352185588,0.597165000000095,8.10511030603796,1,67
9,1,1,0.535595000000321,0.873028526808136,0.757110000000452,7.29459927543416,1,68
9,2,1,0.716914999999979,0.859015323153761,1.20571500000003,7.29459927543416,0,69
9,1,1,0.596319999999658,1,0.5898299999999,8.10511030603796,1,70
9,2,2,0.744049999999348,0.891178839714903,0.590259999999951,8.10511030603796,1,71
9,1,1,0.503879999999306,1,0.663425000000629,7.29459927543416,1,72
9,2,1,0.69068499999959,0.759677069276877,0.853610000000102,7.29459927543416,0,73
9,1,1,0.523044999999925,1,0.596994999999879,8.10511030603796,1,74
9,1,1,0.637579999999667,1,0.630240000000398,8.10511030603796,1,75
9,2,2,0.602264999999548,0.749933590014852,0.550310000000522,7.29459927543416,1,76
9,2,2,0.782694999999891,0.986415047760997,0.844790000000095,7.29459927543416,1,77
9,1,1,0.92825999999966,1,0.844385000000359,6.56513934789075,1,78
9,1,1,0.531095000000263,1,0.494069999999774,6.56513934789075,1,79
9,2,1,1.00579500000004,0.443598967680334,0.781455000000307,5.90862541310167,0,80
9,2,1,0.999644999999902,0.626602485560692,0.628010000000359,6.56513934789075,0,81
9,1,1,0.507530000000785,1,0.670689999999886,7.29459927543416,1,82
9,1,1,0.529400000000314,1,1.19716499999957,7.29459927543416,1,83
9,2,1,0.634199999999488,0.966507952962133,0.639790000000154,6.56513934789075,0,84
9,1,1,0.535125000000291,1,0.622190000000061,7.29459927543416,1,85
9,2,2,0.97015499999997,0.29952899286773,0.748800000000338,7.29459927543416,1,86
9,2,1,0.892465000000782,0.796016952331217,0.733354999999399,6.56513934789075,0,87
9,1,1,0.452385000000475,1,0.981884999999253,7.29459927543416,1,88
9,1,1,0.46623499999987,1,0.677815000000002,7.29459927543416,1,89
9,2,1,0.717070000000589,0.902949222475016,0.608099999999511,6.56513934789075,0,90
9,1,1,0.584359999999811,1,0.598450000000419,7.29459927543416,1,91
9,2,1,0.676010000000184,1,0.468179999999818,7.29459927543416,0,92
9,2,2,0.824934999999648,0.816543614166788,0.613524999999732,8.10511030603796,1,93
9,1,1,0.454614999999641,1,0.670455000000366,8.10511030603796,1,94
9,1,1,0.487145000000019,0.877755081636733,0.724924999999581,7.29459927543416,1,95
9,2,1,0.600840000000084,1,0.526124999999418,7.29459927543416,0,96
10,1,1,0.806855000002543,1,2.03773999999976,48.6,1,1
10,2,2,0.780960000003688,0.970879400857568,1.06260499999917,48.6,1,2
10,2,2,1.01716000000306,1,1.08638999999675,43.74,1,3
10,1,1,0.518875000001572,0.946279535971158,1.27126500000304,43.74,1,4
10,1,1,0.525495000001683,1,1.46040499999799,39.366,1,5
10,2,2,0.656134999997448,0.940207839551639,1.20618500000273,39.366,1,6
10,2,2,0.700454999998328,1,1.38645499999984,35.4294,1,7
10,1,1,0.727849999995669,0.988932481256349,1.19325500000559,35.4294,1,8
10,2,2,1.59787499999948,0.959519559126783,1.28132500000356,31.88646,1,9
10,1,1,0.777925000002142,1,1.41557499999908,31.88646,1,10
10,1,1,0.678164999997534,0.958952692683168,1.14921499999764,28.697814,1,11
10,2,2,0.786195000000589,1,2.57569499999954,28.697814,1,12
10,2,2,0.709790000000794,0.654252263098341,2.08896500000264,25.8280326,1,13
10,1,1,0.688605000003008,1,1.66734999999608,25.8280326,1,14
10,1,1,0.694054999999935,1,1.18127999999706,23.24522934,1,15
10,2,2,0.616479999996955,0.942256837093355,1.48956500000349,23.24522934,1,16
10,2,2,0.587110000000393,1,1.48651000000245,20.920706406,1,17
10,1,1,0.659294999997655,1,1.19668500000262,20.920706406,1,18
10,2,2,0.542614999998477,0.985677175625037,1.35451000000467,18.8286357654,1,19
10,1,1,0.665399999998044,1,1.34214000000065,18.8286357654,1,20
10,1,1,0.582894999999553,0.997101117759439,1.16509499999665,16.94577218886,1,21
10,2,2,0.487529999998515,0.97262318327998,1.34872999999789,16.94577218886,1,22
10,1,1,0.55561999999918,0.964566512976908,1.2783649999983,15.251194969974,1,23
10,2,2,0.62864499999705,0.998399429898184,1.50422000000253,15.251194969974,1,24
10,2,2,0.609994999998889,1,1.06425000000309,13.7260754729766,1,25
10,1,1,0.5706349999964,1,1.06254500000068,13.7260754729766,1,26
10,1,1,0.504794999993464,0.954048673237897,1.22476000000461,12.3534679256789,1,27
10,2,2,0.515265000001818,0.978189187506003,1.04933500000334,12.3534679256789,1,28
10,2,2,0.500115000002552,1,1.08574499999668,11.1181211331111,1,29
10,1,1,0.498514999999315,0.9751302795757,1.3046800000011,11.1181211331111,1,30
10,2,2,0.592149999996764,1,1.33332000000519,10.0063090197999,1,31
10,1,1,0.5483000000022,0.986476515344061,1.14609499999642,10.0063090197999,1,32
10,1,1,0.553179999995336,1,0.867965000004915,9.00567811781995,1,33
10,2,2,0.530704999997397,0.995537123578718,1.08620499999961,9.00567811781995,1,34
10,2,2,0.6053649999958,1,1.15736499999912,8.10511030603796,1,35
10,1,1,0.520514999996522,0.987152438082305,1.22959999999875,8.10511030603796,1,36
10,1,1,0.519914999997127,1,1.24178000000393,7.29459927543416,1,37
10,2,2,0.566814999998314,0.984425789740264,1.39513000000443,7.29459927543416,1,38
10,2,2,0.575969999998051,1,1.22492500000226,6.56513934789075,1,39
10,1,1,0.517644999999902,0.956156083088674,1.1403399999981,6.56513934789075,1,40
10,1,1,0.563025000003108,1,1.20685999999841,5.90862541310167,1,41
10,2,2,0.513715000000957,1,1.13329499999963,5.90862541310167,1,42
10,1,1,0.577369999999064,1,1.14517999999953,5.3177628717915,1,43
10,2,2,0.579160000001139,0.971315602323755,1.17782499999885,5.3177628717915,1,44
10,2,2,0.645824999999604,0.977507857199465,1.11335500000132,4.78598658461235,1,45
10,1,1,0.567420000006678,1,1.21305999999458,4.78598658461235,1,46
10,1,2,0.720789999999397,1,1.07851500000106,4.30738792615112,0,47
10,2,2,0.716800000001967,0.975150975956062,1.07297499999549,4.78598658461235,1,48
10,1,1,0.594969999998284,1,1.28267000000051,4.78598658461235,1,49
10,2,2,0.567564999997558,0.974861191757326,1.0347150000016,4.30738792615112,1,50
10,2,2,0.607254999995348,1,1.12226999999984,4.30738792615112,1,51
10,1,1,0.626414999998815,0.968508462686769,1.1021849999961,3.87664913353601,1,52
10,1,1,0.666604999998526,1,1.17173999999795,3.87664913353601,1,53
10,2,2,0.50143499999831,1,1.15331000000151,3.48898422018241,1,54
10,2,2,0.626674999999523,1,1.19164000000455,3.48898422018241,1,55
10,1,1,0.634489999996731,0.997486708451714,1.05681500000355,3.14008579816417,1,56
10,2,2,1.37763000000268,0.521723795473187,1.33851999999752,3.14008579816417,1,57
10,1,1,0.519679999997607,1,1.75130499999796,2.82607721834775,1,58
10,1,1,0.576614999998128,1,1.15198000000237,2.82607721834775,1,59
10,2,2,0.816294999996899,0.769138896796095,1.2835500000001,2.54346949651297,1,60
10,2,2,1.13494499999797,0.964629193195576,1.1455100000021,2.54346949651297,1,61
10,1,1,0.584470000001602,1,1.2210550000018,2.28912254686168,1,62
10,2,2,0.582759999997506,0.798674844995698,1.21239500000229,2.28912254686168,1,63
10,1,1,0.637654999998631,0.993523111040092,1.29380999999557,2.06021029217551,1,64
10,1,1,0.542055000005348,1,1.41448499999387,2.06021029217551,1,65
10,2,2,0.762945000002219,0.883700292225177,1.09365499999694,1.85418926295796,1,66
10,1,1,0.59936999999627,0.997486708451714,1.21491500000411,1.85418926295796,1,67
10,2,2,0.533015000000887,1,1.08217499999591,1.66877033666216,1,68
10,1,1,0.6099549999999,0.961155538313281,1.2143950000027,1.66877033666216,1,69
10,2,2,0.69866500000353,1,1.39401999999973,1.50189330299595,1,70
10,2,2,0.716379999998026,1,1.15779499999917,1.50189330299595,1,71
10,1,1,0.522909999999683,0.990505589609785,1.26980999999796,1.35170397269635,1,72
10,2,2,0.610334999997576,0.588870302559175,1.66341999999713,1.35170397269635,1,73
10,1,1,0.462614999996731,1,1.52959000000556,1.21653357542672,1,74
10,2,1,0.687634999994771,0.995150872309757,1.06773500000418,1.21653357542672,0,75
10,1,1,0.601065000002563,0.978498746249336,1.64162499999657,1.35170397269635,1,76
10,1,1,0.577449999997043,0.929472680012954,1.25551000000269,1.35170397269635,1,77
10,2,2,0.815264999997453,0.660325014592949,1.20696000000316,1.21653357542672,1,78
10,1,1,0.582029999997758,0.970546942180395,1.35355500000151,1.21653357542672,1,79
10,2,2,0.751344999996945,0.895377171700346,1.90669500000513,1.09488021788405,1,80
10,2,2,0.597624999994878,0.983378481868363,1.10580000000482,1.09488021788405,1,81
10,1,1,0.493414999997185,0.95212740547689,1.26317000000563,0.98539219609564,1,82
10,2,2,0.678874999997788,0.913055781247063,1.12377000000561,0.98539219609564,1,83
10,1,2,0.787775000004331,0.993380570980985,1.25942499999655,0.886852976486076,0,84
10,1,1,0.473140000001877,0.97328676473435,1.13724999999977,0.98539219609564,1,85
10,2,2,0.576410000001488,0.431318308734944,1.24735499999952,0.98539219609564,1,86
10,1,1,0.650219999995898,1,1.70471499999985,0.886852976486076,1,87
10,2,2,0.526890000001004,1,1.16055999999662,0.886852976486076,1,88
10,1,1,0.691889999994601,0.990505589609785,1.07764999999927,0.798167678837469,1,89
10,2,1,0.883809999999357,0.979591836734693,1.1044849999962,0.798167678837469,0,90
10,2,2,0.736040000003413,0.957944209345619,1.16518999999971,0.886852976486076,1,91
10,1,1,0.479310000002442,0.959939272335207,1.33891999999469,0.886852976486076,1,92
10,1,1,0.652559999994992,1,1.2520199999999,0.798167678837469,1,93
10,2,2,0.611035000001721,1,1.08368499999779,0.798167678837469,1,94
10,2,2,0.692125000001397,0.972062979221291,1.04722999999649,0.718350910953722,1,95
10,1,1,0.527195000002393,1,1.2251150000011,0.718350910953722,1,96
11,1,1,1.2814800000001,1,2.80765500000006,60,1,1
11,2,2,1.37296999999988,1,3.04619000000003,54,1,2
11,1,1,1.20276000000013,1,2.050655,54,1,3
11,2,1,1.06962500000009,1,3.8552800000002,48.6,0,4
11,1,1,0.973265000000072,1,2.03510000000006,54,1,5
11,2,2,0.93772500000021,1,3.88481499999989,54,1,6
11,2,2,0.823589999999967,1,1.93263999999998,48.6,1,7
11,1,1,0.858279999999941,1,1.96201000000018,48.6,1,8
11,1,1,0.824340000000113,1,4.83010500000001,43.74,1,9
11,2,1,0.766439999999886,1,1.83474500000011,43.74,0,10
11,2,1,1.48603499999989,1,1.9897350000001,48.6,0,11
11,1,1,0.968975000000239,1,2.9329499999999,54,1,12
11,2,2,1.05621500000005,1,2.6834749999998,54,1,13
11,1,1,0.760075000000157,1,3.86905999999997,48.6,1,14
11,2,1,1.08292500000016,1,2.65164999999979,48.6,0,15
11,1,1,0.875860000000102,1,2.04597500000001,54,1,16
11,2,2,1.04155499999979,1,3.13419500000009,54,1,17
11,1,1,0.56747999999969,1,2.05563500000015,48.6,1,18
11,2,2,0.620530000000144,1,3.59813499999975,48.6,1,19
11,1,1,0.78577499999982,1,1.94611000000034,43.74,1,20
11,2,1,0.886834999999788,1,2.50275499999998,43.74,0,21
11,1,1,0.820830000000133,1,1.83417000000007,48.6,1,22
11,2,1,0.97298499999987,1,2.382505,48.6,0,23
11,1,1,0.80374500000017,1,1.63173499999993,54,1,24
11,2,1,0.825159999999858,1,2.81223500000034,54,0,25
11,1,1,0.875184999999881,1,1.58734000000003,60,1,26
11,1,1,1.10571499999968,1,3.09914000000025,60,1,27
11,2,1,1.0592649999999,1,2.69973999999999,54,0,28
11,1,1,2.10097999999969,1,2.48543999999994,60,1,29
11,2,1,0.9670799999999,1,2.34550000000035,60,0,30
11,2,2,0.702619999999995,1,2.04964000000019,66.6666666666667,1,31
11,1,1,0.903670000000158,1,2.4660750000003,66.6666666666667,1,32
11,1,1,1.05046999999968,1,1.48633500000002,60,1,33
11,2,1,1.03612000000023,1,2.3925199999999,60,0,34
11,2,2,0.711250000000291,1,1.7272899999998,66.6666666666667,1,35
11,1,1,0.868069999999949,1,1.88930000000028,66.6666666666667,1,36
11,1,1,0.919879999999946,1,1.65524499999994,60,1,37
11,2,2,0.999160000000265,1,2.25442999999999,60,1,38
11,1,1,0.906954999999958,1,1.71294500000018,54,1,39
11,2,2,0.902415000000037,1,1.58838999999984,54,1,40
11,1,1,1.00884499999986,1,5.03082499999984,48.6,1,41
11,2,2,0.901830000000249,1,1.61731499999994,48.6,1,42
11,2,1,1.31797499999992,1,1.72427500000002,43.74,0,43
11,1,2,0.927940000000002,1,1.56872999999998,48.6,0,44
11,2,2,0.787264999999898,1,2.08042999999999,54,1,45
11,1,1,0.822145000000077,1,1.71290000000002,54,1,46
11,1,2,0.819989999999991,1,1.65236999999976,48.6,0,47
11,2,2,0.902505000000005,1,1.46590999999992,54,1,48
11,2,2,0.775894999999728,1,1.61446500000014,54,1,49
11,1,1,0.775215000000084,1,1.56375500000012,48.6,1,50
11,2,2,0.806669999999925,1,1.81333500000025,48.6,1,51
11,1,2,0.771555000000284,1,2.33770000000007,43.74,0,52
11,1,1,0.560399999999849,1,1.60824499999994,48.6,1,53
11,2,2,0.536864999999583,1,1.50296000000025,48.6,1,54
11,2,2,0.668889999999898,1,1.76923499999975,43.74,1,55
11,1,2,1.00776500000031,1,1.59014999999997,43.74,0,56
11,2,2,0.720139999999898,1,1.53203500000015,48.6,1,57
11,1,1,0.604745000000112,1,1.57479499999998,48.6,1,58
11,1,1,1.34080499999982,1,1.68097000000032,43.74,1,59
11,2,1,0.957159999999916,1,2.64941000000003,43.74,0,60
11,1,2,0.795305000000109,1,1.52373999999958,48.6,0,61
11,2,2,0.722084999999905,1,1.72011000000022,54,1,62
11,2,2,0.95977499999979,1,1.63256,54,1,63
11,1,2,0.785354999999981,1,2.02075999999989,48.6,0,64
11,1,2,0.84952999999997,1,1.94685999999999,54,0,65
11,2,2,0.875870000000286,1,2.03069999999978,60,1,66
11,1,2,0.952245000000403,1,1.98959499999997,60,0,67
11,2,2,0.777845000000088,1,1.80967499999999,66.6666666666667,1,68
11,2,2,0.739280000000261,1,1.66860499999986,66.6666666666667,1,69
11,1,2,0.808770000000077,1,1.6620149999999,60,0,70
11,1,1,0.768869999999879,1,1.61355999999976,66.6666666666667,1,71
11,2,2,0.741609999999579,1,1.66173000000027,66.6666666666667,1,72
11,2,2,0.719285000000091,1,1.48426999999996,60,1,73
11,1,2,0.753999999999884,1,1.47526000000018,60,0,74
11,1,1,0.652614999999932,1,1.59272999999986,66.6666666666667,1,75
11,2,2,0.67226500000013,1,1.76728000000003,66.6666666666667,1,76
11,2,2,0.825339999999909,1,2.24620000000001,60,1,77
11,1,1,0.553580000000249,1,1.63264999999997,60,1,78
11,2,1,0.89865499999997,1,1.505815,54,0,79
11,1,2,0.800325000000186,1,1.691315,60,0,80
11,2,2,1.50844499999995,1,2.56631500000006,66.6666666666667,1,81
11,1,1,0.884689999999828,1,1.58568000000017,66.6666666666667,1,82
11,2,2,1.02030499999999,1,1.51748499999987,60,1,83
11,1,1,0.785545000000158,1,1.59990500000003,60,1,84
11,1,1,0.915719999999972,1,2.51278999999969,54,1,85
11,2,2,0.901710000000079,1,2.03316000000003,54,1,86
11,1,1,0.841734999999986,1,1.56327499999991,48.6,1,87
11,2,2,0.808639999999665,1,1.57093500000017,48.6,1,88
11,1,1,0.724635000000009,1,1.96027000000002,43.74,1,89
11,2,2,1.27071500000008,1,1.90349999999988,43.74,1,90
11,1,1,0.621120000000228,1,1.68056499999959,39.366,1,91
11,2,1,0.871790000000154,1,1.85204500000004,39.366,0,92
11,1,1,0.757889999999781,1,1.93607999999996,43.74,1,93
11,2,2,0.744705000000075,1,1.65871999999986,43.74,1,94
11,1,2,0.76717499999993,1,1.5040750000003,39.366,0,95
11,2,2,0.822110000000102,1,1.61645999999973,43.74,1,96
12,1,1,0.70313499995973,1,2.36935500008985,48.6,1,1
12,2,2,0.893575000111014,1,0.797069999971427,48.6,1,2
12,2,1,1.71853000007104,1,0.818209999939427,43.74,0,3
12,1,2,1.70769499999005,1,1.50165999995079,48.6,0,4
12,1,1,0.827099999994971,1,0.958444999996573,54,1,5
12,2,2,1.57704000000376,1,1.12393999996129,54,1,6
12,2,2,0.918235000106506,1,0.730534999980591,48.6,1,7
12,1,2,2.46794499992393,1,1.90629499999341,48.6,0,8
12,1,1,1.05365000001621,1,0.638875000062399,54,1,9
12,2,1,1.58136999991257,1,0.87706500000786,54,0,10
12,1,1,0.988669999991544,1,1.00439000001643,60,1,11
12,2,2,0.966390000074171,1,1.60066999995615,60,1,12
12,1,1,0.768000000040047,1,1.17716500000097,54,1,13
12,2,1,1.60193499992602,1,1.7387550000567,54,0,14
12,1,1,0.94942999992054,1,1.32726000004914,60,1,15
12,2,1,1.40997999999672,1,0.995384999900125,60,0,16
12,1,1,0.70582499995362,0.904430551007888,4.28666500002146,66.6666666666667,1,17
12,2,2,1.25211000000127,1,2.87739999999758,66.6666666666667,1,18
12,2,2,0.838349999976344,1,0.854045000043698,60,1,19
12,1,1,0.87109499995131,1,1.43395500001498,60,1,20
12,1,1,1.06138500000816,1,1.62377000006381,54,1,21
12,2,2,1.33038499997929,0.272331823664411,0.785275000031106,54,1,22
12,1,1,1.72958499996457,1,1.29489000001922,48.6,1,23
12,2,1,1.469550000038,0.603119462566711,0.905050000059418,48.6,0,24
12,1,2,1.2802049999591,0.576045976251586,0.706690000020899,54,0,25
12,2,2,2.10568000003695,0.503508763005153,1.43601499998476,60,1,26
12,2,1,1.75284500000998,0,1.22338500001933,60,0,27
12,1,1,1.45050999999512,1,1.30281000002287,66.6666666666667,1,28
12,1,1,1.08272499998566,1,1.05494499998167,66.6666666666667,1,29
12,2,1,1.19111000001431,0.669890112315913,0.777475000009872,60,0,30
12,1,2,0.909514999948442,0.728316222779979,1.20677000004798,66.6666666666667,0,31
12,2,2,1.10248999996111,1,1.0069450000301,74.0740740740741,1,32
12,1,1,0.786259999964386,1,0.976559999980964,74.0740740740741,1,33
12,2,2,1.15200500003994,0.717626574195477,0.778865000000224,66.6666666666667,1,34
12,2,2,0.962490000063553,1,0.964224999886937,66.6666666666667,1,35
12,1,1,0.731690000044182,1,0.644749999977648,60,1,36
12,2,2,0.738484999979846,1,1.55530000000726,60,1,37
12,1,1,0.78992000001017,1,1.10607500001788,54,1,38
12,2,2,1.47065499995369,0.815843946725052,1.02612500009127,54,1,39
12,1,1,1.13354499998968,1,0.792699999990873,48.6,1,40
12,2,2,0.818730000057258,0.872823515964029,0.803119999938644,48.6,1,41
12,1,1,0.993689999915659,0.775913239855903,0.984000000054948,43.74,1,42
12,2,1,1.60751500003971,0.151552176984794,0.95050999999512,43.74,0,43
12,1,1,0.950090000056662,1,1.02861499995925,48.6,1,44
12,1,1,0.805984999984503,1,0.959385000052862,48.6,1,45
12,2,2,0.751850000000559,0.922653997179128,1.26203500002157,43.74,1,46
12,1,1,0.968160000047646,1,0.832429999951273,43.74,1,47
12,2,1,1.45442500000354,0,0.825865000020713,39.366,0,48
12,2,2,1.39001500001177,0.039679018571411,0.683814999996684,43.74,1,49
12,1,2,1.19828000001144,0,0.781160000013188,43.74,0,50
12,2,1,0.978884999989532,0,0.647269999957643,48.6,0,51
12,1,1,1.23788499995135,0,0.813535000081174,54,1,52
12,1,1,1.00829000002705,0.010015000369008,0.732285000034608,54,1,53
12,2,2,0.752495000022464,0.949334504801342,1.13655000005383,48.6,1,54
12,1,1,0.808309999993071,1,1.28686999995261,48.6,1,55
12,2,1,1.28208499995526,0.044310428465273,0.954890000051819,43.74,0,56
12,1,1,0.893909999984317,1,1.08340500004124,48.6,1,57
12,2,2,1.18392500001937,0.335563291769176,0.959174999967217,48.6,1,58
12,2,2,0.83554500003811,0.956766476485328,0.814514999976382,43.74,1,59
12,1,2,1.6687399999937,0.419592560778078,1.28301999997348,43.74,0,60
12,1,1,0.73664000001736,1,1.06263499998022,48.6,1,61
12,2,2,0.823080000001937,0.911103695611663,0.83734500000719,48.6,1,62
12,2,2,0.726615000050515,0.867249588749419,1.66038499993738,43.74,1,63
12,1,1,0.820970000000671,1,1.26898499997333,43.74,1,64
12,2,2,0.832060000044294,0.757983420802549,1.06565499992575,39.366,1,65
12,1,1,0.890354999923147,0.870999375377487,1.04199499997776,39.366,1,66
12,1,2,1.64176999998745,0.033751768513566,0.599045000039041,35.4294,0,67
12,2,2,1.27530999993905,0,0.886524999979883,39.366,1,68
12,2,2,0.80347000004258,1,1.2988099999493,39.366,1,69
12,1,2,1.20160999998916,0.130354906503717,0.800515000009909,35.4294,0,70
12,1,1,0.90824000001885,1,0.814054999966174,39.366,1,71
12,2,1,1.24610999994911,0.168734217431259,1.0779549999861,39.366,0,72
12,2,2,0.720330000040121,1,1.03186999994796,43.74,1,73
12,1,1,1.51965499995276,0.233450794175219,0.874060000060126,43.74,1,74
12,1,1,0.737444999977015,1,0.807555000064895,39.366,1,75
12,2,2,1.17211500008125,0.25942474672034,0.774224999942817,39.366,1,76
12,1,1,0.776899999938905,1,0.861375000094995,35.4294,1,77
12,2,2,0.834980000043288,0.866883010355345,0.902995000011288,35.4294,1,78
12,1,1,0.767389999935403,1,0.930909999995492,31.88646,1,79
12,2,2,1.23508499993477,0.112131494067909,1.1467549999943,31.88646,1,80
12,2,2,1.55190999992192,0,0.955195000045933,28.697814,1,81
12,1,1,0.728325000032783,1,0.808459999971092,28.697814,1,82
12,1,1,0.745314999949187,1,0.79605000000447,25.8280326,1,83
12,2,2,0.775640000007115,0.742228896179079,0.720424999948591,25.8280326,1,84
12,2,2,1.15527500002645,0.081529557856743,0.94300500000827,23.24522934,1,85
12,1,1,0.722910000011325,1,0.792119999998249,23.24522934,1,86
12,2,2,0.780634999973699,0.882392144242722,1.08156500000041,20.920706406,1,87
12,1,1,0.703789999941364,1,0.815625000046566,20.920706406,1,88
12,1,1,1.7848150000209,0.263032214698674,0.726729999994859,18.8286357654,1,89
12,2,2,1.03931000002194,0.132632064371654,0.958639999968,18.8286357654,1,90
12,2,1,0.947329999995418,0.076524020361865,1.39697999996133,16.94577218886,0,91
12,1,1,0.841215000022203,0.584366150470354,0.804890000028536,18.8286357654,1,92
12,2,2,0.717230000067502,1,0.820409999927506,18.8286357654,1,93
12,1,1,0.819584999931976,1,0.867115000030026,16.94577218886,1,94
12,2,2,0.703024999937043,1,0.875665000057779,16.94577218886,1,95
12,1,1,1.1824150000466,0.15785083136463,0.825450000003912,15.251194969974,1,96
13,1,1,0.777614999969956,1,1.18987500004005,60,1,1
13,2,2,0.597039999964181,1,1.20842999999877,54,1,2
13,2,2,0.67404000001261,1,1.7622449999908,54,1,3
13,1,1,0.753030000021681,1,1.4510049999808,48.6,1,4
13,2,2,0.622894999978598,1,1.06233500002418,48.6,1,5
13,1,1,0.719510000024457,1,1.12494499998866,43.74,1,6
13,1,1,0.637390000047162,1,0.84791499999119,43.74,1,7
13,2,2,1.52007000002777,0.597140093024143,1.20891499996651,39.366,1,8
13,2,2,0.984170000010636,1,1.23732000001473,39.366,1,9
13,1,1,0.752710000029765,1,0.948434999969322,35.4294,1,10
13,2,1,1.34655499999644,1,0.989600000029895,35.4294,0,11
13,1,1,0.752500000002328,1,0.861100000038277,39.366,1,12
13,1,1,0.730130000039935,1,0.989324999973178,39.366,1,13
13,2,2,0.618305000010878,1,0.93560000002617,35.4294,1,14
13,2,2,0.844564999977592,1,0.810895000002347,35.4294,1,15
13,1,1,0.815679999999702,1,0.861145000031684,31.88646,1,16
13,1,1,0.547955000016373,1,0.968954999989364,31.88646,1,17
13,2,1,1.34663500002353,1,0.890220000001136,28.697814,0,18
13,1,1,1.161705000035,1,0.784990000014659,31.88646,1,19
13,2,2,0.736945000011474,1,0.815345000009984,31.88646,1,20
13,1,1,0.580669999995735,1,0.874409999989439,28.697814,1,21
13,2,2,1.01136999996379,0.265306122448979,0.911554999998771,28.697814,1,22
13,1,1,1.12544500001241,1,0.995774999959394,25.8280326,1,23
13,2,2,0.935220000043046,1,1.01744999998482,25.8280326,1,24
13,1,1,0.744609999994282,1,1.87870499998098,23.24522934,1,25
13,2,1,1.07901500002481,0.964482933832953,1.37630000000354,23.24522934,0,26
13,2,1,0.757830000016838,1,0.94445499998983,25.8280326,0,27
13,1,1,0.64967000001343,1,0.959325000003446,28.697814,1,28
13,2,1,1.24037499999395,1,1.04607500002021,28.697814,0,29
13,1,1,1.07110000000102,1,0.735894999990705,31.88646,1,30
13,2,1,1.31900499999756,1,1.06007000000682,31.88646,0,31
13,1,1,1.02759499999229,1,0.868179999990389,35.4294,1,32
13,1,1,0.79126999998698,1,0.852255000034347,35.4294,1,33
13,2,2,0.669869999983348,1,0.781574999971781,31.88646,1,34
13,1,1,0.904954999976326,1,1.58185999997659,31.88646,1,35
13,2,2,0.637709999980871,1,1.05713500001002,28.697814,1,36
13,1,1,0.920815000019502,1,0.968059999984689,28.697814,1,37
13,2,2,0.673810000007506,1,0.9393900000141,25.8280326,1,38
13,1,1,0.858939999947324,1,0.784585000015795,25.8280326,1,39
13,2,2,0.654795000038575,1,0.812884999962989,23.24522934,1,40
13,1,1,0.626889999955893,1,0.900520000024699,23.24522934,1,41
13,2,2,0.5219550000038,1,1.0582750000176,20.920706406,1,42
13,2,2,0.552079999994021,1,0.83562999998685,20.920706406,1,43
13,1,1,0.676685000013094,1,0.897730000026058,18.8286357654,1,44
13,1,1,0.948700000008103,1,0.808290000015404,18.8286357654,1,45
13,2,2,0.659960000019055,1,0.87624999997206,16.94577218886,1,46
13,1,1,0.887625000032131,1,0.792524999997113,16.94577218886,1,47
13,2,2,0.5926750000217,1,0.828489999985322,15.251194969974,1,48
13,2,2,0.578709999972489,1,0.717070000013337,15.251194969974,1,49
13,1,1,0.994590000016615,1,0.808744999987539,13.7260754729766,1,50
13,2,2,0.478230000007898,1,1.11714499996742,13.7260754729766,1,51
13,1,1,0.969685000018217,1,0.77412999997614,12.3534679256789,1,52
13,1,1,0.984845000028145,1,1.62868499994511,12.3534679256789,1,53
13,2,2,0.65995500003919,1,0.812884999962989,11.1181211331111,1,54
13,2,2,0.810750000004191,1,1.02438499999698,11.1181211331111,1,55
13,1,1,0.771954999945592,1,0.841630000039004,10.0063090198,1,56
13,1,1,1.44368999998551,1,0.800645000010263,10.0063090198,1,57
13,2,2,0.59041999996407,1,0.945535000006203,9.00567811781996,1,58
13,1,2,1.14530999999261,1,0.635349999996834,9.00567811781996,0,59
13,2,2,1.01295499998378,1,0.707129999995232,10.0063090198,1,60
13,1,1,1.22612000000663,1,1.31867499998771,10.0063090198,1,61
13,2,2,0.769144999969285,1,0.675925000046846,9.00567811781996,1,62
13,1,2,0.872965000045951,1,0.664509999973234,9.00567811781996,0,63
13,2,2,0.587200000009034,1,0.731679999968037,10.0063090198,1,64
13,1,1,0.782850000017788,1,0.65208500000881,10.0063090198,1,65
13,2,2,0.524730000004638,1,0.858784999989439,9.00567811781996,1,66
13,1,1,0.96837499999674,1,0.674959999974817,9.00567811781996,1,67
13,2,2,0.97029999998631,1,0.68478499999037,8.10511030603796,1,68
13,1,1,1.01896499999566,1,0.617170000041369,8.10511030603796,1,69
13,2,2,0.803329999966081,1,1.85088500002166,7.29459927543417,1,70
13,2,2,0.573314999986906,1,0.782505000010133,7.29459927543417,1,71
13,1,1,0.853464999992866,1,0.823074999963865,6.56513934789075,1,72
13,1,1,1.05580999999074,1,0.704864999977872,6.56513934789075,1,73
13,2,2,0.802455000055488,1,0.716769999999087,5.90862541310167,1,74
13,2,2,0.674604999949224,1,0.786780000024009,5.90862541310167,1,75
13,1,1,0.755755000049248,1,0.748529999982566,5.31776287179151,1,76
13,1,1,1.02015500003472,1,0.697584999958053,5.31776287179151,1,77
13,2,2,0.576979999954347,1,0.67758000001777,4.78598658461236,1,78
13,2,2,0.610435000038706,1,0.678594999946654,4.78598658461236,1,79
13,1,1,0.681125000002794,1,1.28969000000507,4.30738792615112,1,80
13,1,1,0.694949999975506,1,0.577475000056438,4.30738792615112,1,81
13,2,2,0.527555000036955,1,0.687760000000708,3.87664913353601,1,82
13,1,2,0.786785000003874,1,0.680754999979399,3.87664913353601,0,83
13,2,2,0.683929999999236,1,0.642709999985527,4.30738792615112,1,84
13,2,2,0.663640000042506,1,1.19291499996325,4.30738792615112,1,85
13,1,2,0.887690000003204,1,0.74828499997966,3.87664913353601,0,86
13,1,1,0.708099999988917,1,0.710114999965299,4.30738792615112,1,87
13,2,2,0.954310000000987,1,0.700514999974985,4.30738792615112,1,88
13,2,2,0.696699999971315,1,0.64443000004394,3.87664913353601,1,89
13,1,2,0.820965000020806,1,0.690149999980349,3.87664913353601,0,90
13,2,2,0.773074999975506,1,0.717735000012908,4.30738792615112,1,91
13,1,1,1.24791000003461,1,0.675784999970347,4.30738792615112,1,92
13,2,2,0.833240000007208,1,0.582070000004023,3.87664913353601,1,93
13,1,1,0.917205000005197,1,0.695245000009891,3.87664913353601,1,94
13,1,2,2.96934000001056,0.53795896616037,1.35247500002151,3.48898422018241,0,95
13,2,2,0.83490499999607,1,0.632525000022724,3.87664913353601,1,96
14,1,1,0.787649999999994,0.979076360712288,2.97262,48.6,1,1
14,2,2,1.54133500000002,0.525646504251395,1.45756,48.6,1,2
14,2,2,1.54849000000002,0.491366640588117,5.19797499999998,43.74,1,3
14,1,1,0.617429999999964,0.998906182097907,2.44154000000001,43.74,1,4
14,2,2,2.34771999999997,0.429218939908262,3.52120000000001,39.366,1,5
14,1,1,0.704675000000017,1,2.01171999999997,39.366,1,6
14,2,2,0.972595000000001,0.213231355872174,1.54615500000003,35.4294,1,7
14,1,1,0.766025000000023,1,2.55706,35.4294,1,8
14,1,1,0.719529999999999,0.984425789740264,1.328685,31.88646,1,9
14,2,2,0.740924999999988,0.3705567963024,1.42394999999998,31.88646,1,10
14,2,2,1.48736499999999,0.393135118465094,2.78379500000001,28.697814,1,11
14,1,1,0.712305000000022,0.715068209934709,1.40385999999999,28.697814,1,12
14,2,1,1.00276499999998,0.581720476296876,1.48314500000002,25.8280326,0,13
14,1,1,0.699904999999999,0.995537123578718,1.91633499999999,28.697814,1,14
14,2,2,1.10635999999999,0.178026569117571,1.48938,28.697814,1,15
14,1,1,0.610940000000002,0.989913376680198,1.29587,25.8280326,1,16
14,1,1,0.741494999999995,0.941488916744014,1.10544500000001,25.8280326,1,17
14,2,2,0.678924999999988,0.599388001374095,1.50404999999999,23.24522934,1,18
14,2,2,0.680344999999972,0.919848957016517,1.44367000000004,23.24522934,1,19
14,1,1,0.557150000000023,0.986578953881911,1.29052999999997,20.920706406,1,20
14,1,1,0.642450000000012,0.599388001374095,1.21054500000004,20.920706406,1,21
14,2,2,1.15257000000007,0.484212063624284,1.10764499999996,18.8286357654,1,22
14,2,2,0.767914999999979,0.286145987086464,1.12361000000004,18.8286357654,1,23
14,1,1,0.614719999999972,1,2.06621500000003,16.94577218886,1,24
14,2,2,0.675099999999977,0.596420570715491,1.226,16.94577218886,1,25
14,1,1,0.622809999999998,0.959519559126783,2.18582499999995,15.251194969974,1,26
14,1,1,0.671809999999998,0.985349077549714,1.32961000000004,15.251194969974,1,27
14,2,2,0.694994999999995,0.339320956371955,1.44153499999997,13.7260754729766,1,28
14,1,1,0.619339999999967,1,2.02940999999997,13.7260754729766,1,29
14,2,2,0.715449999999953,0.337253060914119,1.25415500000003,12.3534679256789,1,30
14,1,1,1.51434999999998,0.471086079856788,1.50860999999993,12.3534679256789,1,31
14,2,1,0.749159999999974,0.433289559734412,1.03235499999998,11.1181211331111,0,32
14,1,1,0.798135000000009,0.995537123578718,1.29604500000004,12.3534679256789,1,33
14,2,2,0.91720000000007,0.309408711254276,1.23117999999999,12.3534679256789,1,34
14,1,1,1.09794500000007,0.947362483132823,1.73309499999997,11.1181211331111,1,35
14,2,2,0.649494999999995,0.660325014592949,1.18508000000002,11.1181211331111,1,36
14,1,1,0.59701999999996,0.987807492421405,2.03429500000004,10.0063090197999,1,37
14,2,2,0.815224999999977,0.418109608927572,1.30621000000002,10.0063090197999,1,38
14,1,1,0.729979999999981,0.980663269296335,1.73401500000001,9.00567811781995,1,39
14,2,2,0.682250000000058,0.45392414148194,1.16456499999994,9.00567811781995,1,40
14,1,1,0.693354999999981,0.97697075953789,1.51021000000002,8.10511030603796,1,41
14,2,2,0.718354999999981,0.363294564292197,1.20282000000001,8.10511030603796,1,42
14,2,2,0.829645000000019,0.391102298045997,1.03762499999994,7.29459927543416,1,43
14,1,1,0.81423000000004,0.431157091421196,0.985179999999935,7.29459927543416,1,44
14,2,1,0.885150000000023,0.417449259373442,0.998754999999946,6.56513934789075,0,45
14,1,1,0.667150000000023,0.981075086776682,1.56785000000003,7.29459927543416,1,46
14,2,2,0.847775000000023,0.422424011171217,1.15923999999999,7.29459927543416,1,47
14,1,1,0.698489999999991,1,2.11288,6.56513934789075,1,48
14,2,2,0.698324999999953,0.929472680012954,1.03944,6.56513934789075,1,49
14,1,1,0.651199999999953,0.985410603206418,1.15278000000003,5.90862541310167,1,50
14,1,1,0.760565000000061,0.502505644932322,1.13627500000002,5.90862541310167,1,51
14,2,2,0.728440000000002,0.570391213031623,1.25853999999998,5.3177628717915,1,52
14,2,2,0.716734999999986,0.604978211142732,0.982789999999979,5.3177628717915,1,53
14,1,1,0.590525000000023,0.98356337166162,1.46553000000003,4.78598658461235,1,54
14,1,1,0.707890000000014,0.950350930611441,1.30667999999999,4.78598658461235,1,55
14,2,2,0.698604999999981,0.597358939250908,1.20110499999998,4.30738792615112,1,56
14,1,1,0.602570000000007,0.651868400898516,0.962059999999998,4.30738792615112,1,57
14,2,1,0.733840000000084,0.639455782312925,0.931704999999958,3.87664913353601,0,58
14,2,2,0.717699999999953,0.56305424604478,1.38045000000001,4.30738792615112,1,59
14,1,1,0.634184999999998,0.94958869991285,1.44621999999997,4.30738792615112,1,60
14,2,2,0.857614999999991,0.733400935407053,1.11060499999998,3.87664913353601,1,61
14,1,1,0.605360000000044,1,1.54410999999999,3.87664913353601,1,62
14,2,2,0.752635000000009,0.959099686058045,1.383,3.48898422018241,1,63
14,1,1,0.687264999999956,0.856193727928479,1.28079499999998,3.48898422018241,1,64
14,1,1,0.877460000000021,0.95996025380257,1.134875,3.14008579816417,1,65
14,2,2,0.8385,0.755617250672057,1.10920499999996,3.14008579816417,1,66
14,1,1,0.630440000000002,0.987807492421405,1.80409999999998,2.82607721834775,1,67
14,2,2,0.960905000000028,0.587921034122219,1.03930499999999,2.82607721834775,1,68
14,2,2,0.883124999999942,0.56305424604478,1.03755499999999,2.54346949651297,1,69
14,1,1,0.623775000000023,1,2.10313500000007,2.54346949651297,1,70
14,1,1,0.687719999999972,0.876007903501989,1.044125,2.28912254686168,1,71
14,2,2,0.966130000000005,0.785608376507364,1.04933500000008,2.28912254686168,1,72
14,2,1,1.11281999999995,0.721516847018023,0.957539999999921,2.06021029217551,0,73
14,1,1,0.683390000000014,1,2.13696999999997,2.28912254686168,1,74
14,2,2,0.690159999999916,0.974115687171362,1.21327000000002,2.28912254686168,1,75
14,1,1,0.649834999999963,0.993584194163895,1.192245,2.06021029217551,1,76
14,2,2,0.716810000000056,0.979488760470222,1.09841500000004,2.06021029217551,1,77
14,1,1,1.11731500000006,0.936376923773944,1.14529499999993,1.85418926295796,1,78
14,1,1,0.751890000000014,0.983707153855727,1.19477000000002,1.85418926295796,1,79
14,2,1,0.706614999999991,0.979756739072174,1.55006000000006,1.66877033666216,0,80
14,1,1,0.732510000000009,0.977032745491297,1.02609999999998,1.85418926295796,1,81
14,2,2,0.752349999999977,0.949525156680349,0.985589999999967,1.85418926295796,1,82
14,2,2,0.705164999999921,0.959519559126783,1.35263,1.66877033666216,1,83
14,1,1,0.559375000000116,0.984425789740264,1.19879000000004,1.66877033666216,1,84
14,1,1,0.666785000000033,0.987991658087278,1.1212350000001,1.50189330299595,1,85
14,2,2,0.832975000000093,0.980168888980299,1.06743500000006,1.50189330299595,1,86
14,2,2,0.984195000000065,0.880110169555072,1.21551000000001,1.35170397269635,1,87
14,1,1,0.595875000000116,1,1.78815999999992,1.35170397269635,1,88
14,2,2,0.728089999999967,0.989913376680198,1.11094500000007,1.21653357542672,1,89
14,1,1,0.721494999999995,0.989913376680198,1.11446500000008,1.21653357542672,1,90
14,1,1,0.655499999999884,0.981733681071404,1.42013000000012,1.09488021788405,1,91
14,2,2,0.69535999999987,0.968799902901523,1.03697499999998,1.09488021788405,1,92
14,1,1,0.653920000000042,0.986988615156441,1.14825999999989,0.98539219609564,1,93
14,2,2,0.645125,0.997486708451714,1.09274000000011,0.98539219609564,1,94
14,1,2,1.35205499999993,0.539588364842691,0.838770000000019,0.886852976486076,0,95
14,2,2,1.22813,0.539350986587409,0.904099999999977,0.98539219609564,1,96
15,1,1,1.03083999996306,1,2.42595500004245,66.6666666666667,1,1
15,2,2,0.855664999980945,1,1.58046000002651,66.6666666666667,1,2
15,1,1,1.10336499998812,1,1.47640500002308,60,1,3
15,2,1,0.94409500004258,1,1.38162000000011,60,0,4
15,1,1,0.876654999970924,1,1.36434999998892,66.6666666666667,1,5
15,2,2,0.978915000043344,1,1.23649999999907,66.6666666666667,1,6
15,1,1,1.01262500003213,1,1.09653500001878,60,1,7
15,2,2,0.665084999985993,1,0.976344999973662,60,1,8
15,1,1,1.63738000002922,1,1.09768000000622,54,1,9
15,2,2,1.1402399999788,1,1.57618500001263,54,1,10
15,1,1,0.863580000004731,1,1.08586499997182,48.6,1,11
15,2,2,1.16059500002302,1,1.14673500001663,48.6,1,12
15,1,1,0.831499999971129,1,0.845770000014454,43.74,1,13
15,2,2,0.745595000043977,1,1.50387999997474,43.74,1,14
15,1,1,1.87965000001714,0.175783358602186,2.15616000001319,39.366,1,15
15,2,2,0.891909999947529,1,1.67182500002673,39.366,1,16
15,2,2,0.852240000036545,1,1.15294499997981,35.4294,1,17
15,1,1,0.660975000006147,1,1.08071999996901,35.4294,1,18
15,1,1,3.01628999999957,0,2.0779249999905,31.88646,1,19
15,2,2,0.793744999973569,1,1.25544500001706,31.88646,1,20
15,1,2,3.77944499999285,0,1.92323000001488,28.697814,0,21
15,2,2,0.748640000005253,1,1.141484999971,31.88646,1,22
15,2,2,0.643005000019912,1,1.1490749999648,31.88646,1,23
15,1,1,0.554315000015777,1,1.09201500000199,28.697814,1,24
15,1,1,0.756109999958426,1,0.997590000042692,28.697814,1,25
15,2,2,0.623090000008233,1,1.01198000001023,25.8280326,1,26
15,1,1,0.809560000023339,1,1.15418000001227,25.8280326,1,27
15,2,2,0.732740000006743,1,1.10903499997221,23.24522934,1,28
15,2,2,0.987254999985453,1,0.881074999982957,23.24522934,1,29
15,1,2,0.701874999969732,0.191100345813158,1.98177500005113,20.920706406,0,30
15,1,2,0.687299999990501,1,0.77773500001058,23.24522934,0,31
15,2,2,0.98021000000881,1,0.839174999971874,25.8280326,1,32
15,1,1,0.786025000037625,1,0.937159999972209,25.8280326,1,33
15,2,2,0.535685000009835,1,0.89416500000516,23.24522934,1,34
15,2,2,0.660435000027064,1,1.17530499998247,23.24522934,1,35
15,1,1,0.727684999990743,1,0.987790000042878,20.920706406,1,36
15,2,2,0.700264999992214,1,0.677515000046697,20.920706406,1,37
15,1,1,0.756364999979269,1,0.814410000049975,18.8286357654,1,38
15,1,2,0.641875000030268,1,1.23897499998566,18.8286357654,0,39
15,2,2,0.696950000012293,1,0.810534999996889,20.920706406,1,40
15,1,1,0.865034999966156,1,0.759090000006836,20.920706406,1,41
15,2,2,0.6581400000141,1,0.803109999978915,18.8286357654,1,42
15,1,1,0.739700000034645,1,0.654054999991786,18.8286357654,1,43
15,2,2,1.37025499995798,1,0.903270000009798,16.94577218886,1,44
15,1,1,0.691720000002533,1,0.88945000001695,16.94577218886,1,45
15,2,2,0.761809999996331,1,0.71341999998549,15.251194969974,1,46
15,2,2,1.64374000002863,0.15092276029509,0.997399999992922,15.251194969974,1,47
15,1,1,1.17302000004565,1,0.788889999967068,13.7260754729766,1,48
15,2,2,1.13838499999838,1,0.816999999980908,13.7260754729766,1,49
15,1,1,0.786695000017062,1,0.549524999980349,12.3534679256789,1,50
15,2,2,0.675609999976587,1,0.70910500001628,12.3534679256789,1,51
15,1,2,2.14351500000339,0,1.01021000003675,11.1181211331111,0,52
15,2,2,0.833430000056978,1,1.05186999996658,12.3534679256789,1,53
15,1,1,0.690780000004452,1,0.597519999952056,12.3534679256789,1,54
15,2,2,1.95514500001445,0.06846564036747,1.02494500001194,11.1181211331111,1,55
15,1,2,1.08706500002882,0.111313492411828,0.722230000013951,11.1181211331111,0,56
15,1,2,0.880550000001676,1,0.783900000038557,12.3534679256789,0,57
15,2,2,0.868804999976419,1,0.857544999977108,13.7260754729766,1,58
15,2,2,0.8551350000198,1,1.56067499995697,13.7260754729766,1,59
15,1,1,1.96355500002392,0.010619240444605,1.40356999996584,12.3534679256789,1,60
15,2,2,0.772869999986142,1,0.813535000022966,12.3534679256789,1,61
15,1,2,0.703005000017583,1,0.779080000007525,11.1181211331111,0,62
15,2,2,0.792634999961592,1,1.23649000003934,12.3534679256789,1,63
15,1,2,0.85018000000855,1,0.744439999980386,12.3534679256789,0,64
15,2,2,2.08160499995574,0,1.42381000000751,13.7260754729766,1,65
15,1,2,1.79214500001399,0,1.5388699999894,13.7260754729766,0,66
15,1,2,0.618069999967702,1,0.815340000030119,15.251194969974,0,67
15,2,1,1.10243500000797,1,0.745965000009164,16.94577218886,0,68
15,1,1,0.815000000002328,1,0.885889999975916,18.8286357654,1,69
15,2,2,1.14740000001621,1,0.660459999984596,18.8286357654,1,70
15,2,1,1.21529500000179,1,0.751005000027362,16.94577218886,0,71
15,1,1,0.719704999995884,1,0.768489999987651,18.8286357654,1,72
15,1,2,0.781860000046436,1,0.723549999995157,18.8286357654,0,73
15,2,2,0.634484999987762,1,0.650055000034627,20.920706406,1,74
15,1,2,1.10437499999534,0,0.828305000031833,20.920706406,0,75
15,2,2,0.733799999987241,1,0.647259999997914,23.24522934,1,76
15,2,2,1.68171500001336,0,1.48385499999858,23.24522934,1,77
15,1,2,0.700305000005756,1,0.714940000034403,20.920706406,0,78
15,1,1,0.609519999998156,1,0.633144999970682,23.24522934,1,79
15,2,2,1.04007499996806,1,0.629910000017844,23.24522934,1,80
15,1,1,0.631814999971539,1,1.11631499999203,20.920706406,1,81
15,2,2,0.662759999977425,1,1.06780499999877,20.920706406,1,82
15,1,1,0.69879499997478,1,0.903430000005756,18.8286357654,1,83
15,2,1,0.854014999989886,1,0.713660000008531,18.8286357654,0,84
15,2,2,0.681449999974575,1,0.620824999990873,20.920706406,1,85
15,1,1,0.758139999990817,1,0.666785000008531,20.920706406,1,86
15,1,1,0.815919999964535,1,1.13650500000222,18.8286357654,1,87
15,2,1,1.57618500001263,0.000646415712442,1.19663000002038,18.8286357654,0,88
15,1,1,0.68904999998631,1,0.53503999998793,20.920706406,1,89
15,2,2,0.821010000014212,1,0.598635000002105,20.920706406,1,90
15,2,2,0.715469999995548,1,0.604884999978822,18.8286357654,1,91
15,1,1,1.40643999999156,0,0.956425000040326,18.8286357654,1,92
15,2,2,0.748970000015106,1,0.703594999969937,16.94577218886,1,93
15,1,2,2.40462500002468,0,1.08081999997376,16.94577218886,0,94
15,2,2,0.740125000011176,1,0.860744999954477,18.8286357654,1,95
15,1,1,0.987600000051316,1,0.932319999963511,18.8286357654,1,96
16,2,1,1.99993000001996,0.091713464619954,1.79979999997886,48.6,0,1
16,1,1,3.7508150000067,0,2.08504000000539,54,1,2
16,2,2,2.09569499999634,0.418315808806539,2.07236499999999,54,1,3
16,1,2,3.43903499998851,0.076524020361865,1.9417400000093,48.6,0,4
16,1,2,3.02516500002821,0.277922914127676,2.41518999999971,54,0,5
16,2,2,1.93211500000325,0.497972182371738,2.18356000000495,60,1,6
16,1,2,3.62092000001576,0,1.62489499998628,60,0,7
16,2,2,2.59784999999101,0.174765102855204,2.674640000012,66.6666666666667,1,8
16,2,2,2.54103500000201,0.616522784474339,1.79470500000753,66.6666666666667,1,9
16,1,1,1.1340799999889,0.1442305829389,2.22456000000238,60,1,10
16,1,1,1.97010499998578,0.161141537027269,3.01221000001533,60,1,11
16,2,2,1.74706000002334,0.313483260714242,2.25023999999394,54,1,12
16,2,2,1.57728500000667,0.396749170477603,2.40951500000665,54,1,13
16,1,2,1.48428999999305,0.335708362910518,3.46639499999583,48.6,0,14
16,2,2,1.34770499999286,0.683638475225716,1.71368499999517,54,1,15
16,1,1,1.73805499999435,0.997344663893955,2.49804500001483,54,1,16
16,2,2,1.79483499997878,0.409672913089015,1.8166950000159,48.6,1,17
16,1,1,0.910554999980377,0.79742066525361,2.28638000000501,48.6,1,18
16,2,1,2.0736849999812,0.233758109814051,1.65821000002325,43.74,0,19
16,1,1,2.12110000001849,0.545529830784953,2.51223499997286,48.6,1,20
16,2,2,1.35240999999223,0.391492160181101,2.8447949999827,48.6,1,21
16,1,2,1.96798499999568,0.003677953935632,1.33692499998142,43.74,0,22
16,2,2,2.26925000001211,0.094459367925338,1.88643499999307,48.6,1,23
16,1,2,2.26701500001946,0.367528312432726,2.19919999997364,48.6,0,24
16,2,2,1.72409499998321,0.157465851083593,1.58112000001711,54,1,25
16,1,2,2.02815999998711,0,1.85280500000226,54,0,26
16,1,1,1.7670999999973,0.232033897508975,3.48090500000399,60,1,27
16,2,2,1.73745000001509,0.285498271875677,12.3223499999731,60,1,28
16,2,2,1.69017500002519,0.457981427666708,2.46224499997334,54,1,29
16,1,2,2.06205999999656,0.39593382785486,2.93444499999168,54,0,30
16,2,2,1.52191499999026,0.450580367008554,2.54448000001139,60,1,31
16,1,1,2.88714999999502,0.361187307560345,4.65155999999843,60,1,32
16,2,2,1.56148999999277,0.126259053671462,2.06993500000681,54,1,33
16,1,1,1.61175499999081,0.762518333202021,3.35868000000482,54,1,34
16,2,1,3.17690500000026,0.106627494161799,2.01399999999558,48.6,0,35
16,1,1,2.26751000000513,0.631608079820731,3.15411999999196,54,1,36
16,2,1,2.0350899999903,0.123927504096973,2.20381000000634,54,0,37
16,1,1,1.42517999999109,0.381658680985067,2.34916000001249,60,1,38
16,1,1,1.71312000000034,0.401360544217687,2.19250999999349,60,1,39
16,2,1,1.57604499999434,0.408541064739032,2.48385000001872,54,0,40
16,1,1,1.43968000001041,0.354114108648404,2.44214999998803,60,1,41
16,2,2,3.59807499998715,0,1.49449000001187,60,1,42
16,1,1,2.35820499999681,0,1.46862500000861,54,1,43
16,2,2,5.84286499998416,0.042196877669869,1.96254500001669,54,1,44
16,1,1,1.5426349999907,0.669519924523913,2.97557000000961,48.6,1,45
16,2,1,2.84113499999512,0.722399776122155,2.62395000000834,48.6,0,46
16,2,2,1.98746499998379,0.668921572254492,2.94738500000676,54,1,47
16,1,1,1.51915999999619,0.939972810997042,3.1807400000107,54,1,48
16,2,1,2.75088500001584,0.2138156933039,2.09723499999382,48.6,0,49
16,1,1,1.59892000001855,0.881647107612297,2.50557999999728,54,1,50
16,2,2,1.68361499998719,0.867249588749419,3.09213000000454,54,1,51
16,1,1,1.25310999999056,0.881737443936472,2.71487500000512,48.6,1,52
