Subj_idx,Stimulus,Response,Confidence,RT_dec,RT_conf,Trial_number,Skin_site,raw_Confidence_NotReverseCoded,raw_Response,logTransformed_RT_dec_NaNOutlier,logTransformed_RT_conf_NaNOutlier
1,41,0.95,100,4720,10761,1,1,0.13,0.95,8.459564079,9.283683766
1,44,4.96,81.45,3798,10100,2,2,18.55,4.96,8.242229891,9.220290703
1,47,7.94,60.82,1958,12750,3,3,39.18,7.94,7.579678823,9.453286551
1,44.5,7.03,61.37,2263,5056,4,4,38.63,7.03,7.724446646,8.528330936
1,42,2.97,90.62,3013,5817,5,5,9.38,2.97,8.010691539,8.668539944
1,46,1.96,86.12,2576,3933,6,6,13.88,1.96,7.853993087,8.277157772
1,41.5,3,84.93,2395,2235,7,7,15.07,3,7.78113851,7.711996507
1,46.5,7.05,62.4,3006,2468,8,8,37.6,7.05,8.00836557,7.811163385
1,44.5,1.01,95.21,1534,2205,9,1,4.79,1.01,7.335633982,7.698482788
1,41.5,0.98,100,1895,1413,10,2,-10.3,0.98,7.546974118,7.253470383
1,42,0.97,96.55,1493,1956,11,3,3.45,0.97,7.308542798,7.578656851
1,46.5,7.98,61.53,957,4034,12,4,38.47,7.98,6.863803391,8.302513719
1,44.5,4.98,71.81,1632,2491,13,5,28.19,4.98,7.397561536,7.820439515
1,44.5,4.58,80.66,3082,8202,14,6,19.34,4.58,8.033334016,9.012133306
1,46.5,7.9,80.98,1735,2268,15,7,19.02,7.9,7.458762692,7.726653665
1,42,1.48,NaN,1464,58126,16,8,4,1.48,7.288927695,NaN
1,47,8,91.25,1430,3876,17,1,8.75,8,7.265429723,8.262558973
1,47,8.01,100,1339,1668,18,2,-17.89,8.01,7.199678346,7.419380583
1,44.5,1.39,96.47,3610,2050,19,3,3.53,1.39,8.191463051,7.625595072
1,42,0,100,3805,1765,20,4,-18.13,-0.33,8.24407127,7.475905969
1,47,8.12,95.68,4375,8344,21,5,4.32,8.12,8.383661799,9.029297997
1,42.5,0,100,999,3483,22,6,-18.68,-1.23,6.906754779,8.15564927
1,44.5,0,100,1242,1639,23,7,-13.78,-0.2,7.124478262,7.401841579
1,44.5,4.04,98.92,1151,5676,24,8,1.08,4.04,7.048386409,8.644002038
2,41,2.95,79.79,4673,29614,1,1,20.21,2.95,8.449556543,10.2960025
2,44,3.98,97.42,2361,9019,2,2,2.58,3.98,7.766840537,9.107088742
2,47,4.99,NaN,5366,43613,3,3,36.81,4.99,8.587838031,NaN
2,44.5,7.01,93.39,1325,7878,4,4,6.61,7.01,7.189167738,8.971829344
2,41,1.93,100,1784,1097,5,5,-16.55,1.93,7.486613313,7.00033446
2,48,7.99,81.69,1248,20869,6,6,18.31,7.99,7.129297549,9.946020083
2,41,1.9,100,1790,5641,7,7,-10.38,1.9,7.489970899,8.637816634
2,47.5,7.98,76.47,5965,5270,8,8,23.53,7.98,8.693664335,8.569785642
2,44.5,4.08,100,1576,1476,9,1,-18.29,4.08,7.36264527,7.297091005
2,41,1.94,100,1083,788,10,2,-16.47,1.94,6.987490247,6.66949809
2,41,1.04,100,1791,653,11,3,-14.65,1.04,7.490529402,6.481577129
2,47.5,8.35,100,1499,6926,12,4,-16.47,8.35,7.312553498,8.843037725
2,44.5,5.03,100,1040,1533,13,5,-3.82,5.03,6.946975992,7.334981879
2,44.5,3.08,100,1048,986,14,6,-18.84,3.08,6.954638865,6.893656355
2,47.5,8.49,98.68,4214,1249,15,7,1.32,8.49,8.346167594,7.13009851
2,41.5,2.13,100,3659,1030,16,8,-17.81,2.13,8.204945165,6.937314081
2,47,4.93,100,1866,1576,17,1,-16.94,4.93,7.531552381,7.36264527
2,47.5,7.92,78.76,2110,1015,18,2,21.24,7.92,7.654443226,6.922643891
2,44.5,4,100,778,684,19,3,-18.6,4,6.656726524,6.527957918
2,41.5,1.14,100,1298,588,20,4,-17.89,1.14,7.168579897,6.376726948
2,47.5,7.09,100,1528,5130,21,5,-14.65,7.09,7.33171497,8.542860938
2,41.5,0.93,100,1068,860,22,6,-0.66,0.93,6.97354302,6.756932389
2,44.5,1.02,100,2359,806,23,7,-18.76,1.02,7.765993079,6.692083743
2,45,4,100,1673,659,24,8,-18.45,4,7.422373701,6.490723535
3,41,1.08,0.58,4061,4912,1,1,99.42,1.08,8.309184528,8.49943647
3,44,1.49,100,3347,8684,2,2,-1.93,1.49,8.115819701,9.069237531
3,47,2.2,100,3290,3120,3,3,-5.64,2.2,8.098642844,8.045588281
3,48.5,4.63,97.02,4881,7182,4,4,2.98,4.63,8.493105396,8.879333175
3,44.5,1.69,100,2853,1931,5,5,-7.85,1.69,7.956126351,7.565793282
3,50,5,100,2096,1262,6,6,-18.92,5,7.647786045,7.140453043
3,44.5,2.5,100,2221,2046,7,7,-17.66,2.5,7.705712824,7.623641947
3,50,5.19,97.26,2541,4864,8,8,2.74,5.19,7.840312983,8.489616424
3,49,2.99,100,1687,1894,9,1,-0.03,2.99,7.430707083,7.546446274
3,45,1.01,100,3263,1280,10,2,-0.66,1.01,8.090402297,7.154615357
3,45,1.88,100,2839,957,11,3,-16.31,1.88,7.951207156,6.863803391
3,50,4.36,94.1,4624,3901,12,4,5.9,4.36,8.43901541,8.26898821
3,50,4.36,100,5340,1748,13,5,-18.84,4.36,8.582980932,7.466227556
3,50,4,100,2568,953,14,6,0.37,4,7.850882665,6.859614904
3,50,3.58,100,2652,1112,15,7,-18.68,3.58,7.883069351,7.013915475
3,45.5,2.36,100,11957,3604,16,8,-2.56,2.36,9.38907216,8.189799619
3,50,3.6,100,3554,884,17,1,-15.6,3.6,8.175829009,6.784457063
3,50,2.7,100,2458,766,18,2,-0.58,2.7,7.80710329,6.64118217
3,48.5,3.91,100,8339,671,19,3,-8.41,3.91,9.028698584,6.508769137
3,45.5,1.07,100,9846,1391,20,4,-15.76,1.07,9.19482056,7.237778192
3,50,3.74,100,3312,621,21,5,-6.67,3.74,8.105307516,6.431331082
3,45.5,0.86,100,4590,1772,22,6,-14.97,0.86,8.431635303,7.479864131
3,48.5,2.23,NaN,NaN,NaN,23,7,-11.96,2.23,NaN,NaN
3,49.5,3.47,NaN,NaN,NaN,24,8,11.91,3.47,NaN,NaN
4,41,1.07,100,1020,3234,1,1,-5.09,1.07,6.927557906,8.08147504
4,44,1.03,NaN,8368,1885,2,2,-8.41,1.03,NaN,NaN
4,47,5.36,100,3950,2823,3,3,0.13,5.36,8.281470858,7.945555428
4,46.5,6.43,100,3673,1989,4,4,0.21,6.43,8.208764046,7.595387279
4,43.5,2.56,100,3312,1416,5,5,-2.32,2.56,8.105307516,7.255591274
4,48.5,7.98,100,2152,4024,6,6,-6.11,7.98,7.674152921,8.300031712
4,42.5,1.03,100,2305,2134,7,7,-0.82,1.03,7.742835955,7.665753432
4,48.5,8.28,NaN,1818,5432,8,8,-0.19,8.28,7.505492275,NaN
4,45.5,4.03,100,2020,1834,9,1,-0.74,4.03,7.61085279,7.514254653
4,43,0,100,721,1836,10,2,-5.88,-1.35,6.580639137,7.515344571
4,43.5,0,100,1118,1376,11,3,-15.52,-1.38,7.019296654,7.226936018
4,48,8.05,100,4200,949,12,4,-4.93,8.05,8.342839804,6.855408799
4,46,5.35,100,1388,1042,13,5,-11.73,5.35,7.235619141,6.948897222
4,46,1.96,100,2402,1207,14,6,-6.04,1.96,7.784057003,7.095893221
4,48,10,100,861,929,15,7,-4.69,10.5,6.758094504,6.834108739
4,44,2.98,100,2645,1103,16,8,-16.15,2.98,7.880426344,7.005789019
4,47.5,6.98,100,2290,1312,17,1,-6.83,6.98,7.736307097,7.17930797
4,47.5,8.08,100,1637,852,18,2,-16.71,8.08,7.400620577,6.747586527
4,46,5.4,100,1437,816,19,3,-15.76,5.4,7.270312886,6.704414355
4,44,1.01,100,1687,976,20,4,-7.38,1.01,7.430707083,6.883462586
4,47.5,8.05,100,1367,1100,21,5,-18.84,8.05,7.220373837,7.003065459
4,44,1,100,1353,972,22,6,-2.4,1,7.210079628,6.879355804
4,46,6.97,100,3528,656,23,7,-16.08,6.97,8.168486417,6.486160789
4,46,5.48,100,1659,861,24,8,-16.94,5.48,7.41397029,6.758094504
5,41,1.39,90.86,4652,5929,1,1,9.14,1.39,8.445052514,8.687610844
5,44,1.99,90.62,4651,4027,2,2,9.38,1.99,8.444837529,8.300776961
5,47,6.4,83.43,2498,6555,3,3,16.57,6.4,7.823245691,8.787983396
5,45.5,5.07,88.17,2416,1589,4,4,11.83,5.07,7.789868559,7.370860167
5,42,1.23,NaN,11042,6328,5,5,8.19,1.23,NaN,NaN
5,48.5,7.97,100,2291,8993,6,6,-6.91,7.97,7.736743682,9.104201776
5,42.5,3.02,88.8,1812,1244,7,7,11.2,3.02,7.502186487,7.126087273
5,48,8.1,100,1867,917,8,8,-16,8.1,7.532088144,6.821107472
5,45,6.01,90.62,1144,3571,9,1,9.38,6.01,7.042286172,8.180600948
5,42,1.06,90.7,2527,10519,10,2,9.3,1.06,7.834788107,9.260938425
5,42.5,1.02,97.81,778,1444,11,3,2.19,1.02,6.656726524,7.275172319
5,48,8.11,100,1422,1322,12,4,-17.89,8.11,7.25981961,7.18690102
5,45.5,6.42,80.5,708,1015,13,5,19.5,6.42,6.562444094,6.922643891
5,45,2.01,100,1617,824,14,6,-3.74,2.01,7.38832786,6.71417053
5,47.5,7.51,86.83,1014,840,15,7,13.17,7.51,6.921658184,6.733401892
5,43,2.45,89.2,833,1584,16,8,10.8,2.45,6.725033642,7.367708572
5,48,8.17,90.54,2722,9064,17,1,9.46,8.17,7.909122183,9.112065803
5,47.5,6.52,91.33,1874,906,18,2,8.67,6.52,7.535830463,6.809039306
5,45.5,3.96,94.18,1118,2735,19,3,5.82,3.96,7.019296654,7.913886715
5,42.5,1.44,100,1533,575,20,4,-6.19,1.44,7.334981879,6.354370041
5,48,7.5,92.28,1687,7132,21,5,7.72,7.5,7.430707083,8.872346979
5,42.5,1.71,89.91,1110,945,22,6,10.09,1.71,7.012115294,6.851184927
5,45.5,1.98,92.91,1783,7908,23,7,7.09,1.98,7.486052618,8.975630184
5,45.5,4.6,91.96,1075,1160,24,8,8.04,4.6,6.980075941,7.056175284
6,41,3,90.62,4735,13030,1,1,9.38,3,8.462737006,9.47500967
6,44,5.43,100,6970,15404,2,2,-0.58,5.43,8.849370504,9.642382495
6,46.5,7.96,NaN,2707,51970,3,3,-5.56,7.96,7.90359629,NaN
6,43.5,7.65,81.14,9680,27904,4,4,18.86,7.65,9.17781718,10.23652533
6,40.5,5.01,100,2888,3414,5,5,-1.53,5.01,7.9683195,8.135639903
6,45,7.95,100,3395,28149,6,6,-9.59,7.95,8.13005904,10.24526711
6,39.5,5.88,90.54,6006,8203,7,7,9.46,5.88,8.700514249,9.01225522
6,44.5,7.43,100,3263,2559,8,8,-0.27,7.43,8.090402297,7.847371836
6,41,3.99,100,1832,1313,9,1,-14.49,3.99,7.513163545,7.180069874
6,38,2.99,100,1618,1387,10,2,-0.98,2.99,7.388946098,7.23489842
6,37,2.42,100,2020,1323,11,3,-0.66,2.42,7.61085279,7.187657164
6,44.5,6.48,100,6138,1228,12,4,-16.94,6.48,8.722254235,7.113142109
6,41.5,4.03,100,3263,1027,13,5,-16.08,4.03,8.090402297,6.93439721
6,41.5,4.94,100,1145,893,14,6,-18.6,4.94,7.043159916,6.794586581
6,45,7.93,100,5937,2302,15,7,-0.34,7.93,8.688959234,7.741533589
6,37,3.98,100,1291,1361,16,8,-17.26,3.98,7.163172391,7.215975003
6,45,6.43,100,1583,7416,17,1,-3.11,6.43,7.36707706,8.911395107
6,45,6.97,100,1576,960,18,2,-18.29,6.97,7.36264527,6.866933284
6,41.5,4.97,100,1735,1992,19,3,-2,4.97,7.458762692,7.596894438
6,36,1.98,100,3325,2110,20,4,-13.31,1.98,8.109224953,7.654443226
6,45.5,7.97,88.88,1645,4461,21,5,11.12,7.97,7.405495663,8.403128235
6,36.5,4.48,100,6743,1831,22,6,-3.98,4.48,8.816260209,7.512617545
6,41,2.93,100,679,986,23,7,-0.74,2.93,6.520621128,6.893656355
6,41,4.97,100,2749,1276,24,8,-16.71,4.97,7.918992488,7.151485464
7,41,1.9,98.76,3930,9569,1,1,1.24,1.9,8.276394705,9.166283986
7,44,2.47,97.18,1916,3016,2,2,2.82,2.47,7.557994959,8.011686729
7,46,7.96,95.92,2561,4009,3,3,4.08,7.96,7.848153086,8.296297113
7,44,7.98,97.42,1672,1782,4,4,2.58,7.98,7.421775794,7.485491608
7,42.5,1.98,100,1825,1937,5,5,0.76,1.98,7.509335266,7.568895663
7,45,8.93,97.5,721,8092,6,6,2.5,8.93,6.580639137,8.998631198
7,42.5,7.88,97.1,1555,2438,7,7,2.9,7.88,7.349230825,7.79893331
7,44.5,7.92,100,1569,1866,8,8,-3.59,7.92,7.358193753,7.531552381
7,43,7.99,97.42,1874,3121,9,1,2.58,7.99,7.535830463,8.045908742
7,42,0.85,96.95,2200,2084,10,2,3.05,0.85,7.696212639,7.642044403
7,42.5,7.94,97.26,1492,1630,11,3,2.74,7.94,7.307872781,7.396335294
7,44,7.9,97.81,1679,1559,12,4,2.19,7.9,7.425953657,7.351799869
7,43,7.98,97.89,1277,2265,13,5,2.11,7.98,7.152268856,7.725330038
7,43,7.88,NaN,8749,14164,14,6,2.98,7.88,NaN,NaN
7,44,6.93,96.08,2152,1216,15,7,3.92,6.93,7.674152921,7.103322063
7,42.5,7.88,98.76,3631,1817,16,8,1.24,7.88,8.197263371,7.504942068
7,43.5,8.41,94.42,1596,6468,17,1,5.58,8.41,7.375255778,8.774622221
7,43.5,8.41,95.92,2493,3203,18,2,4.08,8.41,7.821242084,8.07184315
7,43,7.97,97.02,1409,2703,19,3,2.98,7.97,7.250635512,7.902117546
7,41.5,7.93,94.49,1276,2043,20,4,5.51,7.93,7.151485464,7.622174595
7,43,3.97,97.42,1201,1409,21,5,2.58,3.97,7.090909822,7.250635512
7,41.5,7.93,96.23,1526,1215,22,6,3.77,7.93,7.330405212,7.102499356
7,42.5,8.51,96.31,1451,2328,23,7,3.69,8.51,7.280008253,7.752764809
7,42.5,7.94,96.15,1153,1353,24,8,3.85,7.94,7.05012252,7.210079628
8,41,2.25,NaN,3596,21064,1,1,28.51,2.25,8.187577396,NaN
8,44,3.69,79.95,3041,5081,2,2,20.05,3.69,8.019941688,8.533263372
8,47,6.29,61.69,2263,2368,3,3,38.31,6.29,7.724446646,7.769800996
8,45.5,7.4,77.74,2013,4468,4,4,22.26,7.4,7.607381426,8.40469616
8,41.5,4.73,70.86,2263,2073,5,5,29.14,4.73,7.724446646,7.636752112
8,46.5,7.88,62.32,2006,1846,6,6,37.68,7.88,7.603897969,7.520776415
8,41,4.97,85.25,944,2007,7,7,14.75,4.97,6.850126166,7.604396349
8,46.5,7.99,77.74,2985,3878,8,8,22.26,7.99,8.001355026,8.263074836
8,43.5,6.95,90.23,2097,2652,9,1,9.77,6.95,7.648263031,7.883069351
8,40.5,2.19,87.46,1486,1849,10,2,12.54,2.19,7.303843225,7.522400231
8,40.5,4,76.55,2304,2719,11,3,23.45,4,7.742402022,7.908019445
8,46,7.89,70.38,1464,2431,12,4,29.62,7.89,7.288927695,7.796057974
8,43,3.04,95.68,2638,3488,13,5,4.32,3.04,7.877776333,8.157083785
8,43.5,6.97,92.52,2160,4497,14,6,7.48,6.97,7.677863501,8.411165787
8,46,7.93,89.83,2478,2303,15,7,10.17,7.93,7.815207062,7.7419679
8,40.5,5.95,65.72,2491,2460,16,8,34.28,5.95,7.820439515,7.807916629
8,45.5,7.48,54.18,1499,2782,17,1,45.82,7.48,7.312553498,7.930925372
8,45.5,6.97,66.51,1262,3845,18,2,33.49,6.97,7.140453043,8.254528882
8,42.5,7.53,40.98,1659,2352,19,3,59.02,7.53,7.41397029,7.763021309
8,38.5,3.5,71.49,2332,5127,20,4,28.51,3.5,7.754481547,8.542275972
8,46.5,7.97,55.52,2075,3521,21,5,44.48,7.97,7.637716433,8.166500319
8,37,5.93,61.06,1611,2674,22,6,38.94,5.93,7.384610383,7.891330758
8,41,4.98,90.38,2159,3982,23,7,9.62,4.98,7.677400431,8.289539485
8,41,7.43,54.42,3145,2319,24,8,45.58,7.43,8.053569169,7.748891337
9,41,0.94,89.99,1506,7728,1,1,10.01,0.94,7.317212408,8.952605376
9,44,1.94,90.3,1110,2887,2,2,9.7,1.94,7.012115294,7.96797318
9,47,7.96,NaN,2416,69701,3,3,8.11,7.96,7.789868559,NaN
9,45,6.92,70.54,4006,35724,4,4,29.46,6.92,8.295548516,10.48357801
9,42.5,0.95,94.02,1777,1369,5,5,5.98,0.95,7.482681828,7.221835825
9,46,7.95,89.91,5874,33342,6,6,10.09,7.95,8.678291112,10.41457314
9,43,0.99,67.85,1125,17528,7,7,32.15,0.99,7.025538315,9.771554881
9,46,8.92,91.02,2402,8751,8,8,8.98,8.92,7.784057003,9.076923259
9,44.5,1.95,92.04,1090,16485,9,1,7.96,1.95,6.993932975,9.710206156
9,43,0.93,91.96,1590,1112,10,2,8.04,0.93,7.371489295,7.013915475
9,43.5,0.98,91.17,1513,3199,11,3,8.83,0.98,7.321849714,8.07059354
9,46,7.97,NaN,16839,2856,12,4,10.72,7.97,NaN,NaN
9,44.5,1,89.75,1895,1008,13,5,10.25,1,7.546974118,6.915723449
9,45,0.96,93.55,2034,1126,14,6,6.45,0.96,7.617759577,7.026426809
9,46,1.93,92.36,1514,1253,15,7,7.64,1.93,7.322510434,7.133295955
9,44,0.99,91.65,2019,1101,16,8,8.35,0.99,7.610357618,7.003974137
9,46,2.95,89.36,1193,2223,17,1,10.64,2.95,7.084226422,7.706612914
9,46,7,93.62,1318,2000,18,2,6.38,7,7.183870715,7.60090246
9,45,7.97,92.44,2457,853,19,3,7.56,7.97,7.806696373,6.748759547
9,44,0.95,89.83,1332,902,20,4,10.17,0.95,7.194436851,6.80461452
9,46,6.85,92.6,2929,1224,21,5,7.4,6.85,7.982416347,7.109879463
9,44,1,89.67,791,1013,22,6,10.33,1,6.673297968,6.920671504
9,45,1.02,94.73,6179,1166,23,7,5.27,1.02,8.728911725,7.061334367
9,45,2.02,90.23,2041,1901,24,8,9.77,2.02,7.621195163,7.550135342
10,41,1.01,0,2721,4433,1,1,106.06,1.01,7.908754739,8.396831835
10,44,4,81.06,3144,10528,2,2,18.94,4,8.053251154,9.261793654
10,47,6.98,90.7,3458,20102,3,3,9.3,6.98,8.148445666,9.908574592
10,45,2.96,NaN,14499,13359,4,4,28.98,2.96,NaN,NaN
10,42.5,1.98,76.63,2888,10956,5,5,23.37,1.98,7.9683195,9.30164253
10,48,7.46,90.78,7132,8650,6,6,9.22,7.46,8.872346979,9.0653146
10,42,3,81.45,2561,2865,7,7,18.55,3,7.848153086,7.960323629
10,48.5,7.95,95.84,10082,24206,8,8,4.16,7.95,9.218506935,10.09435582
10,45.5,5.43,61.45,2985,4087,9,1,38.55,5.43,8.001355026,8.315566484
10,42,1.46,81.29,3923,5566,10,2,18.71,1.46,8.274611946,8.624431942
10,42,0,100,3284,982,11,3,-14.81,-0.2,8.096817471,6.889591308
10,48.5,8.09,81.06,11089,8837,12,4,18.94,8.09,9.313708905,9.086702732
10,45.5,4.48,74.65,1889,3340,13,5,25.35,4.48,7.543802868,8.113726086
10,45.5,4.96,81.45,3373,1465,14,6,18.55,4.96,8.123557835,7.289610521
10,48.5,7.95,95.84,2346,14064,15,7,4.16,7.95,7.760467029,9.55137362
10,42.5,3,81.29,1909,2292,16,8,18.71,3,7.554334824,7.737180078
10,48.5,6.97,71.25,4770,3627,17,1,28.75,6.97,8.470101584,8.196161139
10,48.5,7.43,90.38,2520,4253,18,2,9.62,7.43,7.832014181,8.355379895
10,45.5,4.97,76.71,1791,1623,19,3,23.29,4.97,7.490529402,7.392031568
10,42,0.98,86.19,1749,3041,20,4,13.81,0.98,7.466799475,8.019941688
10,48.5,6.95,90.62,1596,2089,21,5,9.38,6.95,7.375255778,7.644440762
10,42.5,1.92,81.21,1305,2254,22,6,18.79,1.92,7.17395832,7.720461695
10,45.5,2.45,70.7,2728,4093,23,7,29.3,2.45,7.911324019,8.317033476
10,45.5,3.97,81.14,1304,3248,24,8,18.86,3.97,7.173191742,8.085794701
11,41,1,100,15062,2219,1,1,-12.83,1,9.619930295,7.704811923
11,44,2.43,95.76,12159,3710,2,2,4.24,2.43,9.405824915,8.218787156
11,47,3.48,98.13,6291,1346,3,3,1.87,3.48,8.74687532,7.20489251
11,48,4.5,95.68,10041,1796,4,4,4.32,4.5,9.21443199,7.493317249
11,43,1.48,100,3361,3249,5,5,-3.66,1.48,8.119993828,8.086102536
11,50,6.96,100,2902,1245,6,6,-10.94,6.96,7.973155433,7.126890809
11,43.5,1.46,100,5686,957,7,7,-18.45,1.46,8.645762292,6.863803391
11,50,6.99,100,10722,1241,8,8,-6.98,6.99,9.280052984,7.123672785
11,48,6.43,100,5749,1653,9,1,-0.74,6.43,8.656781206,7.410347098
11,43.5,1.48,100,2617,856,10,2,-17.89,1.48,7.869783903,6.752270376
11,44,1.8,100,1764,3518,11,3,-16.94,1.8,7.475339237,8.165647925
11,50,7.41,100,17881,880,12,4,-18.05,7.41,9.791493976,6.779921907
11,47.5,6.96,100,1138,593,13,5,-13.55,6.96,7.037027615,6.385194399
11,47.5,3,100,1881,950,14,6,-5.17,3,7.539558829,6.856461985
11,50,7.96,100,18506,3136,15,7,-5.17,7.96,9.825850283,8.050703381
11,44,1.83,100,4339,2397,16,8,-0.42,1.83,8.375399186,7.781973234
11,50,8.28,100,2069,3059,17,1,-0.98,8.28,7.634820678,8.025843344
11,50,7.93,100,10700,1425,18,2,-0.42,7.93,9.27799902,7.261927093
11,47,5.97,NaN,1527,8063,19,3,-4.14,5.97,7.331060305,NaN
11,44,1.95,100,2048,2193,20,4,0.21,1.95,7.624618986,7.693025748
11,50,8.19,100,3214,1525,21,5,-6.35,8.19,8.075271546,7.329749689
11,44,1.5,100,1646,945,22,6,-18.53,1.5,7.406103381,6.851184927
11,47,1.78,100,1478,967,23,7,-5.48,1.78,7.298445102,6.874198495
11,47,5.47,100,3353,1776,24,8,0.05,5.47,8.117610746,7.482118924
12,41,1.36,90.94,4291,5456,1,1,9.06,1.36,8.364275085,8.6044712
12,44,1.6,95.29,2687,1860,2,2,4.71,1.6,7.896180609,7.528331767
12,47,2.6,75.92,2006,2372,3,3,24.08,2.6,7.603897969,7.77148876
12,48,3.14,70.94,3368,2381,4,4,29.06,3.14,8.122074375,7.775275846
12,44,1.66,88.33,3132,1786,5,5,11.67,1.66,8.049427057,7.487733761
12,50,5,93.23,2464,2445,6,6,6.77,5,7.809541325,7.801800402
12,44,2.61,96.71,1519,5101,7,7,3.29,2.61,7.325807503,8.537191878
12,50,5.97,100,1625,1837,8,8,-1.06,5.97,7.393263095,7.515889085
12,48.5,1.98,92.52,2256,2714,9,1,7.48,1.98,7.721348613,7.90617884
12,44,1.43,87.06,2270,885,10,2,12.94,1.43,7.72753511,6.785587645
12,44,1.78,93.62,2284,1688,11,3,6.38,1.78,7.733683571,7.431299675
12,50,4.7,82.24,1507,1509,12,4,17.76,4.7,7.317876199,7.319202459
12,49,2.97,86.59,2568,1336,13,5,13.41,2.97,7.850882665,7.197435354
12,49,3.34,91.49,1263,2293,14,6,8.51,3.34,7.141245122,7.737616283
12,50,4.96,62.64,3027,1496,15,7,37.36,4.96,8.015327309,7.310550159
12,44.5,1.6,99,1895,1836,16,8,1,1.6,7.546974118,7.515344571
12,50,4.98,90.7,1623,1874,17,1,9.3,4.98,7.392031568,7.535830463
12,50,4.59,95.36,1909,1812,18,2,4.64,4.59,7.554334824,7.502186487
12,49,3.97,86.83,2222,1725,19,3,13.17,3.97,7.70616297,7.452982329
12,44.5,0.95,100,2387,640,20,4,-8.88,0.95,7.777792626,6.461468176
12,50,2.82,100,2034,1861,21,5,-1.85,2.82,7.617759577,7.528869257
12,45,1.16,94.18,2589,2796,22,6,5.82,1.16,7.85902698,7.935945103
12,48.5,2.77,98.76,1298,977,23,7,1.24,2.77,7.168579897,6.884486652
12,49,4,87.93,2368,1201,24,8,12.07,4,7.769800996,7.090909822
13,41,1.89,90.78,1736,2294,1,1,9.22,1.89,7.459338895,7.738052298
13,44,1.81,85.56,2527,4061,2,2,14.44,1.81,7.834788107,8.309184528
13,47,2.72,84.61,2965,2200,3,3,15.39,2.72,7.994632311,7.696212639
13,48.5,3.08,80.98,3166,2375,4,4,19.02,3.08,8.06022424,7.772752716
13,43,1.73,81.77,2374,3528,5,5,18.23,1.73,7.772331575,8.168486417
13,50,3.77,84.53,2791,2047,6,6,15.47,3.77,7.934155234,7.624130586
13,43.5,1.83,80.11,3284,3214,7,7,19.89,1.83,8.096817471,8.075271546
13,50,4.75,NaN,3200,12501,8,8,23.85,4.75,8.070906089,NaN
13,48.5,3.99,81.61,3881,2392,9,1,18.39,3.99,8.263848131,7.779885115
13,44,1.74,91.02,2576,3618,10,2,8.98,1.74,7.853993087,8.193676666
13,44,1.87,86.12,2152,1608,11,3,13.88,1.87,7.674152921,7.38274645
13,50,3.15,80.9,2485,1878,12,4,19.1,3.15,7.818027939,7.53796266
13,48,2.62,82.32,4714,1775,13,5,17.68,2.62,8.458292083,7.481555702
13,34,0,100,2117,1921,14,6,-2.16,-1.35,7.657755271,7.560601163
13,50,3.95,77.02,3742,1780,15,7,22.98,3.95,8.227375507,7.484368643
13,38,0.38,70.54,4596,6890,16,8,29.46,0.38,8.432941639,8.837826364
13,50,4,66.35,3902,1118,17,1,33.65,4,8.269244521,7.019296654
13,50,4.47,84.85,2326,1939,18,2,15.15,4.47,7.751905333,7.569927655
13,48,3.29,85.96,2631,1292,19,3,14.04,3.29,7.875119281,7.163946684
13,43,0.98,95.52,2277,2817,20,4,4.48,0.98,7.730614066,7.943427768
13,50,3.9,80.82,2854,11249,21,5,19.18,3.9,7.956476798,9.328034515
13,44,1.03,100,2326,1456,22,6,-8.41,1.03,7.751905333,7.283448229
13,48.5,1.83,75.68,3548,1465,23,7,24.32,1.83,8.174139343,7.289610521
13,48.5,4.08,NaN,6625,1160,24,8,29.3,4.08,NaN,NaN
14,41,1,100,2513,4367,1,1,-1.53,1,7.829232538,8.381831553
14,44,1,100,2499,2355,2,2,-3.98,1,7.823645931,7.764296006
14,47,0.99,NaN,2499,5904,3,3,-0.98,0.99,7.823645931,NaN
14,45,1.02,100,3762,2009,4,4,-6.51,1.02,8.23270601,7.605392365
14,46,1,100,3596,2050,5,5,-14.34,1,8.187577396,7.625595072
14,48,1.01,100,4256,1615,6,6,-12.6,1.01,8.356085031,7.387090236
14,48,1,100,2513,2617,7,7,-0.42,1,7.829232538,7.869783903
14,50,1.97,100,2270,1913,8,8,-2.56,1.97,7.72753511,7.556427969
14,49,1.98,100,3708,2618,9,1,-3.03,1.98,8.218247927,7.870165946
14,48,1.47,100,2110,2247,10,2,-1.77,1.47,7.654443226,7.717351272
14,48,1.01,100,3436,1801,11,3,-3.35,1.01,8.142063283,7.496097345
14,50,1.98,100,3165,2065,12,4,-17.1,1.98,8.059908335,7.632885505
14,49,1.98,100,2971,2543,13,5,-0.82,1.98,7.996653875,7.841099765
14,38,0.33,100,3748,2452,14,6,-6.75,0.33,8.228977643,7.804659297
14,50,1.98,100,2507,2502,15,7,-16.23,1.98,7.826842098,7.824845691
14,47.5,1.48,100,3749,2282,16,8,-10.07,1.48,8.229244417,7.73280753
14,50,1.51,100,5402,2580,17,1,-17.5,1.51,8.594524534,7.855544678
14,50,1.53,100,5033,1821,18,2,-2.08,1.53,8.523771507,7.50714108
14,48.5,2.01,100,3160,1746,19,3,-16.08,2.01,8.058327307,7.465082736
14,47,1,100,2937,2210,20,4,-3.9,1,7.985143931,7.700747795
14,50,1.98,100,3658,1350,21,5,-18.05,1.98,8.204671829,7.207859871
14,46.5,0.99,100,3526,1400,22,6,-3.51,0.99,8.167919363,7.244227516
14,49,1.99,100,3180,996,23,7,-8.01,1.99,8.064636476,6.903747258
14,48.5,2,100,3965,1084,24,8,-18.21,2,8.285261134,6.988413182
15,41,0.78,100,4394,2452,1,1,-9.2,0.78,8.387995253,7.804659297
15,44,4.07,NaN,14603,1134,2,2,-17.97,4.07,NaN,NaN
15,46,6.01,100,2347,1330,3,3,-2.95,6.01,7.760893196,7.192934221
15,45,4.98,NaN,3881,9083,4,4,-17.58,4.98,8.263848131,NaN
15,42.5,1.45,100,3700,1497,5,5,-18.68,1.45,8.216088099,7.311218384
15,47,8.19,100,5055,4122,6,6,-6.91,8.19,8.528133131,8.324093761
15,42.5,1.28,100,3569,1392,7,7,-9.99,1.28,8.180040723,7.238496841
15,45.5,7.83,100,3791,3566,8,8,-3.35,7.83,8.240385116,8.179199798
15,45,5.47,100,2596,1456,9,1,-12.44,5.47,7.861727078,7.283448229
15,42.5,1.13,100,11326,1309,10,2,-0.9,1.13,9.334856247,7.177018766
15,43,1.16,100,3770,1102,11,3,-16.47,1.16,8.23483028,7.00488199
15,46.5,6.97,100,1492,969,12,4,-13.47,6.97,7.307872781,6.876264612
15,45,7.01,100,1888,806,13,5,-1.45,7.01,7.543273347,6.692083743
15,45,5.52,100,2249,1559,14,6,-6.35,5.52,7.718240952,7.351799869
15,47,8.84,100,5492,1079,15,7,-18.92,8.84,8.611047767,6.983789965
15,43,1.5,100,3666,1112,16,8,-3.19,1.5,8.206856428,7.013915475
15,47,8.98,100,3436,1344,17,1,-17.81,8.98,8.142063283,7.203405521
15,46.5,8.98,100,2992,887,18,2,-17.89,8.98,8.003697339,6.787844982
15,45,1.88,100,10555,3009,19,3,-18.6,1.88,9.26435496,8.009363077
15,43,1.17,100,2852,1287,20,4,-17.81,1.17,7.955775782,7.160069208
15,46.5,7.93,100,5680,1493,21,5,-10.23,7.93,8.644706512,7.308542798
15,43,1.34,100,3172,1316,22,6,-14.49,1.34,8.062117583,7.182352112
15,45,2.18,100,2576,1056,23,7,-14.26,2.18,7.853993087,6.962243464
15,45,2.83,100,2145,728,24,8,-11.73,2.83,7.670894831,6.590301048
16,41,0,100,2826,17328,1,1,-0.34,-0.64,7.946617563,9.760078969
16,44,1.03,90.07,6263,7491,2,2,9.93,1.03,8.742414583,8.921457579
16,47,5.08,80.34,3048,23389,3,3,19.66,5.08,8.022240917,10.06002111
16,47,7.25,NaN,1388,34916,4,4,19.58,7.25,7.235619141,NaN
16,43.5,6.21,77.1,1749,18447,5,5,22.9,6.21,7.466799475,9.822657035
16,46.5,8.05,71.17,2075,4893,6,6,28.83,8.05,7.637716433,8.495560891
16,43.5,6.2,80.03,1798,2927,7,7,19.97,6.2,7.494430215,7.981733287
16,46,7.97,78.21,1729,2310,8,8,21.79,7.97,7.455298486,7.745002804
16,44.5,5.82,72.6,2541,6324,9,1,27.4,5.82,7.840312983,8.752107198
16,42.5,5.08,77.5,2138,17613,10,2,22.5,5.08,7.667626092,9.776392545
16,43,5.46,75.05,4499,8655,11,3,24.95,5.46,8.411610429,9.065892468
16,46,5.55,76.63,1388,2192,12,4,23.37,5.55,7.235619141,7.692569648
16,44,5.93,75.68,1319,5534,13,5,24.32,5.93,7.184629153,8.61866616
16,44,5.02,79,1895,2832,14,6,21,5.02,7.546974118,7.948738455
16,46,7.19,80.34,2062,4146,15,7,19.66,7.19,7.631431665,8.329899293
16,42,4.24,70.7,944,4397,16,8,29.3,4.24,6.850126166,8.388677769
16,46,7.27,70.46,3339,4337,17,1,29.54,7.27,8.11342664,8.374938144
16,46,7.28,67.78,1458,1802,18,2,32.22,7.28,7.284820913,7.496652438
16,43.5,6.57,79.79,1242,3070,19,3,20.21,6.57,7.124478262,8.029432841
16,40,6.02,80.66,1305,2589,20,4,19.34,6.02,7.17395832,7.85902698
16,46.5,8.02,79.08,1908,5371,21,5,20.92,8.02,7.553810852,8.58876939
16,40,3.97,76.31,1673,1916,22,6,23.69,3.97,7.422373701,7.557994959
16,42.5,5.13,80.58,5811,9092,23,7,19.42,5.13,8.667507952,9.115150185
16,42.5,4.13,75.52,2207,2424,24,8,24.48,4.13,7.699389406,7.793174347
17,41,0.43,100,3624,5560,1,1,-4.93,0.43,8.195333667,8.623353387
17,44,1.55,NaN,46977,4684,2,2,17.84,1.55,NaN,NaN
17,47,6,96.23,3985,2407,3,3,3.77,6,8.290292591,7.786136438
17,46.5,5.98,100,3166,2162,4,4,-17.42,5.98,8.06022424,7.678788998
17,43.5,3.98,100,1694,2326,5,5,0.53,3.98,7.434847875,7.751905333
17,48.5,7.52,NaN,3347,21995,6,6,2.34,7.52,8.115819701,NaN
17,43,5.43,96.87,1631,3551,7,7,3.13,5.43,7.396948603,8.174984533
17,49,7.97,100,1951,18341,8,8,0.21,7.97,7.576097341,9.81689427
17,45.5,5.41,100,1971,1675,9,1,-6.75,5.41,7.586296307,7.423568444
17,42.5,3.02,100,11950,8190,10,2,0.76,3.02,9.388486557,9.010669177
17,42,3.04,100,2735,11239,11,3,0.68,3.04,7.913886715,9.327145152
17,48.5,6.98,100,1665,2448,12,4,-4.38,6.98,7.417580402,7.803026644
17,45.5,3.92,100,4479,1909,13,5,-2.24,3.92,8.407155086,7.554334824
17,45.5,5.02,100,1507,2799,14,6,0.13,5.02,7.317876199,7.93701749
17,49,7.98,100,3971,3825,15,7,0.05,7.98,8.286773231,8.249313746
17,42.5,2,100,7923,1927,16,8,-2.87,2,8.977525201,7.563719668
17,49,7.97,100,6763,1745,17,1,-14.65,7.97,8.819221858,7.464509835
17,49,8.94,100,1472,4957,18,2,-6.83,8.94,7.294377299,8.508555998
17,45.5,4.43,100,3492,1599,19,3,-6.83,4.43,8.158229917,7.377133713
17,42.5,4.5,100,1701,3108,20,4,-0.03,4.5,7.438971592,8.041734711
17,48.5,7.37,100,2395,3761,21,5,-8.33,7.37,7.78113851,8.232440158
17,42.5,0.13,100,2971,1402,22,6,-5.88,0.13,7.996653875,7.245655068
17,45.5,1.98,100,3540,2875,23,7,0.13,1.98,8.171882006,7.963807953
17,45.5,4.49,100,2894,1338,24,8,-2.4,4.49,7.970394907,7.198931241
18,41,1.33,100,3680,2581,1,1,-1.77,1.33,8.210668031,7.8559322
18,44,4,100,3429,1419,2,2,-15.44,4,8.140023952,7.257707677
18,47,6.77,100,6992,1159,3,3,-18.68,6.77,8.852521917,7.055312843
18,45,5.99,100,5388,910,4,4,-16.79,5.99,8.591929538,6.8134446
18,41.5,1,100,2896,1268,5,5,-17.1,1,7.971085754,7.145196135
18,47.5,6.97,100,2207,809,6,6,-16.55,6.97,7.699389406,6.695798917
18,42,1.77,100,2429,1195,7,7,-18.84,1.77,7.795234929,7.085901464
18,48.5,7.84,100,4520,1253,8,8,-16.63,7.84,8.416267273,7.133295955
18,45,1.99,100,7332,1025,9,1,-17.97,1.99,8.900003609,6.932447892
18,42,1.83,100,2562,1012,10,2,-18.84,1.83,7.848543482,6.91968385
18,42,0.88,NaN,4833,7673,11,3,19.02,0.88,8.483222672,NaN
18,48.5,7.97,100,4694,1914,12,4,-16.55,7.97,8.454040376,7.556950572
18,45.5,6.73,100,2521,1196,13,5,-18.76,6.73,7.832410927,7.086737935
18,45.5,3.98,100,1902,1295,14,6,-17.18,3.98,7.550661243,7.166265974
18,48.5,7.51,100,2506,726,15,7,-15.44,7.51,7.826443135,6.587550015
18,42,1.82,100,3777,719,16,8,-16.71,1.82,8.236685323,6.577861358
18,48.5,7.25,100,2645,1106,17,1,-18.76,7.25,7.880426344,7.008505182
18,49,7.73,100,1887,1291,18,2,-9.83,7.73,7.542743545,7.163172391
18,45.5,2.58,100,6284,894,19,3,-15.92,2.58,8.745761999,6.795705775
18,42.5,2,100,1916,852,20,4,-18.45,2,7.557994959,6.747586527
18,49,7.73,100,1812,813,21,5,-5.72,7.73,7.502186487,6.70073111
18,42.5,1.48,100,1929,988,22,6,-17.81,1.48,7.564757013,6.895682698
18,45.5,4.51,85.88,2436,1362,23,7,14.12,4.51,7.798112629,7.216709487
18,45.5,4.7,100,2923,915,24,8,-18.29,4.7,7.980365765,6.818924065
19,41,0.96,100,1229,2235,1,1,-13.47,0.96,7.11395611,7.711996507
19,44,1.95,93.31,1353,5905,2,2,6.69,1.95,7.210079628,8.683554729
19,47,3.95,80.9,1888,5761,3,3,19.1,3.95,7.543273347,8.65886635
19,49,7.97,91.25,2853,3932,4,4,8.75,7.97,7.956126351,8.276903481
19,43.5,1.99,100,1311,1630,5,5,0.29,1.99,7.178545484,7.396335294
19,49.5,7.96,98.76,2013,2598,6,6,1.24,7.96,7.607381426,7.862497197
19,43.5,4.02,80.74,3811,2912,7,7,19.26,4.02,8.245646901,7.976595409
19,49.5,8.24,100,3110,6761,8,8,-3.11,8.24,8.042378005,8.818926087
19,46,4.46,97.89,1805,2208,9,1,2.11,4.46,7.498315871,7.699842407
19,43,0,100,1430,1281,10,2,-17.74,-1.3,7.265429723,7.155396302
19,43.5,3.02,98.45,1124,2951,11,3,1.55,3.02,7.02464903,7.989899375
19,49.5,7.99,100,1492,1321,12,4,-0.82,7.99,7.307872781,7.186144305
19,46.5,7.48,86.59,1332,1961,13,5,13.41,7.48,7.194436851,7.581209826
19,46,4.55,93.78,1486,2598,14,6,6.22,4.55,7.303843225,7.862497197
19,49.5,7.98,87.93,1701,2014,15,7,12.07,7.98,7.438971592,7.607878073
19,43,1.49,NaN,4541,12034,16,8,1.71,1.49,NaN,NaN
19,49.5,7.95,90.54,1395,2045,17,1,9.46,7.95,7.240649694,7.623153068
19,49.5,7.56,88.72,1375,1441,18,2,11.28,7.56,7.22620901,7.273092596
19,46.5,2.95,70.07,1138,1015,19,3,29.93,2.95,7.037027615,6.922643891
19,43,1,97.18,1090,2018,20,4,2.82,1,6.993932975,7.609862201
19,49.5,7.56,100,999,1670,21,5,-9.91,7.56,6.906754779,7.420578905
19,43.5,4,96.55,1151,7927,22,6,3.45,4,7.048386409,8.978029933
19,46.5,5.43,100,1194,1168,23,7,-6.19,5.43,7.085064294,7.063048163
19,46.5,7.94,96.95,1340,1891,24,8,3.05,7.94,7.200424893,7.544861069
20,41,1.03,100,1554,4853,1,1,-6.11,1.03,7.348587531,8.487352349
20,44,1.08,100,1478,1455,2,2,-13.94,1.08,7.298445102,7.28276118
20,47,7.9,100,1652,1682,3,3,-13.23,7.9,7.409741954,7.427738841
20,45,7.08,100,1047,3562,4,4,-0.98,7.08,6.953684211,8.178077464
20,43,0.99,98.68,1750,1203,5,5,1.32,0.99,7.467371067,7.092573716
20,46,8.05,100,1256,5039,6,6,-2.95,8.05,7.135687347,8.524962929
20,43,0.32,100,930,1969,7,7,-17.81,0.32,6.835184586,7.585281079
20,45.5,6.67,100,1971,1231,8,8,-7.38,6.67,7.586296307,7.115582126
20,44.5,7.48,99.16,1298,1926,9,1,0.84,7.48,7.168579897,7.563200592
20,43.5,7.51,100,2048,1068,10,2,-10.86,7.51,7.624618986,6.97354302
20,43,5.45,100,1742,3606,11,3,-2.32,5.45,7.462789157,8.190354404
20,45.5,8.21,100,1284,1391,12,4,-12.99,8.21,7.157735484,7.237778192
20,44,7.4,100,673,1414,13,5,-0.58,7.4,6.51174533,7.254177846
20,44,1.55,NaN,2929,9436,14,6,-0.42,1.55,7.982416347,NaN
20,45,1.07,100,2729,789,15,7,-11.17,1.07,7.911690521,6.670766321
20,43.5,1.5,100,3458,949,16,8,-15.13,1.5,8.148445666,6.855408799
20,45,4.98,100,1200,3289,17,1,-4.61,4.98,7.090076836,8.098338846
20,45,6.08,100,833,1325,18,2,-11.96,6.08,6.725033642,7.189167738
20,44.5,1.59,100,1624,1054,19,3,-1.21,1.59,7.392647521,6.960347729
20,43.5,1.64,100,1937,663,20,4,-17.02,1.64,7.568895663,6.49677499
20,45,6.62,100,1610,1016,21,5,-3.82,6.62,7.383989458,6.923628628
20,43.5,4.03,100,999,903,22,6,-2.64,4.03,6.906754779,6.805722553
20,44.5,1.55,100,1020,1107,23,7,-15.44,1.55,6.927557906,7.009408933
20,44.5,4.57,100,1326,969,24,8,-0.5,4.57,7.189922171,6.876264612
21,41,0.97,100,17013,15493,1,1,-18.92,0.97,9.741733037,9.648143588
21,44,1.99,100,10228,28750,2,2,-15.21,1.99,9.232884336,10.26639305
21,47,4.98,100,4735,7711,3,3,-18.13,4.98,8.462737006,8.95040316
21,47,6.93,100,5638,28287,4,4,-10.23,6.93,8.637284672,10.25015761
21,43,2.99,100,1645,4021,5,5,-16.71,2.99,7.405495663,8.299285907
21,48.5,7.88,NaN,73394,4325,6,6,-18.68,7.88,NaN,NaN
21,43,1.96,100,1708,17215,7,7,-13.55,1.96,7.443078374,9.753536376
21,48.5,7.99,100,35374,646,8,8,-17.34,7.99,10.47373237,6.470799504
21,45.5,1.98,100,1395,13676,9,1,-17.02,1.98,7.240649694,9.523397751
21,43,1.05,100,2839,1274,10,2,-18.53,1.05,7.951207156,7.149916836
21,43,0.95,100,3555,22071,11,3,-18.45,0.95,8.176110342,10.00201981
21,48.5,7.45,100,12611,1761,12,4,-18.29,7.45,9.442324728,7.473637108
21,46,4.92,100,1319,10755,13,5,-5.64,4.92,7.184629153,9.283126042
21,46,2.45,100,13540,24918,14,6,-13.55,2.45,9.513403546,10.12334571
21,48.5,7.49,NaN,2458,46591,15,7,-3.59,7.49,7.80710329,NaN
21,43.5,1.05,100,3720,2373,16,8,-17.81,1.05,8.221478947,7.771910256
21,48.5,7,100,1589,12376,17,1,-16.47,7,7.370860167,9.423514392
21,48.5,7.97,100,1721,3145,18,2,-8.01,7.97,7.450660796,8.053569169
21,46,4,100,1388,2432,19,3,-4.06,4,7.235619141,7.796469243
21,43.5,1.95,100,4450,2137,20,4,-18.76,1.95,8.400659375,7.667158255
21,48.5,7.95,100,3200,2258,21,5,-3.03,7.95,8.070906089,7.722234745
21,43.5,2,100,1485,8569,22,6,-8.64,2,7.303170051,9.055906319
21,46,2.94,100,1499,5718,23,7,-11.1,2.94,7.312553498,8.651374373
21,46,4.99,100,2027,4555,24,8,-17.89,4.99,7.614312146,8.42398081
22,41,0.99,100,4284,2670,1,1,0.01,0.99,8.362642432,7.889833751
22,44,2.48,100,5958,2307,2,2,0.01,2.48,8.692490133,7.743703258
22,47,4.99,100,7492,2786,3,3,0.01,4.99,8.921591064,7.932362154
22,47,5.95,100,5624,3374,4,4,0.01,5.95,8.634798433,8.123854263
22,43,2.5,100,4215,1223,5,5,0.01,2.5,8.34640487,7.109062136
22,50,8.25,100,21291,2614,6,6,0.01,8.25,9.966039727,7.868636894
22,43,5.43,80.48,2819,2646,7,7,19.52,5.43,7.944137491,7.880804345
22,49.5,8.26,NaN,38366,1558,8,8,0.01,8.26,NaN,NaN
22,46,4,90.64,3791,2488,9,1,9.36,4,8.240385116,7.819234454
22,43,2.97,100,9526,1998,10,2,0.58,2.97,9.161780181,7.599901959
22,42.5,2.02,100,1798,1501,11,3,0.25,2.02,7.494430215,7.313886832
22,49.5,8.34,100,5631,1746,12,4,0.01,8.34,8.636042325,7.465082736
22,46,5.99,100,1840,933,13,5,0.01,5.99,7.517520851,6.838405201
22,45.5,4.99,100,1951,2368,14,6,0.01,4.99,7.576097341,7.769800996
22,49,8.4,98.85,6777,1679,15,7,1.15,8.4,8.821289805,7.425953657
22,42,5.45,80.48,6013,1800,16,8,19.52,5.45,8.701679071,7.495541944
22,48,5.97,100,5131,1152,17,1,0.01,5.97,8.543055851,7.049254841
22,48.5,8.33,100,14214,3102,18,2,0.01,8.33,9.561982673,8.039802344
22,45.5,6.99,100,2756,712,19,3,0.01,6.99,7.921535632,6.568077911
22,42.5,4.54,100,1819,925,20,4,0.01,4.54,7.506042179,6.829793738
22,48,7.96,NaN,3534,5809,21,5,0.01,7.96,8.170185653,NaN
22,42,3.51,100,2291,1657,22,6,0.01,3.51,7.736743682,7.412764017
22,45,7,100,2867,880,23,7,0.01,7,7.961021466,6.779921907
22,45,6.5,100,3368,1102,24,8,0.01,6.5,8.122074375,7.00488199
23,41,3.51,NaN,2957,11202,1,1,8.62,3.51,7.99193052,NaN
23,44,5.93,91.29,4763,4658,2,2,8.71,5.93,8.468633001,8.44634145
23,47,7.47,91.13,7478,1792,3,3,8.87,7.47,8.919720656,7.491087594
23,43,6.38,71.54,4548,2847,4,4,28.46,6.38,8.422442855,7.954021087
23,38.5,1.96,91.38,2950,4289,5,5,8.62,1.96,7.989560449,8.363808885
23,47.5,7.94,91.38,4229,7629,6,6,8.62,7.94,8.349720837,8.939712054
23,38.5,3.97,80.16,2235,3012,7,7,19.84,3.97,7.711996507,8.010359589
23,47,7.85,NaN,9728,4185,8,8,8.79,7.85,NaN,NaN
23,42.5,6.43,80.56,2707,1335,9,1,19.44,6.43,7.90359629,7.196686571
23,37.5,2.97,80.89,3853,2288,10,2,19.11,2.97,8.256607345,7.735433352
23,37,0.97,80.16,4930,2689,11,3,19.84,0.97,8.503094267,7.896924656
23,46.5,7.58,90.16,4756,1896,12,4,9.84,7.58,8.467162258,7.547501683
23,42,6.98,77.47,5507,2014,13,5,22.53,6.98,8.613775289,7.607878073
23,42,5.93,90.97,3499,1671,14,6,9.03,5.93,8.160232492,7.421177529
23,46,7.49,92.51,5458,3560,15,7,7.49,7.49,8.604837701,8.177515824
23,37.5,4.95,92.43,2076,4318,16,8,7.57,4.95,7.638198244,8.370547611
23,47,8.09,90.81,3284,1941,17,1,9.19,8.09,8.096817471,7.570958583
23,47,8.03,91.13,4130,2889,18,2,8.87,8.03,8.326032686,7.9686657
23,41,6.38,80.48,3582,1205,19,3,19.52,6.38,8.183676583,7.094234846
23,35,2.45,81.13,4423,1355,20,4,18.87,2.45,8.394573478,7.211556733
23,47,7.94,91.05,3686,1199,21,5,8.95,7.94,8.212297138,7.089243155
23,35,1,89.1,4528,1680,22,6,10.9,1,8.41803562,7.426549072
23,41,5.9,80.56,3763,1922,23,7,19.44,5.9,8.232971791,7.56112159
23,41,6.08,88.37,3013,2099,24,8,11.63,6.08,8.010691539,7.64921632
24,41,4.83,NaN,5485,10164,1,1,33.5,4.83,NaN,NaN
24,44,5.22,71.54,2124,2828,2,2,28.46,5.22,7.661056382,7.947325027
24,47,7.42,91.21,2464,11799,3,3,8.79,7.42,7.809541325,9.375770061
24,42.5,6.31,60.89,2958,2380,4,4,39.11,6.31,7.992268643,7.774855767
24,36.5,4.42,49.99,2624,2497,5,5,50.01,4.42,7.87245515,7.82284529
24,48.5,9.1,100,2451,13959,6,6,0.09,9.1,7.804251384,9.543879741
24,36,2.53,30.24,3159,14070,7,7,69.76,2.53,8.058010801,9.55180015
24,47,7.9,NaN,4785,29947,8,8,15.29,7.9,8.473241304,NaN
24,41,4.48,50.64,1936,2455,9,1,49.36,4.48,7.568379268,7.80588204
24,36.5,2.21,40.16,2082,6288,10,2,59.84,2.21,7.641084249,8.746398334
24,36,1.15,39.91,2423,7653,11,3,60.09,1.15,7.792761721,8.942853007
24,47,7.97,100,2124,6334,12,4,0.01,7.97,7.661056382,8.753687227
24,41,5.46,76.58,1722,2648,13,5,23.42,5.46,7.451241685,7.881559917
24,41.5,1.18,100,2749,2091,14,6,0.01,1.18,7.918992488,7.645397699
24,47,8,100,1902,4744,15,7,0.01,8,7.550661243,8.464635941
24,36,3.4,96.5,1937,4560,16,8,3.5,3.4,7.568895663,8.425077903
24,46.5,8.28,100,2499,2274,17,1,0.01,8.28,7.823645931,7.729295674
24,47,8.56,100,2471,1851,18,2,0.01,8.56,7.812378206,7.523481313
24,41,7.49,100,2144,1447,19,3,0.01,7.49,7.670428522,7.277247727
24,36.5,0.97,100,2875,2080,20,4,0.01,0.97,7.963807953,7.640123173
24,46.5,7.97,100,2603,1721,21,5,0.01,7.97,7.864419905,7.450660796
24,36,0.46,100,3166,3757,22,6,0.01,0.46,8.06022424,8.231376046
24,41.5,6.73,92.43,2819,2922,23,7,7.57,6.73,7.944137491,7.980023592
24,41.5,6.95,96.58,2367,5422,24,8,3.42,6.95,7.76937861,8.59822003
25,41,1.98,60.64,11492,12032,1,1,39.36,1.98,9.34940642,9.395325046
25,44,3.01,80.64,972,2722,2,2,19.36,3.01,6.879355804,7.909122183
25,47,4.99,80.72,1846,4887,3,3,19.28,4.99,7.520776415,8.494333897
25,47,5.93,80.97,1694,10862,4,4,19.03,5.93,7.434847875,9.293025739
25,42,3.46,81.05,3742,1845,5,5,18.95,3.46,8.227375507,7.520234556
25,50,8.4,66.33,9972,5165,6,6,33.67,8.4,9.207536445,8.549660382
25,41.5,3.48,76.01,6929,2513,7,7,23.99,3.48,8.843470782,7.829232538
25,49.5,8.39,81.05,1610,8393,8,8,18.95,8.39,7.383989458,9.035153304
25,45.5,6.97,85.03,1596,4838,9,1,14.97,6.97,7.375255778,8.484256691
25,40.5,5,80.97,1325,8056,10,2,19.03,5,7.189167738,8.994172434
25,40.5,2.48,95.85,1124,1501,11,3,4.15,2.48,7.02464903,7.313886832
25,48.5,8.35,95.6,5075,3153,12,4,4.4,8.35,8.532081804,8.05610966
25,44.5,6.94,95.52,1027,1852,13,5,4.48,6.94,6.93439721,7.524021415
25,44.5,2.02,80.56,1360,1732,14,6,19.44,2.02,7.215239979,7.457032089
25,48,8.86,100,1172,3420,15,7,0.01,8.86,7.06646697,8.13739583
25,41,7.03,96.42,1215,1817,16,8,3.58,7.03,7.102499356,7.504942068
25,47.5,8.18,95.44,1673,1582,17,1,4.56,8.18,7.422373701,7.366445148
25,47,8.03,91.62,5923,2125,18,2,8.38,8.03,8.686598356,7.661527081
25,44,1.05,95.12,1013,2247,19,3,4.88,1.05,6.920671504,7.717351272
25,40.5,0.98,95.77,2388,1905,20,4,4.23,0.98,7.778211475,7.552237288
25,46.5,7.98,66.66,3006,2726,21,5,33.34,7.98,8.00836557,7.910590612
25,41,0.94,95.68,1930,3090,22,6,4.32,0.94,7.565275282,8.03592637
25,44.5,1.98,81.54,583,2832,23,7,18.46,1.98,6.368187186,7.948738455
25,44.5,3.5,91.05,1270,1557,24,8,8.95,3.5,7.146772179,7.350516172
26,41,0.93,100,2111,6716,1,1,0.49,0.93,7.654917048,8.812248018
26,44,2.41,NaN,6326,2886,2,2,0.01,2.41,NaN,NaN
26,47,5.94,NaN,992,10351,3,3,4.32,5.94,6.899723107,NaN
26,46,6.45,100,1381,8071,4,4,0.01,6.45,7.230563153,8.996032669
26,42.5,4.44,100,3444,1341,5,5,0.01,4.44,8.144388866,7.201170883
26,47.5,7.98,98.94,1540,2352,6,6,1.06,7.98,7.339537695,7.763021309
26,42,6.97,100,1276,1111,7,7,0.01,6.97,7.151485464,7.01301579
26,47.5,7.96,100,2054,1918,8,8,0.01,7.96,7.62754439,7.559038255
26,44.5,7.45,100,2236,965,9,1,0.01,7.45,7.712443834,6.872128101
26,42,4.97,95.36,1694,1580,10,2,4.64,4.97,7.434847875,7.365180126
26,41,3.99,100,1589,743,11,3,0.01,3.99,7.370860167,6.610696045
26,47.5,7.99,100,1659,2049,12,4,0.01,7.99,7.41397029,7.625107148
26,43,4.01,95.93,4186,1097,13,5,4.07,4.01,8.339500903,7.00033446
26,43.5,4.03,100,1548,1248,14,6,0.01,4.03,7.344719054,7.129297549
26,47.5,7.96,100,2540,1489,15,7,0.01,7.96,7.83991936,7.305860033
26,39.5,4.46,100,1263,921,16,8,0.01,4.46,7.141245122,6.825460036
26,47.5,7.98,97.15,951,1424,17,1,2.85,7.98,6.857514063,7.261225092
26,48,7.95,100,1659,2000,18,2,0.01,7.95,7.41397029,7.60090246
26,43.5,5,94.14,2590,1981,19,3,5.86,5,7.859413155,7.591357047
26,38.5,1.97,100,3395,3136,20,4,0.17,1.97,8.13005904,8.050703381
26,47.5,7.97,100,972,1102,21,5,0.01,7.97,6.879355804,7.00488199
26,38.5,0.53,100,1277,3100,22,6,0.01,0.53,7.152268856,8.03915739
26,43.5,1.43,100,1458,1173,23,7,0.01,1.43,7.284820913,7.067319849
26,43.5,6.98,100,2714,687,24,8,0.01,6.98,7.90617884,6.532334292
27,41,1.99,100,2186,4639,1,1,0.01,1.99,7.689828669,8.442254105
27,44,4.01,91.21,2180,4506,2,2,8.79,4.01,7.687080156,8.413165121
27,47,6.96,98.37,3590,2983,3,3,1.63,6.96,8.185907481,8.000684785
27,45,5.95,88.94,4159,3853,4,4,11.06,5.95,8.33302994,8.256607345
27,41,2.99,96.74,2875,1676,5,5,3.26,2.99,7.963807953,7.424165281
27,48,8.47,NaN,16110,4678,6,6,3.02,8.47,NaN,NaN
27,41,2.43,97.64,2784,2602,7,7,2.36,2.43,7.931644021,7.864035659
27,47.5,8.4,96.66,6458,1544,8,8,3.34,8.4,8.773074951,7.342131731
27,44,2.99,95.12,1485,1534,9,1,4.88,2.99,7.303170051,7.335633982
27,41,4.99,97.31,1423,1513,10,2,2.69,4.99,7.260522598,7.321849714
27,40.5,3.99,96.09,2430,1273,11,3,3.91,3.99,7.795646536,7.149131599
27,47,7.5,95.68,2117,1359,12,4,4.32,7.5,7.657755271,7.214504414
27,44,3.49,96.58,1854,1450,13,5,3.42,3.49,7.525100746,7.279318835
27,44,1.97,96.58,1513,1430,14,6,3.42,1.97,7.321849714,7.265429723
27,47,7.95,94.46,5547,1940,15,7,5.54,7.95,8.62101252,7.570443252
27,41,3,93.33,2041,1271,16,8,6.67,3,7.621195163,7.147559271
27,47,7.72,95.77,2527,1475,17,1,4.23,7.72,7.834788107,7.296413269
27,47.5,8,94.79,2158,2994,18,2,5.21,8,7.676937146,8.004365565
27,44,4.98,95.44,1304,1339,19,3,4.56,4.98,7.173191742,7.199678346
27,40.5,2.5,80.72,2055,1270,20,4,19.28,2.5,7.628031127,7.146772179
27,47.5,8.65,88.69,2047,2215,21,5,11.31,8.65,7.624130586,7.703007682
27,40.5,2.5,80.64,1145,1657,22,6,19.36,2.5,7.043159916,7.412764017
27,44,2.51,94.46,1332,1197,23,7,5.54,2.51,7.194436851,7.087573706
27,44,3,93.25,1687,1778,24,8,6.75,3,7.430707083,7.483244416
28,41,1.51,100,5832,7118,1,1,0.33,1.51,8.671115274,8.870382066
28,44,1.97,91.29,6124,11269,2,2,8.71,1.97,8.719970757,9.329810872
28,47,7.93,NaN,14007,38826,3,3,3.75,7.93,NaN,NaN
28,45,5.4,100,4486,5868,4,4,0.41,5.4,8.408716715,8.677269139
28,42,1.04,100,2165,2094,5,5,0.09,1.04,7.68017564,7.646831391
28,47,7.98,98.94,1749,4011,6,6,1.06,7.98,7.466799475,8.296795866
28,42.5,5.96,100,1408,1275,7,7,0.01,5.96,7.249925537,7.150701458
28,46.5,8.3,98.94,4380,3964,8,8,1.06,8.3,8.384804003,8.285008895
28,44.5,1.95,100,1735,3363,9,1,0.09,1.95,7.458762692,8.120588712
28,42.5,0,100,2082,1568,10,2,0.01,-0.29,7.641084249,7.357556201
28,43,0.77,100,2978,1305,11,3,0.01,0.77,7.999007213,7.17395832
28,46.5,5.47,100,1104,1423,12,4,0.66,5.47,7.006695227,7.260522598
28,45,5.46,100,1020,1294,13,5,0.01,5.46,6.927557906,7.165493475
28,45,1,100,1894,2102,14,6,0.49,1,7.546446274,7.650644551
28,47,8.65,100,1013,1448,15,7,0.01,8.65,6.920671504,7.277938573
28,43.5,0.99,100,1374,7866,16,8,0.01,0.99,7.225481473,8.970304953
28,46.5,2.48,71.05,3451,2920,17,1,28.95,2.48,8.146419323,7.979338895
28,46.5,8.83,98.12,1852,1819,18,2,1.88,8.83,7.524021415,7.506042179
28,45,2,86.25,1326,2688,19,3,13.75,2,7.189922171,7.896552702
28,43.5,0.98,96.74,1180,1260,20,4,3.26,0.98,7.073269717,7.138867
28,46.5,7.97,98.53,4791,2335,21,5,1.47,7.97,8.474494437,7.75576717
28,43.5,0.45,98.77,1354,2654,22,6,1.23,0.45,7.210818453,7.883823215
28,45,1.02,60.07,2444,1562,23,7,39.93,1.02,7.80139132,7.35372233
28,45.5,1.97,99.18,1242,2458,24,8,0.82,1.97,7.124478262,7.80710329
29,41,1.98,NaN,3708,12994,1,1,19.19,1.98,8.218247927,NaN
29,44,2.99,80.72,5416,2125,2,2,19.28,2.99,8.597112815,7.661527081
29,47,5.96,91.13,2611,2122,3,3,8.87,5.96,7.867488569,7.660114319
29,46,5.97,80.4,2540,1875,4,4,19.6,5.97,7.83991936,7.536363938
29,42,0,100,4749,1197,5,5,0.01,-1.35,8.465689349,7.087573706
29,48,6.99,91.46,1221,3323,6,6,8.54,6.99,7.107425474,8.108623268
29,42,3.98,90.64,1055,2029,7,7,9.36,3.98,6.961296046,7.61529834
29,49,7.95,92.43,3735,1958,8,8,7.57,7.95,8.225503098,7.579678823
29,45.5,5.93,80.4,1395,1919,9,1,19.6,5.93,7.240649694,7.559559496
29,41.5,1.01,100,1937,1221,10,2,0.01,1.01,7.568895663,7.107425474
29,42,1.03,100,1471,694,11,3,0.01,1.03,7.293697721,6.542471961
29,48.5,6.97,91.13,1353,1387,12,4,8.87,6.97,7.210079628,7.23489842
29,45.5,3.03,100,1144,1103,13,5,0.01,3.03,7.042286172,7.005789019
29,46,2.03,80.07,3833,888,14,6,19.93,2.03,8.251403065,6.788971743
29,48.5,7.95,100,2444,811,15,7,0.01,7.95,7.80139132,6.698268054
29,43,4,79.59,1534,1694,16,8,20.41,4,7.335633982,7.434847875
29,48.5,6.99,89.99,722,1181,17,1,10.01,6.99,6.582025139,7.074116816
29,48.5,7.94,100,1735,1174,18,2,0.01,7.94,7.458762692,7.068172
29,45.5,5.95,80.16,971,1038,19,3,19.84,5.95,6.878326468,6.945051064
29,42.5,1.01,100,1611,1433,20,4,0.01,1.01,7.384610383,7.267525428
29,48.5,7.98,100,1819,701,21,5,0.01,7.98,7.506042179,6.552507887
29,43,2.01,80.89,1201,1346,22,6,19.11,2.01,7.090909822,7.20489251
29,45.5,2.02,81.29,1804,1897,23,7,18.71,2.02,7.497761701,7.54802897
29,45.5,6,90.48,1034,1945,24,8,9.52,6,6.941190055,7.573017256
30,41,5.95,100,1541,1527,1,1,0.01,5.95,7.340186835,7.331060305
30,44,7.93,100,1777,1071,2,2,0.01,7.93,7.482681828,6.97634807
30,47,7.85,100,2117,1346,3,3,0.01,7.85,7.657755271,7.20489251
30,39,5.05,80.32,1277,1322,4,4,19.68,5.05,7.152268856,7.18690102
30,34,1.05,59.99,1902,6846,5,5,40.01,1.05,7.550661243,8.831419819
30,45,7.96,100,1243,888,6,6,0.01,7.96,7.125283092,6.788971743
30,35.5,1.03,100,1117,1710,7,7,0.01,1.03,7.018401799,7.444248649
30,45,8.15,100,660,964,8,8,0.01,8.15,6.492239835,6.871091295
30,40.5,5.46,80.72,771,1880,9,1,19.28,5.46,6.647688374,7.539027056
30,36,1.55,60.07,1499,1621,10,2,39.93,1.55,7.312553498,7.390798522
30,36.5,0,86.25,1006,2681,11,3,13.75,-0.05,6.913737351,7.893945138
30,45,8,100,596,752,12,4,0.01,8,6.390240667,6.622736324
30,40.5,5.03,61.05,1298,1786,13,5,38.95,5.03,7.168579897,7.487733761
30,40.5,2.93,65.28,1458,2357,14,6,34.72,2.93,7.284820913,7.765144903
30,45,7.93,100,1263,699,15,7,0.01,7.93,7.141245122,6.549650742
30,36.5,3.57,50.07,985,2081,16,8,49.93,3.57,6.892641641,7.640603826
30,45,7.98,100,1069,1028,17,1,0.01,7.98,6.974478911,6.935370446
30,45,7.97,100,1381,662,18,2,0.01,7.97,7.230563153,6.495265556
30,40.5,3.93,49.59,1409,1435,19,3,50.41,3.93,7.250635512,7.268920128
30,37,1.03,98.94,1638,783,20,4,1.06,1.03,7.401231264,6.663132696
30,45,8,100,909,687,21,5,0.01,8,6.812345094,6.532334292
30,37.5,0.98,93.49,1381,1591,22,6,6.51,0.98,7.230563153,7.372118028
30,41,7.09,93,950,1543,23,7,7,7.09,6.856461985,7.341483852
30,41,6.53,NaN,1006,11635,24,8,35.21,6.53,6.913737351,NaN
31,41,1.88,NaN,7576,8646,1,1,19.11,1.88,8.932740635,NaN
31,44,5.94,81.05,4402,4204,2,2,18.95,5.94,8.389814262,8.343791732
31,46.5,7.95,96.01,4756,2718,3,3,3.99,7.95,8.467162258,7.907651595
31,43.5,2.07,70.89,3492,3330,4,4,29.11,2.07,8.158229917,8.110727583
31,42,1.9,76.25,3674,3831,5,5,23.75,1.9,8.209036266,8.250881145
31,46,7.46,76.99,2999,6159,6,6,23.01,7.46,8.006034179,8.725669706
31,41.5,1.72,59.91,2118,1433,7,7,40.09,1.72,7.658227526,7.267525428
31,46.5,8.43,70.48,6208,2713,8,8,29.52,8.43,8.733594062,7.905810313
31,44,6.48,60.97,5395,3332,9,1,39.03,6.48,8.593227878,8.111328003
31,41.5,1.53,68.53,6325,1945,10,2,31.47,1.53,8.752265314,7.573017256
31,41.5,0.95,39.59,7347,1764,11,3,60.41,0.95,8.902047346,7.475339237
31,46,7.95,90.89,2041,2310,12,4,9.11,7.95,7.621195163,7.745002804
31,44,6.95,79.67,2458,1672,13,5,20.33,6.95,7.80710329,7.421775794
31,44,2.96,50.97,2985,2739,14,6,49.03,2.96,8.001355026,7.915348169
31,46,7.48,60.89,3319,1832,15,7,39.11,7.48,8.107418812,7.513163545
31,42,0,50.24,6451,1003,16,8,49.76,-1.3,8.771990437,6.910750788
31,46,7.95,89.99,2284,2491,17,1,10.01,7.95,7.733683571,7.820439515
31,46,8.11,92.43,4694,1129,18,2,7.57,8.11,8.454040376,7.029087564
31,44,7.65,83.81,4944,1485,19,3,16.19,7.65,8.505929999,7.303170051
31,42,1.51,67.47,4624,994,20,4,32.53,1.51,8.43901541,6.901737207
31,46,7.95,83.08,2547,3694,21,5,16.92,7.95,7.842671475,8.214465161
31,42,0,88.69,2499,1529,22,6,11.31,-1.07,7.823645931,7.332369206
31,44,6.95,71.54,3118,3021,23,7,28.46,6.95,8.04494705,8.013343181
31,44,5.92,55.36,4353,763,24,8,44.64,5.92,8.378620542,6.637258031
32,41,1.33,NaN,61192,6487,1,1,8.79,1.33,NaN,NaN
32,44,1.97,50.16,7048,5992,2,2,49.84,1.97,8.860499168,8.698180525
32,47,4,80.81,3193,3470,3,3,19.19,4,8.068716193,8.151909873
32,49.5,8.04,100,8027,4304,4,4,0.01,8.04,8.990566138,8.367300102
32,43.5,1.8,81.21,5513,1544,5,5,18.79,1.8,8.614864219,7.342131731
32,50,7.83,100,4221,967,6,6,0.01,7.83,8.347827346,6.874198495
32,43.5,2.98,70.48,2264,1741,7,7,29.52,2.98,7.724888439,7.46221494
32,50,8.18,100,3818,1334,8,8,0.01,8.18,8.247482004,7.195937226
32,46.5,6.98,93,2756,2057,9,1,7,6.98,7.921535632,7.62900389
32,43,1.29,80.72,2110,2127,10,2,19.28,1.29,7.654443226,7.662467815
32,43.5,1.9,60.64,2826,2697,11,3,39.36,1.9,7.946617563,7.899895323
32,50,7.96,93.98,2499,1285,12,4,6.02,7.96,7.823645931,7.158513997
32,46.5,5.93,80.81,2200,1602,13,5,19.19,5.93,7.696212639,7.379008128
32,46.5,1.88,73.25,1832,1242,14,6,26.75,1.88,7.513163545,7.124478262
32,49.5,8.25,98.77,1478,1753,15,7,1.23,8.25,7.298445102,7.469083885
32,43.5,2.09,40.4,3735,3298,16,8,59.6,2.09,8.225503098,8.101071503
32,49.5,7.96,100,2047,658,17,1,0.01,7.96,7.624130586,6.489204931
32,49.5,8.31,100,1686,1303,18,2,0.01,8.31,7.430114139,7.172424577
32,46.5,5.94,76.42,1763,1390,19,3,23.58,5.94,7.474772182,7.237059026
32,43.5,1.12,91.7,3180,2061,20,4,8.3,1.12,8.064636476,7.630946581
32,49.5,8.43,100,1610,1600,21,5,0.01,8.43,7.383989458,7.377758908
32,43.5,1.53,79.67,2868,1331,22,6,20.33,1.53,7.961370202,7.193685818
32,46.5,1.88,62.84,3735,3298,23,7,37.16,1.88,8.225503098,8.101071503
32,46.5,3.5,80.72,2117,2334,24,8,19.28,3.5,7.657755271,7.755338813
33,41,2,NaN,2228,12997,1,1,59.52,2,7.708859601,NaN
33,44,1.96,60.56,2076,2528,2,2,39.44,1.96,7.638198244,7.835183755
33,47,3.95,61.86,3346,2581,3,3,38.14,3.95,8.115520882,7.8559322
33,49.5,7.95,100,3194,1296,4,4,0.01,7.95,8.069029329,7.167037877
33,43,3.96,80.72,2603,2962,5,5,19.28,3.96,7.864419905,7.993619995
33,49.5,7.9,100,1936,845,6,6,0.01,7.9,7.568379268,6.739336627
33,42.5,1.9,82.43,1304,1389,7,7,17.57,1.9,7.173191742,7.236339343
33,49.5,8.04,100,1201,1222,8,8,0.01,8.04,7.090909822,7.10824414
33,46,6.99,89.1,1909,1565,9,1,10.9,6.99,7.554334824,7.355641103
33,41.5,1,100,2200,1626,10,2,0.01,1,7.696212639,7.39387829
33,42.5,0.96,100,1360,1001,11,3,0.01,0.96,7.215239979,6.908754779
33,49,7.97,100,1499,1054,12,4,0.01,7.97,7.312553498,6.960347729
33,46,4.93,80.97,1263,2105,13,5,19.03,4.93,7.141245122,7.652070746
33,46,1.94,91.62,1562,1813,14,6,8.38,1.94,7.35372233,7.502738211
33,49,7.95,100,2471,1799,15,7,0.49,7.95,7.812378206,7.494986234
33,43,1.88,100,1651,1046,16,8,0.01,1.88,7.409136444,6.952728645
33,49.5,7.97,100,1500,1637,17,1,0.01,7.97,7.313220387,7.400620577
33,49.5,8.46,100,2020,2472,18,2,0.01,8.46,7.61085279,7.812782819
33,46,3.92,100,923,895,19,3,0.01,3.92,6.827629235,6.796823718
33,43,1.05,100,1569,936,20,4,0.01,1.05,7.358193753,6.841615476
33,49,8.32,100,971,915,21,5,0.01,8.32,6.878326468,6.818924065
33,43,1.9,97.64,1117,887,22,6,2.36,1.9,7.018401799,6.787844982
33,46,3.9,100,874,8696,23,7,0.01,3.9,6.773080376,9.070618429
33,46,5,100,840,1110,24,8,0.01,5,6.733401892,7.012115294
34,41,2.98,NaN,5833,4107,1,1,64.56,2.98,NaN,NaN
34,44,2.98,39.83,1894,2949,2,2,60.17,2.98,7.546446274,7.989221409
34,47,5.95,80.48,1326,7928,3,3,19.52,5.95,7.189922171,8.978156076
34,45.5,8,90.16,2062,8435,4,4,9.84,8,7.631431665,9.040144995
34,42.5,5.97,100,818,3420,5,5,0.74,5.97,6.706862337,8.13739583
34,45.5,6.94,80.81,895,2796,6,6,19.19,6.94,6.796823718,7.935945103
34,42,7.98,82.76,1589,7114,7,7,17.24,7.98,7.370860167,8.869819953
34,44.5,8.7,86.74,1069,10018,8,8,13.26,8.7,6.974478911,9.212138754
34,43.5,8,88.12,1145,1362,9,1,11.88,8,7.043159916,7.216709487
34,42.5,7.99,83,1423,949,10,2,17,7.99,7.260522598,6.855408799
34,42.5,8.01,87.23,1103,1268,11,3,12.77,8.01,7.005789019,7.145196135
34,44,8.47,83.98,1624,7510,12,4,16.02,8.47,7.392647521,8.923990745
34,43,8.19,87.23,2089,2490,13,5,12.77,8.19,7.644440762,7.820037989
34,42,7.98,93.98,1047,866,14,6,6.02,7.98,6.953684211,6.763884909
34,42,8.03,87.15,1291,9718,15,7,12.85,8.03,7.163172391,9.181735115
34,38,7.99,100,1187,734,16,8,0.01,7.99,7.079184395,6.598509029
34,43,7.99,97.64,2242,1581,17,1,2.36,7.99,7.715123604,7.365812837
34,43,8.02,93.73,1812,1301,18,2,6.27,8.02,7.502186487,7.170888479
34,40,8,96.9,1381,795,19,3,3.1,8,7.230563153,6.678342115
34,36,0,89.75,3187,5490,20,4,10.25,-0.32,8.066835314,8.610683535
34,42,2.95,92.76,1506,793,21,5,7.24,2.95,7.317212408,6.675823222
34,38,3.03,84.55,805,2024,22,6,15.45,3.03,6.690842277,7.61283103
34,40,1.95,68.94,805,978,23,7,31.06,1.95,6.690842277,6.88550967
34,41,1.95,60.4,826,1460,24,8,39.6,1.95,6.716594774,7.286191715
35,41,0.99,100,4639,2819,1,1,0.01,0.99,8.442254105,7.944137491
35,44,1.97,100,3896,8148,2,2,0.01,1.97,8.267705665,9.005527777
35,47,4.46,100,7874,3961,3,3,0.01,4.46,8.971321472,8.284251798
35,48,7.95,NaN,18284,6572,4,4,0.01,7.95,NaN,NaN
35,43.5,2.46,100,2867,776,5,5,0.01,2.46,7.961021466,6.65415252
35,48.5,7.98,100,4887,5857,6,6,0.01,7.98,8.494333897,8.675392806
35,43,2.44,100,4881,3299,7,7,0.01,2.44,8.493105396,8.101374671
35,48.5,7.98,100,3395,1823,8,8,0.01,7.98,8.13005904,7.508238775
35,45.5,2,100,3298,3015,9,1,0.01,2,8.101071503,8.011355109
35,43,2,100,2430,960,10,2,0.01,2,7.795646536,6.866933284
35,43,2.48,100,2916,813,11,3,0.01,2.48,7.977968093,6.70073111
35,48.5,7.98,100,6541,7239,12,4,0.01,7.98,8.785845338,8.887238354
35,45.5,3.53,100,2812,1183,13,5,0.01,3.53,7.941651253,7.075808864
35,46,2.48,100,1208,769,14,6,0.01,2.48,7.096721378,6.64509097
35,48.5,7.41,100,1888,911,15,7,0.01,7.41,7.543273347,6.814542897
35,43,2,100,4256,904,16,8,0.01,2,8.356085031,6.80682936
35,48.5,6.98,100,1507,3919,17,1,0.01,6.98,7.317876199,8.273591798
35,49,7.97,100,2971,686,18,2,0.01,7.97,7.996653875,6.530877628
35,46,5.95,100,3006,989,19,3,0.01,5.95,8.00836557,6.896694332
35,43,2,100,2394,777,20,4,0.01,2,7.780720886,6.65544035
35,49,7.99,100,2346,4340,21,5,0.01,7.99,7.760467029,8.375629627
35,43,1.38,100,4020,795,22,6,0.01,1.38,8.299037182,6.678342115
35,46,2.43,100,2361,567,23,7,0.01,2.43,7.766840537,6.340359304
35,46,4,100,2291,549,24,8,0.01,4,7.736743682,6.308098442
36,41,0.8,82.84,3054,3038,1,1,17.16,0.8,8.024207486,8.018954683
36,44,0.65,NaN,4451,25140,2,2,7.24,0.65,8.400884069,NaN
36,47,1.55,87.39,9597,3049,3,3,12.61,1.55,9.169205829,8.022568947
36,48,2.99,85.12,4423,4938,4,4,14.88,2.99,8.394573478,8.50471567
36,46.5,4.03,NaN,2222,23451,5,5,8.79,4.03,7.70616297,NaN
36,50,5.54,87.55,8693,1846,6,6,12.45,5.54,9.070273383,7.520776415
36,45.5,4.99,93.33,3186,1820,7,7,6.67,4.99,8.06652149,7.50659178
36,50,7.59,92.27,1555,4136,8,8,7.73,7.59,7.349230825,8.327484416
36,48,6.03,87.88,2235,1885,9,1,12.12,6.03,7.711996507,7.5416831
36,45,4.88,84.14,2006,4548,10,2,15.86,4.88,7.603897969,8.422442855
36,45,4.48,94.95,2409,2433,11,3,5.05,4.48,7.786967003,7.796880343
36,50,7.95,95.93,2450,2880,12,4,4.07,7.95,7.803843304,7.965545573
36,47.5,5.23,93.65,2722,2672,13,5,6.35,5.23,7.909122183,7.890582535
36,47.5,5.45,47.8,4854,1653,14,6,52.2,5.45,8.487558386,7.410347098
36,50,7.95,100,993,1196,15,7,0.01,7.95,6.900730664,7.086737935
36,44,4.63,72.11,2812,2094,16,8,27.89,4.63,7.941651253,7.646831391
36,50,8.05,97.88,1395,1443,17,1,2.12,8.05,7.240649694,7.274479559
36,50,9.09,100,1909,1256,18,2,0.01,9.09,7.554334824,7.135687347
36,46.5,6.4,85.03,2632,3761,19,3,14.97,6.4,7.875499292,8.232440158
36,43.5,3.43,97.39,833,865,20,4,2.61,3.43,6.725033642,6.762729507
36,49.5,8.32,94.79,1701,7654,21,5,5.21,8.32,7.438971592,8.942983666
36,43,4.27,91.21,6381,884,22,6,8.79,4.27,8.761080104,6.784457063
36,46.5,5.55,89.26,1027,1240,23,7,10.74,5.55,6.93439721,7.122866659
36,46,7.83,92.92,2881,3036,24,8,7.08,7.83,7.965892735,8.018296139
37,41,1.95,NaN,1722,13974,1,1,0.33,1.95,7.451241685,NaN
37,44,4.01,92.43,7825,1953,2,2,7.57,4.01,8.965079015,7.577121931
37,47,5.95,94.38,5034,1600,3,3,5.62,5.95,8.523970176,7.377758908
37,45.5,7.97,NaN,11047,1354,4,4,0.01,7.97,NaN,NaN
37,42,5,96.17,3326,1416,5,5,3.83,5,8.10952566,7.255591274
37,46.5,7.43,100,4346,1111,6,6,0.01,7.43,8.377011161,7.01301579
37,41.5,6.95,95.12,4346,1406,7,7,4.88,6.95,8.377011161,7.248504072
37,45,7.98,98.85,3110,1341,8,8,1.15,7.98,8.042378005,7.201170883
37,43.5,5.47,98.29,686,1835,9,1,1.71,5.47,6.530877628,7.51479976
37,41,3,93.49,2589,1263,10,2,6.51,3,7.85902698,7.141245122
37,41,1.4,100,1632,2218,11,3,0.01,1.4,7.397561536,7.704361168
37,45,5.35,100,1019,1142,12,4,0.01,5.35,6.926577033,7.04053639
37,43.5,4.47,100,826,982,13,5,0.01,4.47,6.716594774,6.889591308
37,43.5,3.02,100,1325,1075,14,6,0.01,3.02,7.189167738,6.980075941
37,46,7.01,100,2430,968,15,7,0.01,7.01,7.795646536,6.875232087
37,41.5,3.49,100,1562,2029,16,8,0.01,3.49,7.35372233,7.61529834
37,46,7.45,100,2013,1048,17,1,0.01,7.45,7.607381426,6.954638865
37,46,7.98,100,1819,946,18,2,0.01,7.98,7.506042179,6.852242569
37,43.5,4.98,100,1354,1056,19,3,0.01,4.98,7.210818453,6.962243464
37,41.5,5.5,100,909,3234,20,4,0.01,5.5,6.812345094,8.08147504
37,46,6.5,100,1229,848,21,5,0.01,6.5,7.11395611,6.742880636
37,40,2.5,100,1943,1097,22,6,0.01,2.5,7.571988449,7.00033446
37,43.5,4.98,100,1041,681,23,7,0.01,4.98,6.947937069,6.523562306
37,43.5,6.03,100,1090,923,24,8,0.01,6.03,6.993932975,6.827629235
38,41,0.53,92.11,3728,8823,1,1,7.89,0.53,8.223627176,9.085117227
38,44,0.38,94.3,2673,3255,2,2,5.7,0.38,7.890956716,8.087947555
38,47,0.98,NaN,10228,4365,3,3,0.09,0.98,NaN,NaN
38,48,3.96,100,6187,7143,4,4,0.41,3.96,8.730205596,8.873888135
38,46,1.93,100,5846,3655,5,5,0.58,1.93,8.673512946,8.203851372
38,50,4.01,100,5041,5015,6,6,0.01,4.01,8.525359754,8.5201887
38,46,1.99,100,4485,3240,7,7,0.01,1.99,8.408493774,8.083328609
38,50,7.01,100,2422,14737,8,8,0.01,7.01,7.792348924,9.598116617
38,49,5.02,100,1985,2855,9,1,0.09,5.02,7.593374193,7.956827122
38,46,2.96,100,3249,2218,10,2,0.01,2.96,8.086102536,7.704361168
38,46,0.32,100,1769,2403,11,3,0.01,0.32,7.478169694,7.784473236
38,50,7.93,100,1673,3351,12,4,0.01,7.93,7.422373701,8.117014088
38,48.5,7.95,100,1722,1379,13,5,0.01,7.95,7.451241685,7.229113878
38,48.5,6,80.16,4075,12068,14,6,19.84,6,8.312626026,9.3983126
38,50,8.01,NaN,2055,43493,15,7,0.01,8.01,7.628031127,NaN
38,45.5,0.4,100,3165,5825,16,8,0.17,0.4,8.059908335,8.669914278
38,49,6,100,4429,5531,17,1,0.01,6,8.395929104,8.61812391
38,50,9.32,100,5728,14777,18,2,0.01,9.32,8.653121709,9.600827197
38,48,4,99.18,1568,1472,19,3,0.82,4,7.357556201,7.294377299
38,46,2,99.1,4124,2774,20,4,0.9,2,8.324578845,7.928045601
38,49,9.47,100,1860,4153,21,5,0.58,9.47,7.528331767,8.331586244
38,46,3.01,100,3304,2995,22,6,0.01,3.01,8.102889135,8.004699511
38,48,4.08,81.86,2006,6612,23,7,18.14,4.08,7.603897969,8.796641459
38,48,3,100,1826,1442,24,8,0.01,3,7.509883061,7.273786318
39,41,1.16,100,5236,5085,1,1,0.17,1.16,8.563313127,8.534050308
39,44,2.02,88.61,1715,6461,2,2,11.39,2.02,7.44716836,8.773539384
39,47,2.5,100,3194,2613,3,3,0.01,2.5,8.069029329,7.868254266
39,48,5.95,NaN,9589,7669,4,4,0.01,5.95,NaN,NaN
39,44,2.71,97.39,2506,2786,5,5,2.61,2.71,7.826443135,7.932362154
39,50,7.78,96.01,2590,8091,6,6,3.99,7.78,7.859413155,8.998507612
39,43,4.03,100,3798,2919,7,7,0.01,4.03,8.242229891,7.978996371
39,50,8,100,2589,2054,8,8,0.01,8,7.85902698,7.62754439
39,46.5,4.5,100,4013,1339,9,1,0.01,4.5,8.29729437,7.199678346
39,43,0.97,100,2853,2115,10,2,0.01,0.97,7.956126351,7.656810091
39,43.5,1.46,98.37,2152,2328,11,3,1.63,1.46,7.674152921,7.752764809
39,50,7.97,100,2138,6518,12,4,0.01,7.97,7.667626092,8.782322859
39,47,6.99,81.29,1632,3662,13,5,18.71,6.99,7.397561536,8.205764725
39,47,4.98,80.07,2499,1881,14,6,19.93,4.98,7.823645931,7.539558829
39,50,8.09,96.09,2485,6387,15,7,3.91,8.09,7.818027939,8.762019954
39,43.5,3.99,87.23,1742,2871,16,8,12.77,3.99,7.462789157,7.96241568
39,50,7.48,90.72,2332,2830,17,1,9.28,7.48,7.754481547,7.948031991
39,50,7.98,96.74,1916,5288,18,2,3.26,7.98,7.557994959,8.573195382
39,46.5,4.5,80.72,3527,3309,19,3,19.28,4.5,8.16820293,8.104401308
39,43,4.99,83.73,1972,2450,20,4,16.27,4.99,7.586803535,7.803843304
39,50,8.26,95.52,2735,3320,21,5,4.48,8.26,7.913886715,8.107720062
39,43,2,78.69,2283,2476,22,6,21.31,2,7.733245647,7.814399634
39,46.5,2.48,85.85,1312,2851,23,7,14.15,2.48,7.17930797,7.955425089
39,46.5,5.96,100,1909,1052,24,8,0.01,5.96,7.554334824,6.958448393
40,41,1,NaN,6548,3651,1,1,-1.37,1,8.786914938,NaN
40,44,1.45,100,5673,2098,2,2,-0.82,1.45,8.643473357,7.648739789
40,47,1.98,100,5394,1951,3,3,-3.74,1.98,8.593042504,7.576097341
40,48,3.98,100,5242,2175,4,4,0.68,3.98,8.564458384,7.684783944
40,45,2.46,100,5499,1710,5,5,-1.61,2.46,8.612321537,7.444248649
40,50,6.48,100,5152,1789,6,6,-0.19,6.48,8.547140268,7.489412084
40,45,1.16,100,5208,1680,7,7,-16.15,1.16,8.557951184,7.426549072
40,50,7.93,100,5547,2293,8,8,-18.76,7.93,8.62101252,7.737616283
40,48,6.91,97.02,5624,1577,9,1,2.98,6.91,8.634798433,7.363279587
40,45,3.34,96.39,5437,1366,10,2,3.61,3.34,8.600982717,7.21964204
40,44.5,4.5,100,5291,1416,11,3,-6.11,4.5,8.573762543,7.255591274
40,50,8,100,6201,1736,12,4,-11.57,8,8.732465848,7.459338895
40,47,7.59,100,5749,1744,13,5,-8.17,7.59,8.656781206,7.463936604
40,47,3.02,100,5298,1376,14,6,-2.64,3.02,8.57508467,7.226936018
40,49.5,7.96,100,5339,1061,15,7,-2.56,7.96,8.582793649,6.966967139
40,45,4.97,100,5103,1840,16,8,-11.33,4.97,8.537583881,7.517520851
40,50,7.39,100,5465,880,17,1,-18.13,7.39,8.606119401,6.779921907
40,50,7.98,97.26,5958,1936,18,2,2.74,7.98,8.692490133,7.568379268
40,47,7.02,100,5186,1111,19,3,-16.79,7.02,8.553717966,7.01301579
40,44.5,1.96,100,4791,979,20,4,-3.43,1.96,8.474494437,6.886531643
40,49.5,7.94,100,5437,1149,21,5,-9.83,7.94,8.600982717,7.046647278
40,44.5,0.99,98.84,5533,1417,22,6,1.16,0.99,8.618485443,7.25629724
40,47,4.98,100,5312,2322,23,7,-3.27,4.98,8.577723691,7.750184162
40,47,6.97,100,5444,899,24,8,-18.05,6.97,8.602269364,6.801283034
41,41,0,NaN,5096,7366,1,1,-2.16,-0.22,8.536211197,NaN
41,44,2.35,97.34,7527,4502,2,2,2.66,2.35,8.926251835,8.412277021
41,47,6.23,100,6819,1992,3,3,-0.82,6.23,8.827468113,7.596894438
41,46,7.43,96.95,5276,3215,4,4,3.05,7.43,8.570923514,8.075582637
41,43,3.58,100,6978,1628,5,5,-17.66,3.58,8.850517622,7.395107547
41,47,7.75,100,5319,1928,6,6,-9.67,7.75,8.579040595,7.564238475
41,43,6.13,96.55,5979,1263,7,7,3.45,6.13,8.696008609,7.141245122
41,46.5,9.13,96.95,5888,1680,8,8,3.05,9.13,8.68067166,7.426549072
41,44.5,5.27,100,5894,1292,9,1,-1.61,5.27,8.681690163,7.163946684
41,42.5,3.43,97.81,4729,1199,10,2,2.19,3.43,8.461469043,7.089243155
41,42.5,4.37,100,5707,1678,11,3,-7.85,4.37,8.649448771,7.425357887
41,46,8,100,7110,1137,12,4,-14.02,8,8.869257523,7.036148494
41,44,4.44,100,5931,1106,13,5,0.21,4.44,8.687948112,7.008505182
41,44,5.95,100,6826,1063,14,6,-5.17,5.95,8.828494129,6.968850378
41,46,7.98,100,5895,1327,15,7,-14.34,7.98,8.681859813,7.190676034
41,42,7.98,100,4013,1648,16,8,-2.56,7.98,8.29729437,7.40731771
41,46.5,8.06,100,6263,1237,17,1,-8.33,8.06,8.742414583,7.120444372
41,46.5,7.98,100,7923,2458,18,2,0.05,7.98,8.977525201,7.80710329
41,43.5,5.02,100,6499,2849,19,3,0.6,5.02,8.779403598,7.954723334
41,41,6.56,100,6854,988,20,4,-12.99,6.56,8.832587702,6.895682698
41,46.5,7.98,100,6804,1533,21,5,-0.82,7.98,8.825265954,7.334981879
41,40.5,7.98,98.53,4013,3265,22,6,1.47,7.98,8.29729437,8.091015042
41,43.5,4.01,100,5512,1066,23,7,-18.37,4.01,8.614682813,6.971668605
41,43.5,4.86,100,5589,942,24,8,-0.74,4.86,8.628555659,6.848005275
42,41,1.05,50.86,6679,4999,1,1,49.14,1.05,8.806723555,8.516993171
42,44,2.01,79.4,7409,5488,2,2,20.6,2.01,8.910450756,8.610319169
42,47,2.01,NaN,4013,125575,3,3,38.31,2.01,8.29729437,NaN
42,45,7.02,80.34,7437,15384,4,4,19.66,7.02,8.914222821,9.641083287
42,42.5,1.03,96.87,5638,2353,5,5,3.13,1.03,8.637284672,7.763446389
42,46.5,8.05,81.93,5034,1985,6,6,18.07,8.05,8.523970176,7.593374193
42,43,4.93,80.5,5784,1840,7,7,19.5,4.93,8.662850764,7.517520851
42,46,7.94,81.53,5728,5176,8,8,18.47,7.94,8.653121709,8.551787836
42,44,7.99,74.1,5415,1758,9,1,25.9,7.99,8.596928159,7.471932078
42,42,0.93,99,7152,5705,10,2,1,0.93,8.875147317,8.649098262
42,42.5,4.96,81.29,6262,1539,11,3,18.71,4.96,8.742254902,7.338888134
42,45.5,6.96,89.51,5472,2334,12,4,10.49,6.96,8.607399459,7.755338813
42,44,3.98,98.29,5582,1885,13,5,1.71,3.98,8.627302414,7.5416831
42,44,5.95,97.89,5513,1697,14,6,2.11,5.95,8.614864219,7.436617265
42,46,7.98,97.02,5284,1488,15,7,2.98,7.98,8.572438666,7.305188215
42,42,3.99,95.29,5500,1886,16,8,4.71,3.99,8.612503371,7.542213463
42,46,8.09,80.5,6020,1369,17,1,19.5,8.09,8.702842538,7.221835825
42,45.5,4.98,92.36,5735,2272,18,2,7.64,4.98,8.65434303,7.72841578
42,44,3.97,91.41,5214,1878,19,3,8.59,3.97,8.559102594,7.53796266
42,42,3.93,92.76,4909,3376,20,4,7.24,3.93,8.498825534,8.124446856
42,46,8.4,90.94,7297,2392,21,5,9.06,8.4,8.895218584,7.779885115
42,41.5,1.02,95.6,6242,2039,22,6,4.4,1.02,8.739055923,7.620214771
42,44,6.99,90.54,5437,3450,23,7,9.46,6.99,8.600982717,8.14612951
42,44,8.01,90.86,5381,2143,24,8,9.14,8.01,8.590629509,7.669961995
43,41,1.02,NaN,5325,2445,1,1,0.21,1.02,8.580167991,NaN
43,44,0.46,100,5457,1674,2,2,-7.77,0.46,8.604654467,7.422971251
43,47,2,100,6458,1065,3,3,-18.92,2,8.773074951,6.970730078
43,47,4.42,100,5957,1193,4,4,-3.03,4.42,8.692322278,7.084226422
43,45,3.5,95.52,5527,1532,5,5,4.48,3.5,8.617400452,7.33432935
43,50,7.01,100,5402,937,6,6,-5.17,7.01,8.594524534,6.842683282
43,44.5,5.93,100,5832,1137,7,7,-5.17,5.93,8.671115274,7.036148494
43,50,7.97,100,5908,1287,8,8,-11.1,7.97,8.684062644,7.160069208
43,47,5.44,100,6534,1063,9,1,0.13,5.44,8.784774592,6.968850378
43,43,0.4,100,6027,999,10,2,-18.21,0.4,8.704004653,6.906754779
43,44,0.61,100,7194,1117,11,3,-3.35,0.61,8.881002624,7.018401799
43,50,7.99,100,5500,1331,12,4,-4.06,7.99,8.612503371,7.193685818
43,47,6.93,97.1,6131,1350,13,5,2.9,6.93,8.721113148,7.207859871
43,46.5,2.68,100,6235,2004,14,6,-7.93,2.68,8.737933858,7.602900462
43,49.5,7.7,100,6186,1818,15,7,-11.33,7.7,8.730043953,7.505492275
43,44.5,1.98,97.42,7173,1316,16,8,2.58,1.98,8.878079256,7.182352112
43,50,7.63,100,5609,902,17,1,-6.19,7.63,8.63212773,6.80461452
43,50,7.73,98.84,5853,1116,18,2,1.16,7.73,8.674709629,7.017506143
43,47,1.94,100,6388,949,19,3,-3.11,1.94,8.762176509,6.855408799
43,44.5,2.19,100,5812,853,20,4,-13.07,2.19,8.667680025,6.748759547
43,50,7.97,100,5756,1414,21,5,-3.59,7.97,8.657998068,7.254177846
43,44.5,0.98,100,5777,1033,22,6,-14.34,0.98,8.661639796,6.940222469
43,47.5,2.08,98.45,6410,1141,23,7,1.55,2.08,8.76561455,7.03966035
43,47.5,5.95,100,5103,948,24,8,-1.13,5.95,8.537583881,6.854354502
44,41,0,NaN,4020,25687,1,1,0.84,0,8.299037182,NaN
44,44,1,100,6965,2889,2,2,-1.21,1,8.848652886,7.9686657
44,47,1.95,100,5249,1585,3,3,-0.03,1.95,8.565792861,7.368339686
44,48,2.33,100,6985,1594,4,4,-18.45,2.33,8.851520272,7.374001859
44,47,1.95,89.36,6076,3436,5,5,10.64,1.95,8.712101864,8.142063283
44,50,3.03,100,5346,1466,6,6,-5.8,3.03,8.584103897,7.290292882
44,47,2.47,100,5763,1454,7,7,0.6,2.47,8.659213451,7.282073658
44,50,5.02,100,6923,886,8,8,0.76,5.02,8.842604481,6.786716951
44,48.5,3.98,80.98,4853,1898,9,1,19.02,3.98,8.487352349,7.548555979
44,46,1.53,98.21,5701,1208,10,2,1.79,1.53,8.648396877,7.096721378
44,46.5,1.46,100,5450,1132,11,3,-5.4,1.46,8.603370888,7.031741259
44,50,4.41,100,5617,1213,12,4,0.05,4.41,8.633552993,7.100851909
44,49.5,5.43,100,4881,1072,13,5,-9.59,5.43,8.493105396,6.977281342
44,49,1.95,100,5714,879,14,6,-4.77,1.95,8.650674583,6.778784898
44,50,3.01,98.13,5492,3260,15,7,1.87,3.01,8.611047767,8.089482474
44,47,1.36,100,6361,775,16,8,-4.22,1.36,8.757940877,6.652863029
44,50,4.01,100,5256,1302,17,1,-0.19,4.01,8.56712556,7.171656823
44,50,5.95,100,4860,928,18,2,-2,5.95,8.488793717,6.833031733
44,49.5,5.95,100,4013,15796,19,3,-4.06,5.95,8.29729437,9.667512022
44,47,2.41,100,5277,1242,20,4,-2,2.41,8.571113033,7.124478262
44,50,4.97,100,5367,999,21,5,-18.68,4.97,8.588024372,6.906754779
44,47,1.05,100,5617,1133,22,6,-0.03,1.05,8.633552993,7.032624261
44,49.5,3,100,5548,1017,23,7,-0.27,3,8.621192781,6.924612396
44,50,4.5,87.46,7582,1347,24,8,12.54,4.5,8.933532296,7.205635176
45,41,0,100,4013,2712,1,1,-3.98,0,8.29729437,7.905441649
45,44,5.9,61.37,6819,3481,2,2,38.63,5.9,8.827468113,8.155074888
45,47,5.9,81.21,4013,6365,3,3,18.79,5.9,8.29729437,8.758569511
45,44,5.93,61.37,7200,3178,4,4,38.63,5.93,8.881836305,8.064007347
45,41.5,0,97.89,5895,1752,5,5,2.11,-0.08,8.681859813,7.468513271
45,46,3.17,80.74,6097,2180,6,6,19.26,3.17,8.715552126,7.687080156
45,42.5,4.94,90.07,5388,4407,7,7,9.93,4.94,8.591929538,8.390949465
45,46.5,8.03,100,5305,2175,8,8,-6.75,8.03,8.576405051,7.684783944
45,44.5,5.05,81.37,5569,2006,9,1,18.63,5.05,8.624970784,7.603897969
45,42.5,4.05,100,5611,1974,10,2,-1.37,4.05,8.632484236,7.58781722
45,42,1.01,100,7311,1862,11,3,-18.45,1.01,8.897135342,7.529406458
45,46.5,7.95,100,6082,1870,12,4,-3.66,7.95,8.713088868,7.53369371
45,44,1.13,81.06,6444,2808,13,5,18.94,1.13,8.770904744,7.940227765
45,44,1.04,100,5513,2094,14,6,0.45,1.04,8.614864219,7.646831391
45,46.5,7.98,NaN,5340,8648,15,7,17.92,7.98,8.582980932,NaN
45,42.5,0.4,100,5360,2002,16,8,-0.03,0.4,8.586719254,7.60190196
45,46.5,6.95,100,5742,910,17,1,-0.5,6.95,8.655562861,6.8134446
45,46.5,6.95,82.4,4013,2378,18,2,17.6,6.95,8.29729437,7.774015077
45,45,3.98,100,5915,1173,19,3,-11.89,3.98,8.685246776,7.067319849
45,43,3.18,100,7527,1680,20,4,-15.68,3.18,8.926251835,7.426549072
45,46.5,8,98.21,5277,4912,21,5,1.79,8,8.571113033,8.49943647
45,42.5,4.58,100,7255,3654,22,6,0.21,4.58,8.889446165,8.203577737
45,44,5.97,100,5625,1995,23,7,-5.56,5.97,8.634976227,7.598399329
45,44,4,99,5228,2926,24,8,1,4,8.561784075,7.981391582
46,41,1.09,100,5478,1772,1,1,-1.77,1.09,8.60849535,7.479864131
46,44,1.01,100,5375,1433,2,2,-0.11,1.01,8.589513853,7.267525428
46,47,1.98,100,5089,1364,3,3,-7.22,1.98,8.534836627,7.218176838
46,48,4.49,100,5388,1625,4,4,-0.58,4.49,8.591929538,7.393263095
46,44.5,1.93,98.84,5763,1892,5,5,1.16,1.93,8.659213451,7.54538975
46,50,6.28,98.92,5139,1334,6,6,1.08,6.28,8.544613787,7.195937226
46,44.5,1.04,100,5569,1386,7,7,0.29,1.04,8.624970784,7.23417718
46,50,7.96,100,5158,1144,8,8,-4.3,7.96,8.548304186,7.042286172
46,48,3.46,100,5478,1479,9,1,-1.61,3.46,8.60849535,7.299121463
46,45,1.04,100,5138,1237,10,2,-13.78,1.04,8.544419178,7.120444372
46,45.5,0.95,100,4833,1232,11,3,-2.4,0.95,8.483222672,7.116394144
46,50,7.58,97.02,5173,1627,12,4,2.98,7.58,8.55120807,7.394493107
46,48,3.23,100,5631,1172,13,5,-5.8,3.23,8.636042325,7.06646697
46,48.5,1.97,100,5402,878,14,6,-1.21,1.97,8.594524534,6.777646594
46,50,7.85,100,5165,850,15,7,-0.74,7.85,8.549660382,6.745236349
46,46,2.03,100,5375,1084,16,8,-18.6,2.03,8.589513853,6.988413182
46,50,8.03,100,5117,1296,17,1,0.76,8.03,8.540323609,7.167037877
46,50,7.99,98.68,5714,1205,18,2,1.32,7.99,8.650674583,7.094234846
46,48,3.53,100,5179,1405,19,3,-4.14,3.53,8.552367266,7.247792582
46,46,0.98,100,5847,1236,20,4,0.6,0.98,8.673683988,7.119635638
46,50,7.88,100,5971,1792,21,5,-18.6,7.88,8.694669697,7.491087594
46,46.5,1.93,NaN,6165,2639,22,6,92.54,1.93,8.726643416,NaN
46,48.5,4.13,99.16,5339,948,23,7,0.84,4.13,8.582793649,6.854354502
46,48.5,7.97,100,5214,1422,24,8,-12.76,7.97,8.559102594,7.25981961