Subj_idx,Block,Trial_in_block,Trial,Stimulus,RT_start,Response,Confidence,RT_conf,ErrorDirection,RT_error
1,1,1,1,2.1,1.6347,1.3304,2,2.3045,0,1.8267
1,1,2,2,2.1,1.1897,1.8649,2,2.5744,0,1.626
1,1,3,3,2.1,2.764,1.8337,1,5.2662,0,0.59032
1,1,4,4,2.1,1.9303,1.8571,1,2.8775,0,2.5393
1,1,5,5,2.1,2.2515,1.6712,1,2.9523,0,1.3614
1,1,6,6,2.1,1.2025,1.985,3,1.5424,1,3.3641
1,1,7,7,2.1,0.94547,1.9392,3,0.92837,1,1.1847
1,1,8,8,2.1,0.96528,1.9134,2,2.7412,1,1.2432
1,1,9,9,2.1,1.4051,1.9078,2,1.7407,0,0.51486
1,1,10,10,2.1,0.67507,1.6881,2,2.0985,0,0.84627
1,1,11,11,2.1,0.55031,1.9967,3,1.3905,1,1.191
1,1,12,12,2.1,0.71266,1.8495,3,0.68634,1,0.74907
1,1,13,13,2.1,0.74249,1.9243,2,1.4588,1,0.94501
1,1,14,14,2.1,5.5425,1.6789,1,2.3265,0,3.001
1,1,15,15,2.1,0.82983,1.9629,3,2.3192,1,1.0477
1,1,16,16,2.1,0.70169,2.03,3,1.7448,0,1.0583
1,1,17,17,2.1,0.61476,1.9824,3,1.5626,1,0.64325
1,1,18,18,2.1,3.5118,1.8406,1,3.3259,1,1.7601
1,1,19,19,2.1,0.77083,1.7286,1,0.97932,0,0.80922
1,1,20,20,2.1,3.9914,2.1283,1,0.78745,0,0.76187
1,1,21,21,2.1,0.53588,1.48,3,1.123,0,1.36
1,1,22,22,2.1,0.56597,1.6801,2,1.269,0,1.2079
1,1,23,23,2.1,0.47855,1.4791,2,1.3032,0,1.0053
1,1,24,24,2.1,0.65682,2.0584,3,1.4814,1,0.83225
1,1,25,25,2.1,0.69346,1.7356,3,1.1832,1,0.82311
1,1,26,26,2.1,0.4055,1.8995,1,1.272,0,0.68196
1,1,27,27,2.1,0.62318,1.2708,1,2.0532,0,1.0381
1,1,28,28,2.1,1.0248,2.1262,3,1.0776,0,1.5325
1,1,29,29,2.1,0.65487,1.5731,2,0.6606,0,0.46336
1,1,30,30,2.1,0.67655,2.1067,3,1.4351,0,1.5667
1,1,31,31,2.1,0.83211,2.5101,2,1.7636,0,0.68972
1,1,32,32,2.1,0.72175,1.7626,2,3.9912,0,1.2048
1,1,33,33,2.1,0.9095,1.6323,1,1.4742,0,0.91925
1,1,34,34,2.1,0.24105,1.6904,1,1.2563,0,0.53646
1,1,35,35,2.1,0.62859,2.0746,3,1.3367,1,0.5324
1,1,36,36,2.1,0.60915,2.0487,3,1.5741,1,0.40223
1,1,37,37,2.1,0.44315,1.8132,2,0.94249,0,0.87715
1,1,38,38,2.1,0.67546,1.5773,2,1.7546,0,0.50104
1,1,39,39,2.1,0.50376,1.8191,3,1.5899,1,0.63779
1,1,40,40,2.1,0.35616,2.0146,2,1.0877,1,2.2134
1,1,41,41,2.1,0.46934,2.0768,2,1.3941,1,1.1362
1,1,42,42,2.1,0.76222,1.7936,2,1.4848,0,0.61041
1,1,43,43,2.1,1.0623,1.8158,2,1.2371,0,1.2775
1,1,44,44,2.1,0.46209,2.0868,3,1.3419,0,1.2705
1,1,45,45,2.1,0.60707,1.9233,2,3.2473,0,2.0691
1,1,46,46,2.1,0.37657,2.3203,2,2.0396,0,1.963
1,1,47,47,2.1,0.50791,1.8345,3,0.83362,0,1.0048
1,1,48,48,2.1,0.32607,2.1621,1,1.1809,0,1.6876
1,1,49,49,2.1,0.88085,2.1443,1,0.39326,1,1.0045
1,1,50,50,2.1,0.26724,1.9186,1,1.0931,0,1.0141
1,1,51,51,2.1,1.1436,2.3862,2,1.1155,1,0.4181
1,1,52,52,2.1,0.80988,1.9135,1,2.45,0,1.4607
1,1,53,53,2.1,0.48548,2.4367,2,1.1158,1,0.53086
1,1,54,54,2.1,0.40626,1.8443,3,1.2826,1,0.41693
1,1,55,55,2.1,0.54864,2.0217,3,0.96051,0,0.83448
1,1,56,56,2.1,0.56448,1.8969,2,1.5617,0,0.93468
1,1,57,57,2.1,0.40189,2.2669,2,1.8448,1,1.7106
1,1,58,58,2.1,0.53919,2.677,2,5.9253,0,0.76769
1,1,59,59,2.1,0.32978,2.7741,1,1.4446,1,0.90165
1,1,60,60,2.1,0.51081,1.8263,1,1.2918,1,0.89937
1,2,1,61,4.2,3.2092,4.0456,1,1.4901,1,0.74009
1,2,2,62,4.2,0.78533,4.3469,3,1.6949,0,1.0907
1,2,3,63,4.2,0.7601,4.5008,1,1.0804,1,0.4259
1,2,4,64,4.2,0.57776,3.7831,2,1.237,0,1.075
1,2,5,65,4.2,0.686,4.2819,2,1.1555,1,1.6964
1,2,6,66,4.2,0.92946,3.4131,2,1.1898,0,1.4038
1,2,7,67,4.2,1.1986,4.4835,1,1.2589,1,1.4949
1,2,8,68,4.2,2.7303,2.3056,2,1.1637,0,0.50594
1,2,9,69,4.2,0.49347,3.5819,1,1.2251,1,0.72968
1,2,10,70,4.2,0.94843,3.3483,2,1.7099,1,0.49326
1,2,11,71,4.2,0.52041,3.9015,2,1.3332,1,0.30628
1,2,12,72,4.2,1.4226,3.2369,2,1.844,1,0.59598
1,2,13,73,4.2,0.58999,3.8358,1,1.1108,1,0.36183
1,2,14,74,4.2,0.43783,4.7223,2,1.4265,1,0.52771
1,2,15,75,4.2,0.80556,2.8887,1,1.2061,0,0.36929
1,2,16,76,4.2,0.61434,4.7938,2,1.025,1,0.95641
1,2,17,77,4.2,0.2796,4.2696,2,0.56402,1,0.62023
1,2,18,78,4.2,0.35166,3.9215,2,0.77546,0,1.7101
1,2,19,79,4.2,0.63588,3.3926,2,1.434,0,1.0153
1,2,20,80,4.2,0.75229,4.2034,1,0.83989,0,1.5511
1,2,21,81,4.2,0.58077,3.6127,3,1.3807,0,1.7986
1,2,22,82,4.2,0.3629,3.7517,1,1.0992,1,1.082
1,2,23,83,4.2,0.57838,3.7613,2,1.1319,0,1.6199
1,2,24,84,4.2,1.0041,3.5391,1,1.5653,1,0.32566
1,2,25,85,4.2,0.6034,3.3492,1,1.7875,0,0.57961
1,2,26,86,4.2,0.51014,3.8735,2,1.2611,1,1.8361
1,2,27,87,4.2,0.40432,3.4287,2,0.94215,0,0.42691
1,2,28,88,4.2,0.55462,3.1814,2,2.3059,1,1.4452
1,2,29,89,4.2,1.3897,3.5183,1,1.3026,1,1.5002
1,2,30,90,4.2,0.69417,4.8413,2,0.92155,1,0.73941
1,2,31,91,4.2,1.1784,4.0181,1,1.8558,0,0.42474
1,2,32,92,4.2,0.77771,3.3889,2,1.1945,0,0.4973
1,2,33,93,4.2,0.46083,2.9403,3,0.61143,0,2.1477
1,2,34,94,4.2,0.48708,3.7102,2,1.3768,0,1.5865
1,2,35,95,4.2,0.67253,4.1389,1,1.0228,1,0.70649
1,2,36,96,4.2,0.58292,3.7269,2,2.1201,1,1.4884
1,2,37,97,4.2,0.41811,3.8978,2,2.1468,0,2.8582
1,2,38,98,4.2,0.52199,4.2183,3,2.71,1,1.0208
1,2,39,99,4.2,1.3322,3.5054,2,1.0465,0,1.3718
1,2,40,100,4.2,0.88296,2.6469,2,2.8229,0,0.47626
1,2,41,101,4.2,0.46794,3.5163,2,1.2819,0,5.334
1,2,42,102,4.2,0.42952,4.2806,1,1.1889,1,0.64927
1,2,43,103,4.2,0.41702,3.8291,2,1.4249,0,1.0335
1,2,44,104,4.2,0.71292,4.5056,1,1.3583,1,0.50588
1,2,45,105,4.2,0.64569,4.4142,2,0.4467,1,1.43
1,2,46,106,4.2,0.34381,3.8638,2,1.5709,1,1.1301
1,2,47,107,4.2,0.48094,3.4106,2,0.43428,0,1.5127
1,2,48,108,4.2,0.45183,4.2819,2,1.5269,1,3.4772
1,2,49,109,4.2,0.531,4.0518,2,1.013,1,1.1253
1,2,50,110,4.2,0.59419,3.5251,2,1.0048,0,0.73964
1,2,51,111,4.2,0.37007,3.9683,2,1.227,0,0.83334
1,2,52,112,4.2,0.57596,4.7721,3,2.1462,0,0.99122
1,2,53,113,4.2,0.83195,5.0759,1,0.73138,1,0.60853
1,2,54,114,4.2,0.54193,4.3325,2,2.439,1,1.5231
1,2,55,115,4.2,0.83575,4.0893,1,1.0678,1,0.98341
1,2,56,116,4.2,0.51147,3.6494,2,1.9567,1,1.323
1,2,57,117,4.2,0.49338,4.4688,1,1.0568,1,1.63
1,2,58,118,4.2,0.42846,4.2798,3,1.502,0,1.9609
1,2,59,119,4.2,0.78869,4.1478,1,0.96411,1,0.68729
1,2,60,120,4.2,0.41035,3.8858,2,1.2674,1,0.52093
1,3,1,121,4.2,1.3403,4.6322,2,1.1111,0,0.79989
1,3,2,122,2.1,0.65488,1.8641,2,1.359,0,0.8769
1,3,3,123,2.1,0.87618,2.8594,3,1.232,1,1.4306
1,3,4,124,2.1,0.49707,2.2901,1,1.3897,0,0.93035
1,3,5,125,4.2,0.48811,3.666,2,1.1025,0,1.0387
1,3,6,126,2.1,0.50048,2.7943,3,2.4272,1,1.0219
1,3,7,127,4.2,0.53844,4.5086,3,4.8839,0,2.1794
1,3,8,128,4.2,0.36698,3.6839,2,1.0006,1,0.61187
1,3,9,129,4.2,0.55513,4.3849,1,1.4058,0,0.80735
1,3,10,130,2.1,0.6082,2.611,2,1.2795,0,0.73556
1,3,11,131,4.2,0.51505,3.3667,3,0.55054,0,0.85029
1,3,12,132,4.2,0.94245,4.4449,2,1.6577,1,0.72876
1,3,13,133,4.2,0.4538,4.2272,1,1.3307,1,0.59608
1,3,14,134,2.1,0.47412,2.7346,3,1.2136,1,1.5182
1,3,15,135,2.1,0.6515,2.0416,3,0.82932,1,2.5525
1,3,16,136,4.2,0.39544,3.4366,2,1.1024,0,1.7934
1,3,17,137,4.2,0.37946,3.5732,2,1.4196,1,1.6459
1,3,18,138,4.2,0.7606,4.4705,2,1.0809,0,0.79857
1,3,19,139,2.1,0.48314,2.456,3,1.4448,0,1.4088
1,3,20,140,4.2,0.45093,3.572,2,1.8346,0,1.5088
1,3,21,141,2.1,0.39202,2.6351,2,1.4499,0,0.75599
1,3,22,142,4.2,0.53661,3.9341,1,1.463,1,0.9817
1,3,23,143,2.1,1.0422,2.6789,2,1.6747,0,0.59293
1,3,24,144,2.1,0.56669,2.6375,3,1.5093,0,0.7195
1,3,25,145,4.2,0.35309,3.2705,2,1.1365,0,2.1201
1,3,26,146,2.1,0.71571,1.9879,3,0.84819,0,1.487
1,3,27,147,2.1,0.80306,2.448,2,1.7733,0,0.88503
1,3,28,148,2.1,0.76887,2.2342,2,0.79863,0,1.025
1,3,29,149,4.2,0.68741,4.2717,2,1.1337,0,0.70061
1,3,30,150,2.1,0.54008,2.3176,3,1.1368,1,1.4009
1,3,31,151,2.1,0.608,2.4872,2,1.1834,0,1.1165
1,3,32,152,2.1,0.52713,2.0733,2,1.3895,0,0.64988
1,3,33,153,2.1,0.4145,2.1004,3,0.82152,0,0.7168
1,3,34,154,2.1,0.52947,2.267,2,1.6538,0,1.028
1,3,35,155,4.2,0.41803,3.4026,3,1.405,0,0.97472
1,3,36,156,2.1,0.54629,2.3684,2,1.3165,0,0.82341
1,3,37,157,2.1,0.46363,1.9642,1,1.505,0,0.85048
1,3,38,158,4.2,0.50777,3.9613,2,1.1981,1,0.58472
1,3,39,159,2.1,0.46787,2.6599,2,0.88613,0,1.4228
1,3,40,160,4.2,0.4727,4.3077,2,0.83384,1,0.74546
1,3,41,161,4.2,0.5503,4.3359,2,2.5825,0,1.0442
1,3,42,162,2.1,0.56888,2.1765,2,1.1797,1,2.1028
1,3,43,163,4.2,0.73133,4.1297,2,1.5599,1,0.70773
1,3,44,164,4.2,0.44163,3.4552,1,1.3625,1,1.837
1,3,45,165,4.2,0.39057,3.5342,2,1.6993,1,1.4972
1,3,46,166,4.2,0.39215,3.9503,2,1.6634,1,0.71935
1,3,47,167,4.2,0.38136,3.1196,2,1.2585,0,1.5075
1,3,48,168,2.1,0.59482,1.8725,2,1.5583,0,0.66218
1,3,49,169,2.1,0.5343,2.8855,2,1.3499,0,1.306
1,3,50,170,2.1,0.49947,2.4623,2,1.1693,0,0.93773
1,3,51,171,2.1,0.92647,3.0173,2,0.81858,1,0.60131
1,3,52,172,2.1,0.46036,2.5802,2,0.88805,1,1.0436
1,3,53,173,4.2,0.43016,3.5046,2,1.2597,1,0.732
1,3,54,174,4.2,0.49138,4.4557,2,1.3938,1,0.60788
1,3,55,175,2.1,0.60975,3.4446,2,1.2115,0,0.83456
1,3,56,176,4.2,0.43337,4.0432,2,1.2404,1,0.91028
1,3,57,177,2.1,0.63615,2.6292,2,1.5404,0,0.59261
1,3,58,178,4.2,0.36578,3.2557,1,1.6209,1,0.66949
1,3,59,179,4.2,0.3674,3.301,2,1.3698,1,1.5243
1,3,60,180,4.2,0.36144,4.7758,2,0.96795,1,1.3987
1,3,61,181,4.2,0.42415,3.5668,2,1.3394,1,1.5053
1,3,62,182,2.1,0.48123,2.4255,2,0.94168,1,0.80945
1,3,63,183,4.2,0.34107,4.343,1,0.94789,1,0.80006
1,3,64,184,4.2,0.42152,3.7899,2,1.6326,0,1.5975
1,3,65,185,2.1,1.0065,2.4068,2,1.0286,0,0.54315
1,3,66,186,2.1,0.43991,1.9796,2,1.4699,1,1.0173
1,3,67,187,2.1,0.65558,2.2712,2,0.91472,1,0.55105
1,3,68,188,4.2,0.41805,3.4945,2,1.312,1,0.63193
1,3,69,189,2.1,0.55975,2.4204,2,1.0603,1,0.58729
1,3,70,190,4.2,0.47396,2.2958,2,1.0458,0,0.57227
1,3,71,191,2.1,0.49585,2.6037,2,1.0821,1,0.77758
1,3,72,192,2.1,0.64733,1.7947,2,0.88899,1,0.75258
1,3,73,193,2.1,0.46245,2.1659,2,0.78612,0,0.73661
1,3,74,194,4.2,0.37039,3.4507,2,1.453,1,0.98399
1,3,75,195,2.1,0.87357,2.1826,2,0.69603,1,0.79799
1,3,76,196,4.2,0.44055,4.3098,1,1.4201,1,0.73585
1,3,77,197,4.2,0.39557,3.8194,2,1.3699,0,0.7022
1,3,78,198,4.2,0.42677,4.1661,2,1.426,1,1.3273
1,3,79,199,4.2,0.38364,3.4364,2,1.1007,1,1.2069
1,3,80,200,2.1,0.54928,2.4835,3,1.0337,0,1.319
1,3,81,201,2.1,0.40333,2.5391,2,0.80275,1,1.2999
1,3,82,202,4.2,0.34121,3.4434,2,1.1876,0,0.59032
1,3,83,203,4.2,0.50094,2.6608,1,0.90919,0,0.65311
1,3,84,204,4.2,0.63719,3.5174,2,2.2747,0,1.0305
1,3,85,205,4.2,0.3675,3.695,1,1.829,1,1.3062
1,3,86,206,4.2,0.37897,4.0666,2,0.83218,0,2.0827
1,3,87,207,2.1,0.48531,2.1339,2,1.1127,0,1.022
1,3,88,208,2.1,0.51243,3.1999,2,2.3145,1,0.71003
1,3,89,209,2.1,0.58224,2.5448,3,1.1577,0,1.135
1,3,90,210,2.1,0.64467,2.4682,2,0.95525,0,0.56051
2,1,1,1,2.1,1.2567,1.686,2,2.0835,0,1.9808
2,1,2,2,2.1,0.68178,1.4699,2,4.3693,1,2.1378
2,1,3,3,2.1,0.84389,1.6679,2,2.904,0,1.5308
2,1,4,4,2.1,0.78803,1.6504,3,3.0838,1,2.8943
2,1,5,5,2.1,1.5907,1.8411,3,3.7441,0,1.9396
2,1,6,6,2.1,8.7025,6.114,1,3.05,1,2.2866
2,1,7,7,2.1,1.3767,1.8239,3,2.403,0,2.0051
2,1,8,8,2.1,0.89549,1.702,2,1.8587,1,0.30178
2,1,9,9,2.1,0.52414,1.4069,2,2.247,1,0.30412
2,1,10,10,2.1,0.5897,1.3145,1,2.0818,0,2.3993
2,1,11,11,2.1,0.47013,2.2698,3,1.3289,1,0.77908
2,1,12,12,2.1,1.4672,1.8468,3,1.7979,1,0.79109
2,1,13,13,2.1,0.54777,2.088,2,3.7398,0,1.4404
2,1,14,14,2.1,0.5721,1.9443,2,2.1145,1,1.7576
2,1,15,15,2.1,0.81389,2.2891,2,2.3555,0,0.5567
2,1,16,16,2.1,0.81718,2.399,2,2.1919,0,1.3248
2,1,17,17,2.1,0.47064,1.9765,3,1.8772,1,1.3155
2,1,18,18,2.1,2.7704,1.9864,3,1.5562,0,0.91872
2,1,19,19,2.1,0.60402,1.9551,3,2.0185,0,1.0374
2,1,20,20,2.1,0.47061,2.2586,2,2.0671,1,2.0804
2,1,21,21,2.1,0.55472,1.8766,2,1.1461,0,1.0005
2,1,22,22,2.1,0.70286,1.9528,2,1.6449,1,1.7676
2,1,23,23,2.1,0.47353,1.6309,2,1.3381,0,0.73737
2,1,24,24,2.1,0.56503,1.7972,2,3.3504,1,0.46324
2,1,25,25,2.1,0.57623,1.8129,2,0.70632,0,0.97668
2,1,26,26,2.1,0.38037,1.8795,2,1.3345,1,0.47658
2,1,27,27,2.1,0.4862,2.2237,2,0.8382,1,0.4031
2,1,28,28,2.1,0.50544,1.6738,3,0.97512,1,0.83269
2,1,29,29,2.1,0.61138,1.7146,3,1.7527,1,0.43075
2,1,30,30,2.1,0.43602,1.8972,3,1.6065,0,0.97402
2,1,31,31,2.1,0.65522,2.2033,3,1.7677,0,1.9257
2,1,32,32,2.1,0.55779,2.4083,2,1.2224,1,0.68211
2,1,33,33,2.1,0.60481,1.9776,2,0.74165,0,0.59745
2,1,34,34,2.1,0.45128,1.7486,3,1.2939,1,0.60759
2,1,35,35,2.1,0.56507,2.3376,3,0.83519,1,1.2314
2,1,36,36,2.1,0.40613,1.5857,2,0.66788,0,2.052
2,1,37,37,2.1,0.41465,1.9877,3,0.85982,0,1.6886
2,1,38,38,2.1,0.83,1.6478,3,1.9443,0,0.22474
2,1,39,39,2.1,0.53033,1.7046,3,3.3917,0,3.5254
2,1,40,40,2.1,0.44804,2.6638,1,2.3293,1,0.91114
2,1,41,41,2.1,0.54865,1.9326,2,2.8899,0,1.5564
2,1,42,42,2.1,0.4937,2.1523,2,1.3746,0,0.8081
2,1,43,43,2.1,0.52929,2.3452,2,1.0346,0,1.5351
2,1,44,44,2.1,0.48889,1.7542,2,1.0285,0,0.41908
2,1,45,45,2.1,0.43181,1.7408,2,0.64988,0,0.50928
2,1,46,46,2.1,0.38574,1.8288,2,0.61438,0,0.46407
2,1,47,47,2.1,0.47089,1.663,3,1.4595,0,1.1921
2,1,48,48,2.1,0.55467,2.4956,2,1.8895,1,0.35536
2,1,49,49,2.1,0.59411,2.6239,2,1.9631,0,0.74493
2,1,50,50,2.1,0.75218,2.0533,2,0.70143,0,2.0069
2,1,51,51,2.1,0.69009,2.0801,2,0.91288,1,0.81011
2,1,52,52,2.1,0.55966,1.9375,2,0.89242,0,0.65189
2,1,53,53,2.1,0.51747,2.1531,3,1.6568,0,1.2686
2,1,54,54,2.1,0.48965,2.3504,2,1.4506,0,0.53167
2,1,55,55,2.1,0.53722,2.3137,3,1.3065,0,1.4263
2,1,56,56,2.1,0.43362,2.0181,2,1.0141,1,0.64134
2,1,57,57,2.1,0.46399,1.7397,2,0.94002,0,0.291
2,1,58,58,2.1,1.2188,2.3119,2,1.1009,0,1.2632
2,1,59,59,2.1,0.49444,1.8596,3,0.56102,0,0.84357
2,1,60,60,2.1,0.53048,2.235,2,1.0351,0,0.62403
2,2,1,61,4.2,3.2883,4.1695,2,2.7349,1,0.47249
2,2,2,62,4.2,1.0615,3.3107,2,2.0539,1,0.17164
2,2,3,63,4.2,1.0265,3.9392,2,1.913,1,0.55204
2,2,4,64,4.2,0.65934,4.3557,2,1.2033,1,0.21824
2,2,5,65,4.2,2.1651,4.5152,2,1.6052,1,2.3012
2,2,6,66,4.2,0.81978,4.1475,2,1.054,1,0.6814
2,2,7,67,4.2,0.78184,5.0656,2,1.9742,1,4.4633
2,2,8,68,4.2,0.80456,4.7881,2,1.7739,1,1.719
2,2,9,69,4.2,1.228,4.3327,2,1.0002,0,0.42966
2,2,10,70,4.2,0.67971,4.9788,1,2.0612,1,1.6197
2,2,11,71,4.2,0.97495,4.1749,2,3.8148,0,1.3815
2,2,12,72,4.2,1.1306,4.8419,2,1.5641,0,2.6091
2,2,13,73,4.2,0.93387,4.7632,2,1.467,0,0.98099
2,2,14,74,4.2,0.63478,4.8651,2,1.4013,0,1.826
2,2,15,75,4.2,0.53591,4.8561,3,1.4037,1,2.2887
2,2,16,76,4.2,1.1195,4.1225,2,1.4392,0,0.27792
2,2,17,77,4.2,1.4591,4.4203,2,0.82875,0,0.84244
2,2,18,78,4.2,1.0109,4.4778,2,1.175,0,2.1821
2,2,19,79,4.2,0.5932,4.389,2,1.654,0,2.288
2,2,20,80,4.2,1.063,4.3248,2,1.0245,0,0.349
2,2,21,81,4.2,1.0588,4.8599,2,0.93441,1,0.4437
2,2,22,82,4.2,0.56273,4.1119,2,0.9948,0,1.5222
2,2,23,83,4.2,1.5903,4.7103,2,1.2511,1,0.3519
2,2,24,84,4.2,0.62581,4.7031,2,1.29,0,1.6059
2,2,25,85,4.2,1.2243,4.5767,2,0.89056,1,0.2693
2,2,26,86,4.2,0.89524,4.2457,2,0.70362,0,1.2558
2,2,27,87,4.2,1.0286,4.3343,3,1.1241,0,0.76322
2,2,28,88,4.2,1.5368,4.5948,1,3.5364,0,0.28985
2,2,29,89,4.2,1.1632,4.9992,2,1.6602,1,0.64189
2,2,30,90,4.2,1.4354,4.9649,2,1.8051,0,1.3558
2,2,31,91,4.2,2.0366,4.2772,3,2.3546,0,1.9607
2,2,32,92,4.2,0.77515,4.7379,2,0.89602,0,0.97753
2,2,33,93,4.2,1.1943,4.8721,2,0.88652,0,1.9082
2,2,34,94,4.2,0.73857,4.1711,2,0.6398,0,1.4055
2,2,35,95,4.2,0.82088,4.7668,2,0.77273,1,2.3501
2,2,36,96,4.2,1.007,4.2952,2,0.79194,0,0.46277
2,2,37,97,4.2,2.2007,4.3025,2,0.73241,0,0.31849
2,2,38,98,4.2,0.63513,4.5955,2,0.62322,1,0.865
2,2,39,99,4.2,1.1481,4.6177,2,0.70809,1,2.4074
2,2,40,100,4.2,0.56056,5.2238,2,1.393,1,0.39327
2,2,41,101,4.2,0.51554,4.4018,3,1.4852,0,5.6058
2,2,42,102,4.2,1.4501,4.377,3,2.1415,0,1.0539
2,2,43,103,4.2,0.60091,4.5158,2,1.9993,1,0.39254
2,2,44,104,4.2,1.4526,4.8423,1,2.3396,0,1.749
2,2,45,105,4.2,0.83644,5.0792,1,2.0398,1,1.6833
2,2,46,106,4.2,1.0398,5.2517,3,2.2136,1,1.8582
2,2,47,107,4.2,1.3381,5.1484,2,2.3119,1,0.50587
2,2,48,108,4.2,1.2088,5.0851,2,1.6295,0,2.9949
2,2,49,109,4.2,1.1515,4.4473,2,1.3797,0,0.38465
2,2,50,110,4.2,0.8858,4.8894,2,1.3581,0,1.2027
2,2,51,111,4.2,0.63051,4.787,2,1.7558,0,2.8642
2,2,52,112,4.2,1.19,4.6544,3,2.3305,0,3.5574
2,2,53,113,4.2,0.76799,4.7182,2,1.7992,0,0.6522
2,2,54,114,4.2,0.70203,5.3727,3,2.1777,0,2.1479
2,2,55,115,4.2,1.2342,4.1321,2,2.4392,1,1.1298
2,2,56,116,4.2,0.96876,5.0001,3,1.1893,1,2.2462
2,2,57,117,4.2,1.0309,4.9555,3,1.7065,1,0.39027
2,2,58,118,4.2,0.7641,4.0798,3,1.0186,1,1.9967
2,2,59,119,4.2,0.74376,5.0086,3,1.531,1,0.89818
2,2,60,120,4.2,2.3335,4.9093,2,2.8135,1,1.8896
2,3,1,121,2.1,0.90934,2.4424,2,2.3365,1,0.55366
2,3,2,122,4.2,0.91368,4.4046,3,2.0228,1,0.81628
2,3,3,123,2.1,1.1613,2.3409,2,1.5827,0,0.95717
2,3,4,124,2.1,0.74734,2.0307,3,1.6055,0,1.9315
2,3,5,125,2.1,0.9043,2.6726,2,3.1211,0,7.0655
2,3,6,126,2.1,0.64311,2.5457,2,2.6085,0,3.7425
2,3,7,127,2.1,0.92107,2.6282,2,2.2597,1,3.654
2,3,8,128,2.1,2.1043,2.9965,1,1.8892,1,4.7073
2,3,9,129,2.1,1.526,3.3518,2,2.676,0,4.2821
2,3,10,130,4.2,1.043,4.2652,2,5.5998,0,1.6818
2,3,11,131,2.1,1.4749,2.3386,2,1.1284,0,1.5332
2,3,12,132,4.2,0.93206,5.8857,2,4.0921,1,3.7592
2,3,13,133,4.2,1.9307,4.2548,2,1.5398,1,1.0649
2,3,14,134,2.1,0.79103,2.0935,2,1.6975,0,2.3486
2,3,15,135,4.2,0.52835,3.8192,3,1.5937,0,1.216
2,3,16,136,4.2,1.1025,3.4035,3,1.5956,0,1.7459
2,3,17,137,4.2,0.68301,3.6823,3,1.0675,0,1.5108
2,3,18,138,4.2,0.64522,3.875,3,3.0399,0,1.1627
2,3,19,139,4.2,1.3442,4.1651,2,1.651,1,1.4408
2,3,20,140,2.1,0.81107,1.9155,3,1.7427,0,1.1361
2,3,21,141,2.1,0.59578,2.2543,3,1.2527,0,1.3882
2,3,22,142,4.2,0.53027,4.6978,2,1.4008,0,1.0713
2,3,23,143,2.1,0.60151,2.2224,2,1.3317,0,1.1597
2,3,24,144,2.1,0.65105,2.0298,3,3.8215,0,0.91046
2,3,25,145,4.2,0.59279,3.6908,3,4.3793,0,0.5451
2,3,26,146,4.2,0.80661,4.3652,1,2.8305,1,4.3995
2,3,27,147,2.1,0.69162,1.8132,3,1.6954,0,1.0357
2,3,28,148,2.1,0.51839,1.7956,2,1.2719,0,1.1885
2,3,29,149,4.2,0.63307,4.0645,3,2.168,0,0.97979
2,3,30,150,2.1,0.64004,2.3396,2,2.3349,0,2.0924
2,3,31,151,4.2,1.3463,4.2903,2,1.3951,0,0.57588
2,3,32,152,4.2,0.5093,4.0841,3,0.97975,0,0.48329
2,3,33,153,4.2,0.77526,4.1076,2,1.1252,0,0.60768
2,3,34,154,4.2,0.13929,5.2198,3,1.4053,0,1.0193
2,3,35,155,2.1,0.54658,1.9193,3,3.2426,1,3.2677
2,3,36,156,4.2,0.69163,4.3661,3,2.6969,0,1.5872
2,3,37,157,4.2,0.54147,4.187,3,3.6305,0,1.9773
2,3,38,158,2.1,0.60446,1.8886,2,1.67,1,0.94828
2,3,39,159,2.1,0.4645,2.2681,2,1.1039,1,0.62391
2,3,40,160,4.2,0.55561,4.262,2,1.4906,1,1.3579
2,3,41,161,2.1,0.68184,2.0727,2,1.1081,0,1.2258
2,3,42,162,4.2,0.51485,4.0971,2,1.2342,0,3.7151
2,3,43,163,2.1,1.2443,2.139,2,6.0248,0,1.947
2,3,44,164,4.2,0.74731,3.8542,3,1.3039,0,0.59124
2,3,45,165,4.2,0.62208,4.1266,2,1.151,0,1.3636
2,3,46,166,2.1,0.64703,1.9406,3,1.5606,0,1.3277
2,3,47,167,2.1,0.57712,2.1968,3,4.2703,1,2.2072
2,3,48,168,2.1,0.53462,2.1095,3,1.6288,0,1.4534
2,3,49,169,4.2,0.62852,4.0545,2,1.2812,1,0.61761
2,3,50,170,4.2,0.60174,4.1899,2,1.4402,0,1.3812
2,3,51,171,2.1,0.59772,1.8455,2,1.1606,0,0.38459
2,3,52,172,2.1,0.49006,1.9348,2,1.16,0,0.37238
2,3,53,173,2.1,0.46934,1.8063,3,2.4927,0,3.0461
2,3,54,174,2.1,0.4682,2.0192,2,1.5103,0,1.6433
2,3,55,175,2.1,0.74393,2.2868,2,1.5108,1,2.4067
2,3,56,176,4.2,0.62416,4.0606,2,1.3998,1,0.75568
2,3,57,177,4.2,0.78009,4.2019,2,1.6876,0,1.7271
2,3,58,178,4.2,0.65927,4.354,2,1.0784,1,1.9835
2,3,59,179,2.1,0.63173,1.9485,3,1.0904,0,0.92056
2,3,60,180,2.1,0.53755,2.2928,2,1.3138,1,0.66245
2,3,61,181,2.1,0.78316,2.1863,2,1.3062,0,1.9556
2,3,62,182,2.1,0.56538,1.9653,2,1.3492,1,3.0612
2,3,63,183,4.2,0.52405,3.9941,2,1.2533,0,1.6255
2,3,64,184,2.1,0.67302,1.5399,2,2.5281,0,3.599
2,3,65,185,4.2,0.48281,3.3567,2,2.8835,0,1.892
2,3,66,186,4.2,1.1602,4.2989,2,2.7316,1,2.3081
2,3,67,187,2.1,1.3973,2.2425,3,3.8453,0,0.45624
2,3,68,188,4.2,0.81047,3.783,2,3.3407,0,2.1741
2,3,69,189,4.2,0.5846,4.2471,3,3.7084,0,0.89116
2,3,70,190,4.2,0.54036,3.465,2,1.5968,0,1.7698
2,3,71,191,4.2,0.65064,3.5937,2,2.0306,0,1.9937
2,3,72,192,4.2,0.5943,3.918,3,1.6439,0,1.8568
2,3,73,193,4.2,0.80662,4.2741,2,2.7795,1,1.0229
2,3,74,194,2.1,0.8264,1.9817,2,4.0938,0,1.5896
2,3,75,195,4.2,0.65722,3.6786,2,2.4145,0,0.5983
2,3,76,196,2.1,0.56232,1.9402,2,1.446,0,0.58905
2,3,77,197,2.1,0.4618,1.9286,3,3.0611,0,0.69399
2,3,78,198,4.2,0.45809,3.6686,2,1.7978,0,1.5338
2,3,79,199,2.1,0.60515,2.2259,2,1.1672,0,0.29572
2,3,80,200,2.1,0.43909,2.4166,2,1.7987,0,0.47165
2,3,81,201,2.1,0.5753,2.016,3,1.0676,0,0.44249
2,3,82,202,2.1,2.2015,1.9626,3,3.4213,0,1.7002
2,3,83,203,4.2,1.0773,4.2764,2,2.0057,0,1.4566
2,3,84,204,4.2,0.82985,4.4601,2,1.2506,0,1.3421
2,3,85,205,4.2,0.58033,4.4731,2,1.4046,1,2.2336
2,3,86,206,2.1,0.79947,1.6795,3,1.2679,1,1.1963
2,3,87,207,4.2,0.65048,4.291,2,1.3734,0,1.2008
2,3,88,208,4.2,0.66457,4.052,2,5.8344,1,1.5024
2,3,89,209,2.1,0.56072,1.939,2,3.0992,0,1.8678
2,3,90,210,4.2,0.98779,3.4485,2,1.6871,0,1.2763
3,1,1,1,2.1,1.0672,1.5108,2,1.5654,0,0.58385
3,1,2,2,2.1,1.0649,2.6164,3,3.102,0,1.405
3,1,3,3,2.1,0.87348,2.3153,3,1.8198,1,0.84817
3,1,4,4,2.1,1.9283,1.7213,2,1.6926,1,1.3041
3,1,5,5,2.1,1.0215,1.8641,2,2.4053,0,3.0193
3,1,6,6,2.1,1.3389,2.0992,1,2.7888,0,1.2967
3,1,7,7,2.1,0.78035,1.9518,1,2.5442,1,0.68531
3,1,8,8,2.1,0.66475,2.7687,2,2.1268,1,1.4262
3,1,9,9,2.1,0.88997,2.1137,2,2.0667,0,1.5633
3,1,10,10,2.1,1.6412,1.9992,2,3.7907,1,3.2876
3,1,11,11,2.1,1.3968,2.119,2,3.0953,1,1.269
3,1,12,12,2.1,1.7897,3.1457,1,1.6513,1,8.3734
3,1,13,13,2.1,0.93422,1.7928,3,2.1698,0,1.712
3,1,14,14,2.1,0.97716,1.1155,3,1.9595,0,1.2685
3,1,15,15,2.1,1.0385,2.0666,2,2.9246,1,2.7399
3,1,16,16,2.1,1.0013,2.0517,3,6.8192,1,3.2109
3,1,17,17,2.1,0.62185,2.3157,2,2.0558,0,1.8844
3,1,18,18,2.1,0.79799,2.6843,3,3.0816,0,0.85525
3,1,19,19,2.1,1.034,2.3092,2,2.0903,1,0.41034
3,1,20,20,2.1,0.65092,2.2444,3,2.721,1,1.2061
3,1,21,21,2.1,0.68413,2.2319,2,2.428,1,2.0682
3,1,22,22,2.1,1.0466,2.2774,1,1.5955,1,1.2732
3,1,23,23,2.1,0.64669,2.6054,3,2.8491,0,0.95883
3,1,24,24,2.1,0.62927,2.4798,1,1.8117,1,0.69855
3,1,25,25,2.1,0.734,4.0434,1,0.98268,1,0.62134
3,1,26,26,2.1,0.64528,2.3325,3,1.7651,1,0.4143
3,1,27,27,2.1,0.57183,2.5169,2,2.2713,0,1.6913
3,1,28,28,2.1,1.4282,1.3968,3,2.3269,0,1.6862
3,1,29,29,2.1,1.6551,2.9084,1,2.2777,0,0.49394
3,1,30,30,2.1,1.2787,2.3421,1,11.955,1,0.75203
3,1,31,31,2.1,6.7543,2.0429,1,1.6955,0,1.7239
3,1,32,32,2.1,0.37355,2.0481,3,1.7079,0,1.111
3,1,33,33,2.1,0.78454,2.2331,2,1.6069,1,0.49165
3,1,34,34,2.1,0.85049,2.3334,3,1.8767,0,2.1478
3,1,35,35,2.1,0.39273,1.8027,1,2.8157,1,1.004
3,1,36,36,2.1,0.94568,2.3674,2,3.8015,0,2.7355
3,1,37,37,2.1,0.73268,3.2767,2,2.1876,1,0.85901
3,1,38,38,2.1,0.84793,2.0763,3,2.2366,1,0.93633
3,1,39,39,2.1,0.76814,2.1198,3,1.6573,0,2.0886
3,1,40,40,2.1,0.53485,2.2893,3,2.8402,0,2.0972
3,1,41,41,2.1,0.63079,2.4262,3,2.8083,0,0.95095
3,1,42,42,2.1,0.71542,2.7935,1,2.268,1,0.96868
3,1,43,43,2.1,1.1259,4.0402,1,2.4862,1,1.1047
3,1,44,44,2.1,0.9469,2.965,2,1.8619,0,1.1032
3,1,45,45,2.1,1.6106,3.6457,1,1.8417,1,1.3027
3,1,46,46,2.1,0.7216,2.3265,2,2.2802,0,1.0694
3,1,47,47,2.1,1.6064,2.8535,1,2.2621,1,0.3932
3,1,48,48,2.1,0.90991,2.1954,2,1.8118,1,0.6409
3,1,49,49,2.1,0.77935,2.8285,2,2.0449,0,1.4857
3,1,50,50,2.1,0.91039,2.465,3,3.0239,0,1.2415
3,1,51,51,2.1,0.87991,2.8633,1,1.586,1,0.62221
3,1,52,52,2.1,1.7786,4.2323,1,1.8313,1,1.2014
3,1,53,53,2.1,0.95508,2.4381,2,1.6796,1,1.7798
3,1,54,54,2.1,2.3253,2.0316,1,3.1036,0,1.0794
3,1,55,55,2.1,0.67786,2.0519,2,1.6432,0,0.76548
3,1,56,56,2.1,0.97369,2.5627,2,1.8682,1,0.80002
3,1,57,57,2.1,0.85783,2.8802,3,1.9229,0,1.1765
3,1,58,58,2.1,1.9684,3.0952,2,1.5609,1,1.3732
3,1,59,59,2.1,0.74305,4.4345,1,1.9344,1,0.66526
3,1,60,60,2.1,1.4618,5.3107,1,1.9137,1,1.2176
3,2,1,61,4.2,0.66852,5.0793,3,1.8147,0,1.967
3,2,2,62,4.2,1.3429,4.6019,2,0.94347,0,1.4875
3,2,3,63,4.2,1.8486,4.6623,3,1.5334,0,0.90174
3,2,4,64,4.2,1.7652,5.0895,2,2.3255,0,3.0453
3,2,5,65,4.2,5.8057,4.9047,1,1.7787,1,0.92218
3,2,6,66,4.2,0.843,5.0519,2,2.0473,1,0.98126
3,2,7,67,4.2,0.86087,3.9177,1,2.0997,0,3.4303
3,2,8,68,4.2,2.6036,4.1085,1,12.04,1,0.97698
3,2,9,69,4.2,0.66233,3.9323,2,2.35,1,1.405
3,2,10,70,4.2,0.61607,3.6594,1,3.2334,0,0.51946
3,2,11,71,4.2,0.54142,4.2428,2,3.3556,0,1.5418
3,2,12,72,4.2,1.6097,5.5449,1,2.0707,0,1.4559
3,2,13,73,4.2,0.96021,5.9872,1,1.157,1,1.1335
3,2,14,74,4.2,1.33,6.6754,1,1.4294,1,0.48639
3,2,15,75,4.2,1.6735,4.4961,1,1.0505,1,0.82471
3,2,16,76,4.2,1.1142,5.1359,1,2.0335,1,1.294
3,2,17,77,4.2,2.6379,4.7505,1,0.98818,1,0.77266
3,2,18,78,4.2,0.7172,4.3575,2,1.6319,0,0.93322
3,2,19,79,4.2,0.69456,4.1441,3,1.4108,0,0.51831
3,2,20,80,4.2,0.80361,4.4842,2,4.3746,0,1.7791
3,2,21,81,4.2,0.67977,5.2475,1,1.1749,1,0.94417
3,2,22,82,4.2,2.322,6.2826,3,0.65529,0,0.70669
3,2,23,83,4.2,4.9846,5.0382,3,1.0761,0,0.5399
3,2,24,84,4.2,0.66553,4.8299,2,0.65707,0,0.73092
3,2,25,85,4.2,4.4276,3.9404,1,1.5984,0,0.57372
3,2,26,86,4.2,2.8775,6.5669,1,0.73459,1,1.0064
3,2,27,87,4.2,1.4654,4.8997,2,1.4823,0,0.96765
3,2,28,88,4.2,0.80138,5.3711,2,0.87728,0,0.82421
3,2,29,89,4.2,2.0404,5.1715,2,1.0787,1,1.0457
3,2,30,90,4.2,2.1946,3.5881,1,2.0142,0,0.54154
3,2,31,91,4.2,0.71269,4.7651,1,2.0983,1,0.60628
3,2,32,92,4.2,0.65558,4.8355,3,1.8786,0,0.93404
3,2,33,93,4.2,0.7813,4.4288,1,1.1974,0,0.93351
3,2,34,94,4.2,0.81166,5.1234,2,1.7513,0,1.3633
3,2,35,95,4.2,1.9208,4.3911,1,2.0374,1,1.5669
3,2,36,96,4.2,0.87122,5.3625,2,3.0175,1,1.8138
3,2,37,97,4.2,0.84033,4.9606,1,3.3884,0,0.70964
3,2,38,98,4.2,5.0007,4.9139,2,2.0065,0,1.177
3,2,39,99,4.2,0.93386,4.3239,2,1.6423,0,1.506
3,2,40,100,4.2,2.6498,4.682,1,2.1784,1,1.5865
3,2,41,101,4.2,1.0531,5.283,2,1.7955,1,0.56296
3,2,42,102,4.2,1.9498,5.676,1,2.6978,1,0.48304
3,2,43,103,4.2,1.925,5.7792,3,0.98026,0,1.1701
3,2,44,104,4.2,3.0078,3.7851,1,0.6606,0,0.25024
3,2,45,105,4.2,1.4016,6.0678,1,1.6594,1,0.80879
3,2,46,106,4.2,2.3588,9.211,1,1.4908,1,1.0213
3,2,47,107,4.2,0.48192,6.0109,3,1.7427,0,1.3042
3,2,48,108,4.2,0.71573,4.1762,2,1.8927,1,0.40329
3,2,49,109,4.2,0.89015,5.8255,1,2.7655,1,1.4858
3,2,50,110,4.2,0.86803,5.0889,1,1.9594,1,0.797
3,2,51,111,4.2,0.43271,4.0197,3,1.5832,0,0.8668
3,2,52,112,4.2,2.7491,5.0745,2,0.80888,1,0.94644
3,2,53,113,4.2,2.7908,3.0997,3,3.8317,1,1.1687
3,2,54,114,4.2,1.1567,5.3308,1,1.4999,1,0.71098
3,2,55,115,4.2,0.68896,4.7342,2,1.6627,0,1.7569
3,2,56,116,4.2,2.0998,5.5512,2,1.5145,0,2.0916
3,2,57,117,4.2,2.1768,5.7579,3,2.618,1,1.3615
3,2,58,118,4.2,1.2675,5.2901,1,2.9104,0,0.75015
3,2,59,119,4.2,2.2805,6.1331,1,2.0283,0,1.361
3,2,60,120,4.2,1.6798,5.0656,3,1.0634,1,3.4304
3,3,1,121,2.1,0.67268,2.9246,3,1.4892,0,0.68196
3,3,2,122,4.2,0.57775,4.1218,2,1.9893,1,1.7058
3,3,3,123,4.2,0.87531,5.5241,1,3.732,0,1.0337
3,3,4,124,4.2,1.1548,3.6418,3,2.118,0,1.1586
3,3,5,125,2.1,2.1591,6.6134,1,2.3506,1,1.9675
3,3,6,126,2.1,1.4754,5.3088,1,0.94324,1,0.5974
3,3,7,127,2.1,1.5193,2.8606,2,1.7964,0,2.9162
3,3,8,128,4.2,1.4805,5.2244,2,1.3356,0,1.4891
3,3,9,129,4.2,0.84644,4.2801,3,2.2234,0,0.5011
3,3,10,130,2.1,2.6235,1.681,3,1.3702,1,1.1985
3,3,11,131,4.2,1.4277,3.3756,1,4.685,0,1.1922
3,3,12,132,2.1,1.4912,2.631,1,6.8919,1,1.676
3,3,13,133,4.2,6.3805,1.9852,2,1.4196,0,0.79215
3,3,14,134,2.1,0.93552,2.7394,2,1.9385,1,2.199
3,3,15,135,2.1,1.4166,2.97,1,1.3399,1,0.7508
3,3,16,136,4.2,0.63771,4.3623,2,2.5018,1,2.1048
3,3,17,137,2.1,2.877,4.3727,1,1.2471,1,0.64069
3,3,18,138,2.1,1.5445,2.6671,3,1.1241,0,1.0106
3,3,19,139,4.2,0.16432,5.1444,1,1.9814,1,1.1958
3,3,20,140,2.1,0.92609,3.1181,2,2.5296,1,1.9239
3,3,21,141,2.1,0.69341,3.1632,2,2.2596,1,0.61692
3,3,22,142,2.1,1.5534,4.2567,1,1.8444,0,1.0131
3,3,23,143,4.2,0.71967,5.8916,3,1.5817,1,1.0912
3,3,24,144,4.2,0.75931,4.3665,2,1.9328,0,1.7548
3,3,25,145,4.2,1.1512,5.9551,2,1.7874,1,1.8731
3,3,26,146,4.2,3.0098,3.0891,1,3.692,0,1.3197
3,3,27,147,4.2,1.3433,5.5579,3,2.7756,0,1.2223
3,3,28,148,4.2,4.6976,4.8214,1,2.3692,1,1.1823
3,3,29,149,4.2,1.8739,4.7434,2,1.6443,0,1.2603
3,3,30,150,2.1,1.28,3.6505,2,1.1468,1,0.88845
3,3,31,151,4.2,1.3187,4.8187,3,1.4837,0,1.6893
3,3,32,152,2.1,0.55297,2.9432,2,1.3012,1,0.76801
3,3,33,153,2.1,1.3868,3.0086,3,1.8736,0,0.64779
3,3,34,154,4.2,0.52617,5.1763,2,1.4521,1,1.2295
3,3,35,155,2.1,2.8158,2.7124,2,1.1478,0,1.5532
3,3,36,156,4.2,0.52271,5.4997,2,3.864,1,2.1017
3,3,37,157,4.2,1.1738,4.8701,2,1.7206,1,1.0627
3,3,38,158,4.2,1.3017,4.4468,3,1.7272,0,0.84318
3,3,39,159,2.1,3.5589,2.7047,3,1.1382,0,1.0878
3,3,40,160,2.1,2.1137,4.9958,1,1.5108,1,0.88978
3,3,41,161,4.2,1.6383,3.8878,2,1.044,0,1.173
3,3,42,162,4.2,11.61,3.5457,1,1.1326,1,1.8356
3,3,43,163,2.1,5.4412,4.6615,1,6.8318,1,0.91208
3,3,44,164,4.2,1.7043,6.0793,1,0.91154,1,0.51082
3,3,45,165,2.1,1.9192,3.4894,3,2.2974,1,0.89957
3,3,46,166,4.2,1.4089,4.7469,1,7.6216,1,0.93838
3,3,47,167,4.2,1.209,6.4456,1,1.1127,1,1.022
3,3,48,168,2.1,2.6677,3.3675,2,1.3235,0,1.6519
3,3,49,169,4.2,2.3474,3.5002,2,3.0371,1,1.1609
3,3,50,170,4.2,1.3288,6.1457,2,2.8241,0,1.7487
3,3,51,171,4.2,2.2319,5.8199,1,2.8655,1,0.83528
3,3,52,172,2.1,1.2571,4.2618,2,3.943,1,1.5444
3,3,53,173,2.1,0.94422,5.3236,1,1.8655,1,1.4162
3,3,54,174,2.1,0.6773,2.9167,3,1.3479,0,1
3,3,55,175,2.1,1.7724,3.4488,3,3.3403,0,1.004
3,3,56,176,2.1,1.4134,2.703,2,2.3417,1,2.5836
3,3,57,177,2.1,3.0035,3.6168,3,0.79947,0,0.89183
3,3,58,178,2.1,1.2382,2.0879,3,1.8047,0,1.3774
3,3,59,179,2.1,1.0787,3.0409,3,3.8181,1,3.3861
3,3,60,180,4.2,0.069397,4.2949,2,3.5476,1,3.8455
3,3,61,181,4.2,0.55709,4.9277,3,2.2622,0,1.3046
3,3,62,182,4.2,0.38856,5.2645,2,1.8271,1,0.47212
3,3,63,183,4.2,0.85645,5.8717,2,4.926,0,1.6651
3,3,64,184,2.1,1.2987,3.3808,2,1.9346,1,0.72058
3,3,65,185,4.2,4.7993,2.505,1,1.4421,0,0.84295
3,3,66,186,2.1,0.65113,2.4022,2,1.7776,0,1.7881
3,3,67,187,2.1,0.92344,2.7553,3,1.4772,0,0.76456
3,3,68,188,4.2,0.88671,4.4504,3,2.6417,0,0.75959
3,3,69,189,2.1,10.496,3.6602,2,1.9847,0,1.0708
3,3,70,190,4.2,0.81527,4.6257,2,1.2609,0,1.6448
3,3,71,191,4.2,1.2397,4.509,3,1.7111,1,2.4536
3,3,72,192,2.1,5.5097,3.1783,1,1.7627,1,1.4986
3,3,73,193,4.2,1.5183,6.011,3,2.2367,1,1.3985
3,3,74,194,2.1,1.8566,2.2804,3,2.7911,0,1.3658
3,3,75,195,2.1,2.1255,3.0463,2,7.9069,0,1.8627
3,3,76,196,4.2,8.3155,4.2991,2,1.3473,1,0.96657
3,3,77,197,4.2,6.5512,5.1006,1,2.3256,1,1.4927
3,3,78,198,4.2,0.65554,4.3969,2,4.6973,0,1.3447
3,3,79,199,4.2,1.674,4.632,3,1.5477,1,1.878
3,3,80,200,2.1,6.6382,3.079,1,3.1135,0,1.3604
3,3,81,201,2.1,0.99695,2.1201,3,1.8257,0,1.8993
3,3,82,202,4.2,1.3289,4.5259,2,1.0807,0,2.4076
3,3,83,203,2.1,3.5575,3.9732,2,0.82221,1,1.4947
3,3,84,204,4.2,1.4298,5.8656,1,1.5332,1,1.1602
3,3,85,205,2.1,1.2885,1.8195,3,1.0603,0,0.99081
3,3,86,206,4.2,1.6083,5.3643,1,1.1073,1,0.7861
3,3,87,207,2.1,0.77016,2.4029,2,1.5208,0,1.1415
3,3,88,208,2.1,1.3576,2.6081,2,1.0193,1,1.9518
3,3,89,209,2.1,1.4389,2.0427,3,1.2798,1,2.036
3,3,90,210,2.1,0.83364,2.1637,3,1.3465,0,0.63961
4,1,1,1,2.1,1.0315,1.4868,3,4.5838,0,1.6854
4,1,2,2,2.1,0.58558,1.6825,2,2.8909,0,3.1542
4,1,3,3,2.1,0.58377,2.0741,3,2.9428,0,1.4801
4,1,4,4,2.1,1.323,2.6185,3,5.2652,1,1.715
4,1,5,5,2.1,1.2049,1.7279,1,3.949,1,2.6093
4,1,6,6,2.1,1.8968,1.0587,2,3.511,0,2.6955
4,1,7,7,2.1,1.4012,1.0043,3,1.9083,0,1.9663
4,1,8,8,2.1,0.80802,1.6994,2,2.2498,0,3.0372
4,1,9,9,2.1,1.1145,2.8531,2,3.7348,1,1.5659
4,1,10,10,2.1,1.2885,3.1568,1,3.9855,1,1.2041
4,1,11,11,2.1,1.7045,1.2305,2,3.2855,0,1.6741
4,1,12,12,2.1,0.69729,0.99689,3,1.6755,0,2.3495
4,1,13,13,2.1,0.83115,2.0655,3,2.4955,1,1.5973
4,1,14,14,2.1,1.1046,1.729,2,2.4487,1,2.1851
4,1,15,15,2.1,0.90957,1.1029,2,3.2232,0,1.1959
4,1,16,16,2.1,0.77777,1.8589,1,2.3155,0,1.1844
4,1,17,17,2.1,0.75058,0.90382,3,1.763,0,1.2162
4,1,18,18,2.1,0.75704,2.0362,3,2.8707,1,0.74405
4,1,19,19,2.1,0.60423,3.2371,2,2.1716,1,0.71267
4,1,20,20,2.1,0.5357,1.5823,3,1.8791,0,2.543
4,1,21,21,2.1,0.85311,1.4909,3,1.9105,1,1.4397
4,1,22,22,2.1,0.82046,1.5147,3,1.7434,0,1.9337
4,1,23,23,2.1,0.83496,2.9855,2,4.3647,1,0.31063
4,1,24,24,2.1,0.65458,2.3933,3,1.7531,1,2.0961
4,1,25,25,2.1,1.6733,4.0913,3,7.2924,1,0.53792
4,1,26,26,2.1,0.54512,2.0068,3,2.6506,0,2.102
4,1,27,27,2.1,0.53844,2.0787,2,2.7002,0,2.1143
4,1,28,28,2.1,0.47758,4.47,1,0.9688,1,0.57885
4,1,29,29,2.1,0.60752,1.6764,3,1.3489,0,2.038
4,1,30,30,2.1,0.75008,1.4774,1,3.195,1,0.85281
4,1,31,31,2.1,0.74844,2.9387,2,4.1421,0,1.3867
4,1,32,32,2.1,0.59053,2.3624,3,2.0812,1,1.4329
4,1,33,33,2.1,0.55253,2.6618,1,2.5751,0,0.32103
4,1,34,34,2.1,0.73028,1.6151,1,3.262,1,0.27856
4,1,35,35,2.1,1.0383,1.2679,2,1.8023,0,1.3644
4,1,36,36,2.1,1.0952,2.2978,2,2.6753,1,0.21914
4,1,37,37,2.1,2.073,1.8167,1,1.711,0,2.0476
4,1,38,38,2.1,0.68272,2.3764,2,4.1607,1,2.3547
4,1,39,39,2.1,0.76681,1.073,2,5.3311,0,0.27433
4,1,40,40,2.1,0.61474,2.2301,3,1.9475,0,1.7808
4,1,41,41,2.1,1.4256,2.07,3,1.0383,0,1.7957
4,1,42,42,2.1,0.81284,2.0069,3,2.2576,1,1.7055
4,1,43,43,2.1,0.90301,0.80476,1,2.1572,0,0.90631
4,1,44,44,2.1,0.73903,3.0346,1,2.7432,1,0.28913
4,1,45,45,2.1,0.51703,1.839,2,1.232,0,2.0926
4,1,46,46,2.1,0.30795,1.4519,3,2.2201,0,0.29472
4,1,47,47,2.1,0.58721,1.6174,3,2.3416,1,0.085066
4,1,48,48,2.1,0.23654,3.1025,3,2.2158,1,2.1802
4,1,49,49,2.1,0.48182,1.5544,3,0.9289,1,1.4047
4,1,50,50,2.1,1.1813,1.4573,3,1.3252,0,0.67291
4,1,51,51,2.1,0.47013,1.8519,2,2.6687,0,2.2164
4,1,52,52,2.1,0.47876,1.6925,1,3.7335,0,2.3736
4,1,53,53,2.1,0.77203,3.1916,2,1.5807,1,1.5616
4,1,54,54,2.1,0.88021,0.97204,2,2.068,0,1.4186
4,1,55,55,2.1,0.47787,2.0065,3,4.0674,0,0.19034
4,1,56,56,2.1,0.39378,1.1505,3,2.2654,0,0.48695
4,1,57,57,2.1,0.61388,1.4575,2,1.731,0,1.528
4,1,58,58,2.1,0.44249,1.115,1,3.1072,1,0.40825
4,1,59,59,2.1,0.26367,2.5339,1,3.9582,1,0.75561
4,1,60,60,2.1,0.099652,1.8502,1,1.2262,0,0.83356
4,2,1,61,4.2,0.5935,3.2092,2,2.189,0,0.77041
4,2,2,62,4.2,0.53483,4.4384,3,1.3702,1,0.38891
4,2,3,63,4.2,0.63363,3.9865,3,2.6525,0,0.60815
4,2,4,64,4.2,0.68727,1.9755,2,1.5286,0,0.33861
4,2,5,65,4.2,0.5013,4.2925,3,3.3545,0,0.27041
4,2,6,66,4.2,0.68302,1.7806,1,2.428,0,0.65195
4,2,7,67,4.2,1.3718,2.8747,2,2.424,0,1.4798
4,2,8,68,4.2,0.62997,3.0674,3,2.8656,1,2.6899
4,2,9,69,4.2,0.65247,5.261,2,2.914,1,0.33775
4,2,10,70,4.2,0.90294,2.3015,1,0.91148,0,1.0605
4,2,11,71,4.2,0.5883,3.6991,2,1.9337,0,1.2154
4,2,12,72,4.2,0.73911,2.7435,2,1.9882,1,0.20743
4,2,13,73,4.2,0.71762,4.2343,1,1.3056,1,0.1533
4,2,14,74,4.2,0.8755,2.7796,3,1.9672,1,0.40603
4,2,15,75,4.2,0.55026,2.9525,3,2.9702,0,0.23603
4,2,16,76,4.2,0.4971,3.0227,1,1.7579,0,0.31213
4,2,17,77,4.2,0.70606,2.3724,2,2.1298,0,0.27081
4,2,18,78,4.2,0.74347,3.669,2,1.9775,1,0.16802
4,2,19,79,4.2,0.62401,3.5776,2,1.818,1,0.15927
4,2,20,80,4.2,0.72436,2.2495,3,1.9561,0,0.83817
4,2,21,81,4.2,0.63581,3.4256,3,2.3792,1,0.15745
4,2,22,82,4.2,0.46294,3.2901,3,1.7364,0,0.16073
4,2,23,83,4.2,0.62188,3.9477,3,2.0102,0,0.28054
4,2,24,84,4.2,0.54386,2.8279,1,1.1558,0,0.76199
4,2,25,85,4.2,0.38611,1.9088,1,2.5749,0,0.11812
4,2,26,86,4.2,1.0718,3.4161,3,1.4749,0,0.93202
4,2,27,87,4.2,0.69905,2.8831,2,1.2799,0,1.573
4,2,28,88,4.2,2.3895,2.7952,3,2.2138,0,0.20371
4,2,29,89,4.2,0.81743,3.4357,2,1.3697,1,0.19667
4,2,30,90,4.2,0.60473,3.7435,2,1.9405,1,0.1642
4,2,31,91,4.2,0.56824,2.8748,3,3.167,0,0.20405
4,2,32,92,4.2,0.49314,2.7822,2,1.7735,0,0.13104
4,2,33,93,4.2,0.55488,4.4186,3,1.3954,1,0.1601
4,2,34,94,4.2,0.58956,3.8023,2,2.6291,0,1.0341
4,2,35,95,4.2,0.55494,3.8448,3,3.3136,0,0.23444
4,2,36,96,4.2,1.2991,3.7755,3,1.3988,0,0.20234
4,2,37,97,4.2,0.61468,6.5272,1,1.5832,1,0.15801
4,2,38,98,4.2,0.89304,2.2945,3,3.3757,0,0.70279
4,2,39,99,4.2,0.26963,3.5184,2,1.7514,1,0.13664
4,2,40,100,4.2,0.74694,2.6499,3,2.9674,0,0.27268
4,2,41,101,4.2,0.55787,3.4321,1,3.4879,0,2.0584
4,2,42,102,4.2,0.93616,3.9666,1,1.7766,1,0.28106
4,2,43,103,4.2,0.75061,2.816,2,2.3709,0,1.0934
4,2,44,104,4.2,0.60991,4.7514,3,1.7868,1,0.5325
4,2,45,105,4.2,0.55776,7.0994,1,0.7201,1,1.3915
4,2,46,106,4.2,1.3268,2.3963,2,2.0698,0,1.1287
4,2,47,107,4.2,1.2206,4.9219,2,3.2374,1,0.40543
4,2,48,108,4.2,1.228,5.0638,3,1.828,0,0.20274
4,2,49,109,4.2,0.48759,4.3523,2,2.9804,1,0.52899
4,2,50,110,4.2,0.71593,4.739,3,1.482,0,0.15754
4,2,51,111,4.2,0.53172,2.8606,1,2.2122,0,0.23602
4,2,52,112,4.2,1.3218,3.5959,2,1.7737,0,0.35716
4,2,53,113,4.2,1.2501,4.6041,3,1.6269,0,0.54035
4,2,54,114,4.2,0.48114,3.8606,2,1.4108,0,0.13534
4,2,55,115,4.2,0.563,1.885,3,1.3748,0,0.84169
4,2,56,116,4.2,1.7851,4.1427,1,1.9594,1,0.2462
4,2,57,117,4.2,1.0925,4.3206,2,3.0673,1,0.48673
4,2,58,118,4.2,0.7432,4.715,1,0.59238,1,0.69817
4,2,59,119,4.2,0.65913,3.7365,1,2.0903,1,0.18743
4,2,60,120,4.2,0.7876,5.2172,2,1.4251,1,1.0671
4,3,1,121,2.1,0.93116,1.2045,2,2.1448,0,0.2685
4,3,2,122,4.2,0.55864,3.0501,1,2.9452,0,0.13211
4,3,3,123,4.2,0.64048,3.8021,3,1.3683,0,0.30788
4,3,4,124,4.2,1.28,4.4033,1,1.7392,0,0.20906
4,3,5,125,4.2,0.48877,3.0476,2,1.9689,0,0.32846
4,3,6,126,4.2,0.8854,3.5712,1,2.5533,0,0.23848
4,3,7,127,4.2,0.67303,3.4306,3,1.4604,1,0.15817
4,3,8,128,2.1,0.63,1.6946,2,1.9456,0,0.30514
4,3,9,129,4.2,0.65684,2.9246,3,1.8048,0,0.20801
4,3,10,130,4.2,0.59432,4.0765,3,1.9382,1,0.18576
4,3,11,131,2.1,0.88117,1.0196,2,1.8162,0,0.46163
4,3,12,132,4.2,0.57741,3.6701,3,1.5174,0,0.23828
4,3,13,133,2.1,0.90003,1.6452,3,2.7808,1,0.82138
4,3,14,134,4.2,0.81786,4.3809,1,3.303,0,0.23559
4,3,15,135,2.1,0.5297,1.4458,2,2.4387,0,0.54424
4,3,16,136,4.2,0.42355,4.4432,3,1.3409,1,0.29099
4,3,17,137,2.1,1.0099,1.0708,3,1.7955,0,0.6761
4,3,18,138,4.2,0.64278,1.1374,1,1.661,0,0.69712
4,3,19,139,4.2,0.72279,2.9116,3,1.5276,0,0.19146
4,3,20,140,4.2,0.90294,3.2348,2,1.4609,0,0.69742
4,3,21,141,2.1,0.66636,1.4323,2,2.6895,0,0.19463
4,3,22,142,2.1,0.81212,2.4121,3,2.3739,1,1.2315
4,3,23,143,2.1,0.56676,1.1284,3,1.6969,0,0.23892
4,3,24,144,2.1,0.79404,2.0736,2,1.7046,0,0.35459
4,3,25,145,4.2,0.4964,3.5848,2,2.0888,0,1.0392
4,3,26,146,2.1,0.26952,2.191,1,2.5038,0,0.18245
4,3,27,147,2.1,0.65359,1.3129,2,2.0903,0,0.20915
4,3,28,148,2.1,0.47245,2.1491,3,2.2032,0,0.13744
4,3,29,149,2.1,0.76054,2.1848,1,1.7569,0,2.516
4,3,30,150,2.1,1.9078,1.7848,3,2.4551,0,0.26292
4,3,31,151,4.2,0.13475,4.2136,2,2.358,1,0.25456
4,3,32,152,4.2,0.6457,3.7286,3,1.8063,1,0.16459
4,3,33,153,2.1,1.0176,2.6363,2,3.5552,0,0.59647
4,3,34,154,2.1,0.59394,2.2764,3,1.6403,0,0.36809
4,3,35,155,2.1,1.322,3.1908,2,2.6138,0,0.26953
4,3,36,156,2.1,0.55212,1.447,2,2.0015,0,0.16927
4,3,37,157,2.1,0.43924,1.2245,3,1.3823,0,0.47364
4,3,38,158,4.2,0.54704,4.4278,2,2.3212,0,0.80262
4,3,39,159,2.1,0.65131,1.2653,2,1.632,0,0.47143
4,3,40,160,2.1,0.52935,1.6038,2,3.525,0,0.20634
4,3,41,161,4.2,1.2202,4.7188,1,2.2947,1,0.57363
4,3,42,162,4.2,0.58953,2.9466,3,1.4506,0,0.39588
4,3,43,163,2.1,0.59627,1.7163,3,1.8791,0,0.16975
4,3,44,164,4.2,0.52867,3.9654,2,1.9771,0,0.15716
4,3,45,165,2.1,0.53482,1.2544,3,1.5808,0,0.76381
4,3,46,166,4.2,0.2068,2.7564,3,1.8723,0,1.0742
4,3,47,167,2.1,0.57092,0.90821,2,1.8681,0,0.22661
4,3,48,168,2.1,0.79062,2.9694,1,1.8449,0,0.37056
4,3,49,169,4.2,0.55555,3.857,2,1.9252,1,1.7974
4,3,50,170,2.1,0.57253,1.7192,3,1.8374,0,0.74713
4,3,51,171,4.2,0.51721,3.2668,2,1.2342,0,0.85733
4,3,52,172,4.2,0.43967,2.9019,3,1.911,0,0.2586
4,3,53,173,2.1,0.50084,2.5809,2,1.1712,0,1.0652
4,3,54,174,4.2,0.20211,3.3942,1,3.9555,0,0.68511
4,3,55,175,2.1,0.98525,2.4907,2,1.952,1,0.30593
4,3,56,176,2.1,2.208,2.0877,2,4.3126,0,0.52314
4,3,57,177,4.2,0.70492,3.0584,3,1.3433,0,0.47251
4,3,58,178,4.2,0.59741,3.5734,3,3.3207,1,0.52804
4,3,59,179,4.2,0.53183,3.4,1,3.281,1,1.8776
4,3,60,180,4.2,0.622,1.6293,2,3.1348,0,0.48807
4,3,61,181,4.2,0.32311,2.1042,2,2.2992,0,0.27881
4,3,62,182,4.2,0.64728,5.5756,3,1.9108,1,0.2017
4,3,63,183,2.1,0.68651,0.97432,2,1.9115,0,0.37167
4,3,64,184,2.1,0.47997,1.0304,2,2.4524,0,0.529
4,3,65,185,2.1,0.71386,2.1544,3,1.6019,0,0.57696
4,3,66,186,4.2,0.57386,4.4653,3,1.6964,1,0.29423
4,3,67,187,2.1,0.59329,1.6666,2,1.5777,0,0.23563
4,3,68,188,2.1,0.71354,1.4903,1,1.8432,0,0.11011
4,3,69,189,4.2,0.48845,3.2842,2,1.3803,0,0.11125
4,3,70,190,4.2,0.7693,2.8085,3,1.6366,1,0.29715
4,3,71,191,2.1,0.65953,2.0606,2,2.4856,0,0.18024
4,3,72,192,4.2,0.94835,5.1931,1,3.2282,0,0.2107
4,3,73,193,2.1,1.1161,1.1831,2,1.5763,0,0.5845
4,3,74,194,4.2,0.50168,2.8967,3,0.96642,0,0.26246
4,3,75,195,4.2,0.4307,3.1515,3,1.2813,0,0.98974
4,3,76,196,2.1,0.50006,1.1078,1,2.3158,0,0.19542
4,3,77,197,2.1,0.60627,1.7543,2,3.4806,0,0.25667
4,3,78,198,2.1,0.73229,2.6688,2,1.9234,0,0.17591
4,3,79,199,4.2,0.94673,3.0767,2,2.0885,0,0.2173
4,3,80,200,2.1,0.80128,2.6257,3,2.898,1,0.5746
4,3,81,201,4.2,0.69206,4.7268,2,1.3858,1,0.16183
4,3,82,202,2.1,0.6855,3.1675,1,2.2354,1,0.33913
4,3,83,203,2.1,0.57561,1.2746,1,2.3596,0,0.34619
4,3,84,204,2.1,0.59971,0.9388,3,2.1455,0,0.64056
4,3,85,205,4.2,0.56717,4.2573,2,2.329,1,0.23544
4,3,86,206,4.2,0.66798,3.0533,2,1.575,0,0.26895
4,3,87,207,4.2,0.58013,4.585,2,1.8559,0,0.77096
4,3,88,208,4.2,0.5751,3.1063,2,2.3871,0,0.82404
4,3,89,209,4.2,0.41199,3.774,3,1.7673,1,0.15946
4,3,90,210,2.1,0.44001,2.1374,3,2.7701,0,0.46266
5,1,1,1,2.1,7.9358,1.9554,2,1.1417,1,1.1161
5,1,2,2,2.1,1.3573,1.8106,3,0.8681,0,2.9506
5,1,3,3,2.1,1.2966,1.9779,2,0.95603,1,1.6424
5,1,4,4,2.1,1.0512,1.6212,3,1.9665,0,1.433
5,1,5,5,2.1,1.1168,1.8689,3,1.4124,0,1.7508
5,1,6,6,2.1,1.1804,2.0731,3,0.99239,1,0.54762
5,1,7,7,2.1,1.1097,1.9259,2,0.89037,1,0.60251
5,1,8,8,2.1,1.94,2.1284,3,1.1812,0,0.25014
5,1,9,9,2.1,0.95278,1.7983,2,0.69811,0,0.83479
5,1,10,10,2.1,0.84551,1.7063,3,1.928,0,0.28378
5,1,11,11,2.1,1.2933,2.2147,2,1.5102,0,0.50796
5,1,12,12,2.1,1.4054,2.1921,2,1.7127,0,0.44644
5,1,13,13,2.1,1.1038,2.193,3,0.88925,1,0.41862
5,1,14,14,2.1,0.83158,1.4113,2,0.91776,0,0.46198
5,1,15,15,2.1,1.8911,1.5375,2,0.70333,1,0.72767
5,1,16,16,2.1,0.85923,2.1334,2,0.75366,0,0.6492
5,1,17,17,2.1,1.3072,2.2183,2,0.9232,1,0.6421
5,1,18,18,2.1,0.89572,2.0902,3,0.81462,0,1.684
5,1,19,19,2.1,0.89433,1.8552,2,0.9023,1,0.7591
5,1,20,20,2.1,2.2908,2.2159,3,1.6565,0,1.1368
5,1,21,21,2.1,0.77644,2.6949,3,1.0577,1,0.50778
5,1,22,22,2.1,2.011,2.8361,2,0.67383,1,0.41886
5,1,23,23,2.1,0.85488,2.4411,2,1.0074,1,0.25918
5,1,24,24,2.1,0.98716,2.1854,2,1.3059,0,1.4263
5,1,25,25,2.1,0.98527,1.9598,3,1.5136,1,0.28824
5,1,26,26,2.1,1.2744,2.1064,3,1.3681,1,0.51607
5,1,27,27,2.1,0.71614,1.7249,3,1.9135,0,5.4783
5,1,28,28,2.1,0.42498,1.7658,2,1.0331,1,0.28358
5,1,29,29,2.1,1.2727,2.2582,3,0.95967,0,0.23048
5,1,30,30,2.1,0.86379,2.0346,3,0.79376,1,0.1914
5,1,31,31,2.1,1.2376,2.2875,2,0.91644,1,0.59657
5,1,32,32,2.1,0.72129,2.0103,2,1.0117,0,0.45502
5,1,33,33,2.1,1.1582,2.1972,3,0.59723,1,0.93962
5,1,34,34,2.1,0.5999,2.1099,3,0.7455,0,0.55289
5,1,35,35,2.1,0.5573,2.3643,2,1.4789,0,1.1424
5,1,36,36,2.1,0.57592,2.0474,3,0.74326,1,1.3899
5,1,37,37,2.1,1.431,2.2095,2,0.62554,1,0.49431
5,1,38,38,2.1,0.57774,2.1531,2,0.32345,1,0.16423
5,1,39,39,2.1,0.76757,1.9501,2,1.2332,0,0.28351
5,1,40,40,2.1,0.75717,1.7647,3,1.0235,1,2.3149
5,1,41,41,2.1,0.51221,3.0739,1,2.6701,1,1.1462
5,1,42,42,2.1,0.63706,1.2883,2,1.1371,0,0.34338
5,1,43,43,2.1,0.87272,2.4835,2,0.91167,1,1.1607
5,1,44,44,2.1,0.46296,1.5785,3,2.7113,0,0.17039
5,1,45,45,2.1,0.3512,1.8557,2,0.59875,1,2.1233
5,1,46,46,2.1,0.57892,2.0741,2,3.504,0,0.95323
5,1,47,47,2.1,0.50475,2.3456,2,1.0448,1,0.34271
5,1,48,48,2.1,0.12371,1.966,2,0.67205,0,1.163
5,1,49,49,2.1,0.5578,1.6058,2,0.77564,0,0.52567
5,1,50,50,2.1,0.5065,1.8363,2,2.0928,1,0.45017
5,1,51,51,2.1,0.69059,2.1661,2,1.8313,1,0.18449
5,1,52,52,2.1,0.4432,1.7907,2,1.0339,0,0.68347
5,1,53,53,2.1,1.9407,2.0496,2,2.0488,1,0.24794
5,1,54,54,2.1,0.47474,1.9971,3,1.7512,1,1.1631
5,1,55,55,2.1,0.74854,1.8917,2,1.0422,0,0.79566
5,1,56,56,2.1,0.2194,2.0337,3,0.98609,1,0.70315
5,1,57,57,2.1,0.3306,2.3808,2,1.1898,1,3.2247
5,1,58,58,2.1,0.719,2.103,3,1.1722,0,0.60875
5,1,59,59,2.1,0.63611,2.503,2,1.028,1,0.87868
5,1,60,60,2.1,1.2477,2.0103,2,0.98629,0,0.64012
5,2,1,61,4.2,0.53307,5.2786,2,0.77996,1,0.73698
5,2,2,62,4.2,0.80525,4.0431,2,1.2603,0,0.50046
5,2,3,63,4.2,0.36266,4.5552,2,0.7499,0,0.97416
5,2,4,64,4.2,2.6011,8.0253,1,1.9216,1,2.6063
5,2,5,65,4.2,2.2214,4.1255,3,1.6762,0,0.692
5,2,6,66,4.2,1.9447,4.117,3,1.3323,0,0.49121
5,2,7,67,4.2,1.6419,4.2977,2,1.4406,1,1.9624
5,2,8,68,4.2,1.3169,4.4373,3,2.0301,1,1.1346
5,2,9,69,4.2,1.5448,4.7254,3,1.5617,1,2.0782
5,2,10,70,4.2,1.1894,4.2022,3,1.6374,1,1.878
5,2,11,71,4.2,0.38953,3.7642,3,0.98548,1,0.44702
5,2,12,72,4.2,2.2699,3.8518,3,1.0296,1,0.51337
5,2,13,73,4.2,5.2911,3.6805,2,0.92053,0,0.49639
5,2,14,74,4.2,0.80341,5.8887,2,0.61179,1,0.66533
5,2,15,75,4.2,2.9011,4.1845,3,1.2124,1,0.44846
5,2,16,76,4.2,0.7656,4.0108,3,0.73403,0,0.38981
5,2,17,77,4.2,1.2573,4.0426,2,1.0527,0,0.84702
5,2,18,78,4.2,0.73223,4.0042,3,2.345,0,1.548
5,2,19,79,4.2,0.75897,4.2057,3,2.2014,0,0.36333
5,2,20,80,4.2,5.7945,4.2102,3,1.8851,0,0.4829
5,2,21,81,4.2,1.9157,3.8734,3,0.54566,1,0.49049
5,2,22,82,4.2,1.6468,4.1435,3,0.43714,0,0.47368
5,2,23,83,4.2,0.54395,3.9763,3,0.44458,0,0.28839
5,2,24,84,4.2,2.471,3.9816,3,0.77084,0,1.2639
5,2,25,85,4.2,0.47393,4.1491,3,0.72119,1,0.47436
5,2,26,86,4.2,1.7992,4.0822,2,2.4427,1,1.3605
5,2,27,87,4.2,0.24942,4.0615,2,2.4147,0,0.8456
5,2,28,88,4.2,0.99769,4.3553,3,2.1032,0,0.3563
5,2,29,89,4.2,1.5091,3.8113,3,4.8234,1,0.68818
5,2,30,90,4.2,1.0048,4.0733,2,2.4264,0,0.21094
5,2,31,91,4.2,0.85184,3.935,2,1.7171,0,0.19556
5,2,32,92,4.2,2.54,3.7096,3,0.52652,0,0.51883
5,2,33,93,4.2,2.6513,3.9309,3,1.0885,1,0.51222
5,2,34,94,4.2,4.9956,4.4856,2,1.0759,0,0.060518
5,2,35,95,4.2,1.7533,4.1095,2,1.3728,0,0.64822
5,2,36,96,4.2,1.753,3.5412,2,0.7475,1,0.34635
5,2,37,97,4.2,0.75218,4.7667,2,0.83275,1,0.12587
5,2,38,98,4.2,4.1593,3.4859,3,0.62276,1,1.0669
5,2,39,99,4.2,1.8217,3.6873,3,0.51392,1,0.42564
5,2,40,100,4.2,0.31749,3.6382,3,3.4175,0,0.53503
5,2,41,101,4.2,0.80261,3.7197,3,0.37527,0,0.46151
5,2,42,102,4.2,0.61707,3.6616,3,0.43312,0,0.42087
5,2,43,103,4.2,1.9778,3.6049,3,0.2823,0,0.28414
5,2,44,104,4.2,0.53573,4.3993,2,0.26636,0,0.58972
5,2,45,105,4.2,3.3031,0.23382,1,2.622,0,1.2459
5,2,46,106,4.2,0.52228,3.6923,3,1.5238,0,0.43458
5,2,47,107,4.2,6.362,3.7143,2,1.5702,1,1.6455
5,2,48,108,4.2,2.5422,3.7297,2,0.648,0,0.48407
5,2,49,109,4.2,1.3013,3.3894,3,0.28273,1,0.25313
5,2,50,110,4.2,1.0411,4.3735,2,0.23257,0,0.15874
5,2,51,111,4.2,4.3601,3.7168,2,0.28418,0,0.28758
5,2,52,112,4.2,2.1487,4.1045,3,0.35281,1,0.28134
5,2,53,113,4.2,1.2357,3.5658,2,0.6122,1,0.66629
5,2,54,114,4.2,2.3058,3.4775,3,0.43231,1,1.6919
5,2,55,115,4.2,1.3262,4.0837,2,0.29218,0,0.199
5,2,56,116,4.2,2.1806,3.8466,2,1.3931,1,0.81311
5,2,57,117,4.2,5.1537,3.9011,2,0.84584,0,0.457
5,2,58,118,4.2,12.737,3.5591,3,0.3741,1,0.22065
5,2,59,119,4.2,4.5518,3.5411,3,0.37172,1,0.70627
5,2,60,120,4.2,2.6422,3.9618,2,0.19023,0,0.37214
5,3,1,121,2.1,1.3738,1.2983,2,1.5131,1,0.59972
5,3,2,122,2.1,1.4835,1.9721,2,0.72623,0,0.22345
5,3,3,123,4.2,0.91676,3.4046,2,0.33884,0,0.22585
5,3,4,124,2.1,1.1323,1.7549,2,0.46295,0,0.2017
5,3,5,125,4.2,0.73248,3.0848,1,0.39345,0,0.18995
5,3,6,126,4.2,0.46766,3.4543,3,1.9058,0,4.3183
5,3,7,127,4.2,0.55902,7.1682,1,0.85129,1,1.6226
5,3,8,128,2.1,2.8637,1.9014,3,2.5784,0,3.1785
5,3,9,129,4.2,0.98845,4.282,3,0.39371,0,0.44042
5,3,10,130,4.2,1.5515,3.718,3,2.0204,0,0.069667
5,3,11,131,4.2,0.82522,3.7414,3,0.60413,1,1.7052
5,3,12,132,2.1,0.79168,1.2528,1,0.91039,0,0.21402
5,3,13,133,2.1,1.5112,1.9021,3,0.24282,0,0.21512
5,3,14,134,2.1,0.92175,2.0659,3,0.27196,0,0.19552
5,3,15,135,2.1,2.3524,1.7641,3,0.95074,0,0.12585
5,3,16,136,4.2,0.45489,3.9313,2,1.0406,1,0.45885
5,3,17,137,2.1,0.77074,0.20968,1,1.1039,0,0.16822
5,3,18,138,2.1,1.1184,9.35,1,0.44627,1,0.53812
5,3,19,139,2.1,1.1054,2.1139,2,1.5343,0,0.4684
5,3,20,140,4.2,0.68925,4.5797,2,0.9902,1,0.30623
5,3,21,141,2.1,2.2977,2.0146,3,0.90402,0,0.46424
5,3,22,142,4.2,1.6854,3.9421,3,0.38759,1,0.39311
5,3,23,143,2.1,1.6191,3.2775,2,0.16894,1,0.19117
5,3,24,144,4.2,6.1336,1.0469,1,0.34413,0,0.26357
5,3,25,145,2.1,0.53018,1.7708,2,0.2707,0,0.16069
5,3,26,146,4.2,0.49091,4.1183,3,0.61333,0,0.23425
5,3,27,147,2.1,0.76479,1.6278,2,0.3172,0,0.2063
5,3,28,148,2.1,2.4678,2.2663,2,0.20016,1,0.31118
5,3,29,149,2.1,1.0625,3.1523,2,0.38355,1,0.26273
5,3,30,150,2.1,1.0689,2.0207,2,0.24468,1,0.37801
5,3,31,151,2.1,1.3174,2.1309,2,1.223,0,0.36165
5,3,32,152,2.1,0.73188,1.8272,3,0.95682,0,0.19395
5,3,33,153,2.1,0.48837,1.8598,3,1.2981,0,0.51369
5,3,34,154,4.2,0.84912,3.9404,3,1.171,0,3.1119
5,3,35,155,4.2,0.79146,3.1338,2,1.3267,0,0.93375
5,3,36,156,4.2,2.7344,4.1776,2,0.22262,0,0.85969
5,3,37,157,2.1,1.1272,1.8949,3,0.71726,0,1.5979
5,3,38,158,2.1,4.1789,1.6482,1,1.3852,0,1.5798
5,3,39,159,2.1,0.69589,1.9945,2,0.81197,0,0.80859
5,3,40,160,4.2,0.98359,3.3661,3,1.734,0,0.29047
5,3,41,161,2.1,1.5368,2.575,2,0.328,0,0.32138
5,3,42,162,4.2,0.88459,3.5899,3,0.87447,0,0.28309
5,3,43,163,2.1,4.3615,2.6707,2,0.33013,0,0.62686
5,3,44,164,2.1,1.4014,1.341,1,0.9463,0,0.11292
5,3,45,165,4.2,0.65726,3.5646,2,0.2111,0,0.26498
5,3,46,166,4.2,9.8724,3.0425,2,0.48637,1,0.52034
5,3,47,167,2.1,0.85058,1.6612,2,0.26992,0,0.27329
5,3,48,168,4.2,0.40733,3.1572,2,1.6849,1,0.66032
5,3,49,169,4.2,1.0471,3.4188,3,0.21552,1,0.14041
5,3,50,170,4.2,1.1108,3.6149,2,0.28276,0,0.3033
5,3,51,171,2.1,0.88907,4.1397,3,0.18515,1,0.11362
5,3,52,172,4.2,1.802,2.6051,3,0.27589,1,0.23907
5,3,53,173,4.2,0.75885,3.5185,3,0.37528,1,0.38216
5,3,54,174,4.2,0.32885,3.6354,2,0.59124,1,0.12415
5,3,55,175,4.2,2.5936,3.5631,3,0.26548,1,0.21138
5,3,56,176,4.2,1.901,3.772,3,0.30538,0,0.34637
5,3,57,177,2.1,0.75225,1.5443,3,0.21322,1,0.21077
5,3,58,178,4.2,0.33916,4.2447,2,0.63803,1,0.81718
5,3,59,179,4.2,1.4134,0.60121,1,0.41277,0,0.33041
5,3,60,180,2.1,1.768,2.1643,2,0.32641,0,0.22246
5,3,61,181,2.1,1.3184,2.3323,3,0.77553,1,0.79773
5,3,62,182,2.1,1.7238,1.985,3,0.24334,0,0.13587
5,3,63,183,2.1,1.669,2.0301,3,0.17304,1,0.21444
5,3,64,184,4.2,1.1838,3.6129,3,0.081656,0,0.091868
5,3,65,185,4.2,0.98552,3.7827,2,0.24445,1,0.49667
5,3,66,186,4.2,0.36008,4.161,3,0.18183,0,0.66056
5,3,67,187,4.2,0.48052,2.4917,1,0.22392,0,0.16574
5,3,68,188,4.2,1.1208,4.6088,2,0.49109,0,0.27729
5,3,69,189,4.2,1.147,4.9373,3,0.16524,1,0.16645
5,3,70,190,4.2,1.4872,3.439,3,0.13861,1,0.13938
5,3,71,191,2.1,2.0411,2.0092,2,0.17903,0,0.3786
5,3,72,192,4.2,2.318,3.114,2,0.2039,1,1.2983
5,3,73,193,2.1,2.5053,1.9249,3,0.37889,0,0.36153
5,3,74,194,2.1,1.089,2.209,2,1.4817,0,0.12143
5,3,75,195,4.2,0.83625,4.3281,2,1.1569,0,0.066318
5,3,76,196,2.1,1.1623,2.4324,3,0.15121,1,0.54394
5,3,77,197,2.1,0.71584,1.8205,1,0.23709,1,5.1863
5,3,78,198,4.2,6.8443,1.9836,2,0.9151,0,0.083446
5,3,79,199,2.1,0.48832,2.0259,2,0.21049,0,0.11339
5,3,80,200,2.1,0.47951,2.3308,2,0.15824,0,0.16606
5,3,81,201,4.2,1.4106,4.3019,2,0.40571,0,0.85788
5,3,82,202,2.1,0.91745,1.6932,2,0.18053,0,0.38725
5,3,83,203,4.2,0.24907,0.13473,1,0.91925,0,0.53394
5,3,84,204,2.1,0.29561,1.8748,2,0.4647,0,0.57941
5,3,85,205,4.2,0.37644,4.0316,2,0.5537,0,0.28098
5,3,86,206,2.1,0.85618,0.99521,2,0.061885,0,0.13794
5,3,87,207,4.2,0.24582,3.3705,2,0.64808,0,0.099395
5,3,88,208,2.1,0.37875,1.6659,2,0.10627,0,0.10872
5,3,89,209,4.2,0.36061,3.7196,2,0.13621,0,0.07286
5,3,90,210,4.2,1.3664,3.3949,2,0.15285,0,0.16925
6,1,1,1,2.1,0.28034,2.061,2,1.5072,1,1.7746
6,1,2,2,2.1,0.27729,2.1412,2,1.6615,1,1.5986
6,1,3,3,2.1,1.3676,2.2743,2,3.0563,1,1.6559
6,1,4,4,2.1,0.35129,1.4689,2,1.6119,1,3.1856
6,1,5,5,2.1,0.42716,1.3982,3,2.092,0,2.5632
6,1,6,6,2.1,0.79662,1.8396,2,1.672,0,3.5722
6,1,7,7,2.1,1.4477,2.0741,2,3.0227,0,3.6368
6,1,8,8,2.1,1.8692,2.5119,2,2.3507,0,2.8908
6,1,9,9,2.1,1.584,1.7688,2,2.8151,0,2.9024
6,1,10,10,2.1,1.1257,1.8568,2,1.8179,0,1.7564
6,1,11,11,2.1,1.0445,1.0142,2,1.7901,0,1.9528
6,1,12,12,2.1,0.80594,1.5849,3,2.7033,0,1.5757
6,1,13,13,2.1,0.62627,0.66587,2,3.1874,0,1.0582
6,1,14,14,2.1,0.76549,1.5997,2,4.8047,1,4.2883
6,1,15,15,2.1,0.93679,1.6035,2,1.4558,0,1.2345
6,1,16,16,2.1,0.7292,1.4002,2,1.4981,0,1.2487
6,1,17,17,2.1,1.3507,1.7914,2,2.2699,0,1.9822
6,1,18,18,2.1,1.0332,1.667,2,1.5994,0,1.7885
6,1,19,19,2.1,0.85091,1.7816,2,1.2131,0,2.1024
6,1,20,20,2.1,0.77093,1.1779,2,1.5836,0,0.78827
6,1,21,21,2.1,0.75468,2.0097,2,1.7649,0,1.5399
6,1,22,22,2.1,0.65556,1.6404,2,1.3578,0,1.562
6,1,23,23,2.1,0.6998,1.7352,2,1.0607,1,0.39544
6,1,24,24,2.1,0.56051,2.0732,3,1.0853,0,1.9848
6,1,25,25,2.1,0.7056,1.7646,3,1.7086,1,0.80728
6,1,26,26,2.1,0.62653,1.7459,2,1.1113,1,0.36211
6,1,27,27,2.1,0.60192,1.2778,2,0.76144,1,0.35132
6,1,28,28,2.1,0.79121,1.9019,2,0.86773,1,0.37672
6,1,29,29,2.1,0.81854,0.99611,2,1.8544,0,1.7932
6,1,30,30,2.1,0.74454,1.4992,2,1.2937,1,0.56259
6,1,31,31,2.1,1.1376,1.7506,1,5.413,1,1.4986
6,1,32,32,2.1,0.78375,1.7482,2,0.7857,0,1.7836
6,1,33,33,2.1,0.50838,1.6103,2,0.95647,1,0.34689
6,1,34,34,2.1,0.59996,1.7143,2,0.7288,1,1.4506
6,1,35,35,2.1,0.62268,1.9794,2,0.59775,0,2.0488
6,1,36,36,2.1,0.53765,1.2692,2,0.61178,1,0.70754
6,1,37,37,2.1,0.97561,1.2721,2,0.80652,1,1.9899
6,1,38,38,2.1,0.65536,1.8999,2,0.39353,1,1.2121
6,1,39,39,2.1,1.2395,1.0215,2,0.59187,1,0.71987
6,1,40,40,2.1,0.7673,1.3993,2,0.79914,1,0.58743
6,1,41,41,2.1,1.6745,1.4713,2,0.51226,1,0.97869
6,1,42,42,2.1,1.0651,1.6489,2,1.2372,0,1.7042
6,1,43,43,2.1,0.63418,2.0192,2,0.53115,1,1.0928
6,1,44,44,2.1,0.74459,1.6807,2,1.4489,0,1.5638
6,1,45,45,2.1,0.61863,1.5809,2,1.3937,1,1.9019
6,1,46,46,2.1,0.73961,1.4049,2,0.60391,0,2.3365
6,1,47,47,2.1,0.99594,1.0959,2,1.1116,0,0.7906
6,1,48,48,2.1,1.0305,1.3774,2,1.0759,1,0.3599
6,1,49,49,2.1,1.9388,1.8162,3,3.1274,0,1.7849
6,1,50,50,2.1,1.2167,1.9256,3,1.8992,0,2.361
6,1,51,51,2.1,0.76323,1.6717,3,1.6479,1,0.38178
6,1,52,52,2.1,0.78296,1.4202,3,0.95054,1,0.32893
6,1,53,53,2.1,0.66371,2.2337,3,1.3385,1,0.40116
6,1,54,54,2.1,0.64836,0.92515,2,1.5857,0,1.6587
6,1,55,55,2.1,0.8093,1.6902,2,2.1789,0,2.3062
6,1,56,56,2.1,0.57221,1.7316,2,1.2132,0,1.023
6,1,57,57,2.1,0.76446,1.4923,2,1.573,0,1.1777
6,1,58,58,2.1,0.52753,0.94775,3,1.2508,0,0.97018
6,1,59,59,2.1,0.63045,1.1532,2,1.0967,0,0.75374
6,1,60,60,2.1,0.60565,1.6293,2,1.6628,0,1.5889
6,2,1,61,4.2,1.2375,1.9645,2,1.9778,0,0.96664
6,2,2,62,4.2,0.90269,3.0206,2,1.2836,0,1.1944
6,2,3,63,4.2,0.58841,2.8775,3,1.3802,0,1.7539
6,2,4,64,4.2,0.75957,2.3757,3,1.3354,0,1.4543
6,2,5,65,4.2,1.1182,4.5156,1,2.0094,1,1.911
6,2,6,66,4.2,1.1059,1.9771,2,1.7762,0,0.70704
6,2,7,67,4.2,0.72928,2.9966,2,1.4725,0,0.83994
6,2,8,68,4.2,0.75516,2.1801,2,1.0255,1,0.33785
6,2,9,69,4.2,1.7683,2.3979,2,0.91946,0,0.32016
6,2,10,70,4.2,1.2866,2.7838,2,0.82957,0,0.32697
6,2,11,71,4.2,0.6219,1.8652,2,0.93264,0,0.32871
6,2,12,72,4.2,0.7471,2.7389,2,1.0836,0,1.0944
6,2,13,73,4.2,0.71956,2.8084,2,0.97254,0,2.158
6,2,14,74,4.2,0.71924,2.4939,2,1.0775,1,0.24963
6,2,15,75,4.2,0.70077,2.6371,3,1.9824,0,1.1239
6,2,16,76,4.2,0.80328,2.0317,2,1.1111,0,0.72309
6,2,17,77,4.2,1.0865,2.6376,2,1.2401,0,2.7202
6,2,18,78,4.2,0.76026,2.3306,2,0.95326,0,0.86122
6,2,19,79,4.2,0.56462,1.6216,2,0.82737,0,0.43144
6,2,20,80,4.2,0.79405,2.5561,2,0.93833,0,1.3466
6,2,21,81,4.2,0.84445,2.4559,2,0.9482,0,0.51859
6,2,22,82,4.2,0.74538,2.8502,2,0.89687,0,1.4855
6,2,23,83,4.2,1.094,2.5901,3,1.0733,0,0.86523
6,2,24,84,4.2,0.87337,2.6528,2,0.9684,0,0.84836
6,2,25,85,4.2,0.66878,2.425,2,0.89628,0,1.4956
6,2,26,86,4.2,0.6536,2.5152,3,1.8425,0,0.7743
6,2,27,87,4.2,0.73698,2.3249,3,1.9307,0,0.91471
6,2,28,88,4.2,0.9903,2.3721,3,1.1285,0,1.3754
6,2,29,89,4.2,0.81228,2.986,3,1.0239,1,2.0341
6,2,30,90,4.2,0.68803,2.7415,3,1.5817,0,0.65179
6,2,31,91,4.2,2.2837,4.1901,3,1.3266,1,1.6996
6,2,32,92,4.2,0.93008,3.0881,3,1.2042,1,0.56997
6,2,33,93,4.2,0.66386,3.2135,2,1.7871,0,0.34092
6,2,34,94,4.2,0.86631,2.9274,2,0.90828,0,1.6204
6,2,35,95,4.2,0.71242,3.155,3,1.194,0,0.48336
6,2,36,96,4.2,0.86579,4.5466,3,1.5249,0,0.67336
6,2,37,97,4.2,0.81007,4.0847,3,0.94507,0,0.48304
6,2,38,98,4.2,1.0639,1.8945,2,1.7664,0,0.91211
6,2,39,99,4.2,0.47966,1.8175,2,1.5649,1,0.41453
6,2,40,100,4.2,1.2601,2.0478,2,1.8878,1,1.5802
6,2,41,101,4.2,1.2065,2.8769,3,1.2682,0,0.80237
6,2,42,102,4.2,0.81722,2.0624,2,1.3167,0,0.77832
6,2,43,103,4.2,0.71318,2.9643,3,1.1135,0,0.66348
6,2,44,104,4.2,0.70716,3.2847,3,1.4039,0,1.2757
6,2,45,105,4.2,0.79424,3.3332,3,1.3405,0,1.0782
6,2,46,106,4.2,1.2457,3.041,2,2.9633,1,1.911
6,2,47,107,4.2,1.2373,2.6838,3,1.7074,0,0.44772
6,2,48,108,4.2,0.8855,2.4581,3,1.4249,1,0.31321
6,2,49,109,4.2,0.71334,3.3801,3,1.0898,1,0.31265
6,2,50,110,4.2,1.0065,2.7096,3,1.1997,0,0.55269
6,2,51,111,4.2,1.0989,3.3366,3,1.5517,1,0.39683
6,2,52,112,4.2,1.0788,2.4346,3,0.96686,1,0.37428
6,2,53,113,4.2,0.76975,2.8307,3,1.5854,0,1.7815
6,2,54,114,4.2,0.83863,2.3384,3,1.882,1,0.32595
6,2,55,115,4.2,0.93175,1.8296,3,0.98671,1,0.26534
6,2,56,116,4.2,0.89751,2.5598,3,1.7854,0,0.39597
6,2,57,117,4.2,0.8226,2.2589,3,1.9318,0,0.6518
6,2,58,118,4.2,1.6988,2.884,3,1.3705,1,0.38826
6,2,59,119,4.2,1.553,2.7264,3,1.5269,1,0.3379
6,2,60,120,4.2,1.3399,3.0009,2,1.7424,1,1.393
6,3,1,121,4.2,1.2226,2.2133,3,1.6884,0,0.57983
6,3,2,122,4.2,0.89851,3.1965,3,1.0896,1,1.2908
6,3,3,123,4.2,0.93309,3.0408,3,1.2639,1,0.6066
6,3,4,124,4.2,0.71886,2.8746,3,1.2203,0,1.4008
6,3,5,125,2.1,1.1273,0.90113,2,2.0302,0,0.49654
6,3,6,126,2.1,1.0715,1.9649,3,1.3596,0,0.90042
6,3,7,127,2.1,0.84443,1.8259,3,1.337,1,0.88245
6,3,8,128,2.1,0.99034,1.911,3,1.237,1,0.30996
6,3,9,129,4.2,0.83788,2.4716,2,1.4773,1,0.4615
6,3,10,130,2.1,1.0512,1.7031,2,3.8849,0,0.60827
6,3,11,131,2.1,1.0505,2.4111,2,1.4953,1,3.5227
6,3,12,132,4.2,1.1168,4.3225,2,1.9444,0,1.7999
6,3,13,133,4.2,0.72699,3.7155,3,2.1929,1,0.79742
6,3,14,134,2.1,1.9287,1.6885,3,2.5029,0,0.51892
6,3,15,135,4.2,1.1479,3.1997,3,1.4481,1,0.59572
6,3,16,136,2.1,0.95846,1.6872,3,1.7938,0,0.51685
6,3,17,137,4.2,0.94974,3.2881,3,1.4843,1,1.0827
6,3,18,138,4.2,0.88625,2.3911,3,1.7846,1,0.90162
6,3,19,139,4.2,0.92311,2.1019,3,1.2271,1,0.82229
6,3,20,140,4.2,0.85817,3.2411,3,2.277,1,1.7192
6,3,21,141,4.2,1.1091,3.3417,3,1.7132,0,0.82484
6,3,22,142,2.1,0.94187,2.2837,3,1.7991,0,0.5957
6,3,23,143,4.2,0.62887,3.4141,3,1.4373,0,2.1894
6,3,24,144,4.2,0.76426,2.9875,3,1.4973,1,1.7983
6,3,25,145,4.2,0.88923,3.5088,3,1.4548,0,1.8634
6,3,26,146,2.1,1.0868,1.942,3,2.1346,0,2.1489
6,3,27,147,4.2,0.76722,2.5124,3,1.1592,1,0.5065
6,3,28,148,2.1,1.0789,1.2184,3,1.7247,1,1.3366
6,3,29,149,2.1,0.80995,1.6555,3,1.3574,1,0.46931
6,3,30,150,4.2,0.67139,2.7311,3,2.1448,1,1.5512
6,3,31,151,2.1,1.3722,2.1896,3,3.5602,0,0.92787
6,3,32,152,2.1,0.59403,1.9049,3,1.2536,1,0.53446
6,3,33,153,2.1,0.69361,1.9594,3,1.0114,0,0.66628
6,3,34,154,4.2,0.93713,2.7515,3,0.95452,0,0.70494
6,3,35,155,4.2,0.74876,2.8715,3,1.2052,1,0.63737
6,3,36,156,4.2,0.59699,2.493,3,1.5834,0,0.46236
6,3,37,157,2.1,0.88622,1.6374,3,1.682,0,0.98952
6,3,38,158,2.1,0.84323,2.1047,3,1.2871,1,0.74882
6,3,39,159,4.2,0.72039,2.7639,3,1.9239,0,0.65939
6,3,40,160,2.1,1.2209,1.2553,3,1.357,1,0.59342
6,3,41,161,2.1,0.99818,1.3232,3,1.6951,0,1.1929
6,3,42,162,4.2,0.76048,2.6347,3,1.8683,0,1.6665
6,3,43,163,2.1,0.96222,1.7371,3,1.6463,0,0.44181
6,3,44,164,4.2,0.63042,2.6168,3,0.99911,1,0.96997
6,3,45,165,4.2,0.66608,2.8039,3,1.4076,0,1.2362
6,3,46,166,4.2,0.62749,3.537,3,1.5399,1,1.3913
6,3,47,167,4.2,1.048,3.6391,3,1.7454,0,1.5082
6,3,48,168,4.2,0.7281,2.9516,3,1.6743,1,1.1112
6,3,49,169,4.2,1.1612,2.0152,3,2.0465,0,0.60862
6,3,50,170,4.2,1.7727,3.4944,3,1.4237,1,0.38093
6,3,51,171,4.2,1.0463,2.153,3,1.8929,0,0.48228
6,3,52,172,2.1,0.83108,1.1205,3,1.7848,1,0.92315
6,3,53,173,4.2,0.78566,3.0204,3,1.1592,0,1.3062
6,3,54,174,2.1,0.66337,1.6136,3,1.0894,0,1.1569
6,3,55,175,2.1,0.84011,1.2806,3,1.0012,1,0.59925
6,3,56,176,4.2,0.64338,2.6578,3,0.92888,1,0.83074
6,3,57,177,2.1,0.75075,1.4444,3,1.4082,1,0.61751
6,3,58,178,2.1,1.0245,2.0926,3,1.8873,1,1.4557
6,3,59,179,2.1,0.9303,1.6931,3,1.5857,0,0.38538
6,3,60,180,4.2,1.2076,3.3399,3,2.2754,1,1.0878
6,3,61,181,2.1,1.0286,1.7811,3,2.552,0,1.0466
6,3,62,182,2.1,0.91156,2.4103,3,1.8317,0,1.3486
6,3,63,183,2.1,0.90899,2.2615,3,1.879,1,0.40466
6,3,64,184,4.2,0.9055,3.2481,3,1.8223,0,2.1667
6,3,65,185,2.1,0.94924,1.8246,3,1.3014,1,0.84793
6,3,66,186,4.2,0.9392,3.4521,3,1.0205,1,0.81704
6,3,67,187,4.2,0.96093,3.2534,3,0.93348,0,0.67801
6,3,68,188,2.1,1.2644,1.523,3,1.0999,0,0.64318
6,3,69,189,2.1,0.97677,1.9134,3,2.2035,1,0.81242
6,3,70,190,2.1,1.2614,2.3082,3,0.68267,0,0.47569
6,3,71,191,2.1,0.9432,2.2071,3,0.91684,1,1.2074
6,3,72,192,2.1,1.0877,2.3121,3,0.87829,0,0.46486
6,3,73,193,4.2,0.89287,3.4556,3,0.54012,0,0.41579
6,3,74,194,2.1,1.1862,2.0413,3,0.52607,1,0.4634
6,3,75,195,2.1,1.1227,2.5283,3,0.44865,1,0.63379
6,3,76,196,2.1,0.93079,1.84,3,1.2443,0,0.77729
6,3,77,197,2.1,0.8925,2.3186,2,2.4536,0,2.8143
6,3,78,198,2.1,0.89986,2.9607,3,2.2923,0,1.4699
6,3,79,199,2.1,0.9094,2.0038,3,0.46513,1,0.3513
6,3,80,200,4.2,0.99679,2.8967,3,0.55076,0,0.57909
6,3,81,201,2.1,1.5197,2.197,3,0.50246,0,1.3906
6,3,82,202,2.1,0.94516,2.1633,3,0.49697,1,0.37215
6,3,83,203,4.2,0.93199,2.8817,3,0.4727,1,0.33742
6,3,84,204,2.1,1.0948,2.2307,3,0.47974,0,2.521
6,3,85,205,4.2,1.0741,2.9697,3,0.60741,0,0.70831
6,3,86,206,4.2,0.96772,3.5817,3,0.47135,0,1.5051
6,3,87,207,4.2,1.146,3.5815,3,0.48195,1,1.0386
6,3,88,208,4.2,1.0919,3.4646,3,0.37056,1,0.39109
6,3,89,209,4.2,1.027,4.0632,3,0.55771,1,1.4181
6,3,90,210,2.1,1.0387,2.2132,3,0.72016,0,1.0315
7,1,1,1,2.1,1.8925,1.8651,2,4.3297,0,1.1995
7,1,2,2,2.1,1.5339,0.89131,2,2.5978,1,1.0823
7,1,3,3,2.1,0.64243,1.4525,2,2.0964,0,0.95744
7,1,4,4,2.1,0.62624,1.0476,2,2.1158,0,0.97744
7,1,5,5,2.1,0.56037,1.0501,2,1.8027,0,1.0605
7,1,6,6,2.1,1.2279,1.8468,3,1.6292,0,2.2975
7,1,7,7,2.1,0.97929,2.1303,3,1.9754,0,3.3171
7,1,8,8,2.1,0.5845,1.3891,2,1.7402,1,0.53565
7,1,9,9,2.1,0.52715,1.4321,2,1.8689,0,0.82345
7,1,10,10,2.1,0.35847,1.2959,2,1.1339,0,1.3748
7,1,11,11,2.1,2.6631,1.3937,1,1.4293,0,1.7536
7,1,12,12,2.1,3.3778,1.8639,1,1.505,0,1.8515
7,1,13,13,2.1,1.468,1.1843,2,1.3195,0,1.8277
7,1,14,14,2.1,0.71167,1.77,2,1.9731,1,1.5247
7,1,15,15,2.1,0.85465,1.9987,2,3.1151,0,0.8218
7,1,16,16,2.1,1.4076,2.0224,1,2.1888,0,0.7352
7,1,17,17,2.1,0.53513,1.5701,3,1.1861,0,0.91653
7,1,18,18,2.1,0.4915,1.4523,3,1.2854,1,0.65674
7,1,19,19,2.1,0.72612,1.6327,2,1.2382,0,0.5365
7,1,20,20,2.1,0.84785,1.5708,2,3.8643,0,2.18
7,1,21,21,2.1,0.50454,0.75114,2,1.9291,0,0.94551
7,1,22,22,2.1,0.5628,1.7712,2,5.63,0,1.3748
7,1,23,23,2.1,3.3144,1.8215,3,3.4587,0,1.4332
7,1,24,24,2.1,0.56574,2.1189,2,1.5659,1,1.8679
7,1,25,25,2.1,0.44799,1.3979,2,1.4168,0,0.80094
7,1,26,26,2.1,0.76456,2.2579,2,1.5696,1,1.1068
7,1,27,27,2.1,1.2013,1.3872,2,0.99563,0,1.3599
7,1,28,28,2.1,0.50461,1.3694,2,1.343,1,3.3753
7,1,29,29,2.1,0.50271,1.5359,2,1.8939,0,0.69765
7,1,30,30,2.1,0.64012,1.4614,2,2.1394,0,1.2323
7,1,31,31,2.1,2.0458,1.7333,2,1.4295,0,0.3412
7,1,32,32,2.1,0.54074,2.2848,2,1.7211,1,1.4345
7,1,33,33,2.1,0.91031,1.4079,2,0.82011,1,0.81581
7,1,34,34,2.1,0.69697,1.524,2,1.3928,0,0.43867
7,1,35,35,2.1,0.48417,1.4329,3,1.6999,0,0.70933
7,1,36,36,2.1,0.66259,1.5346,2,6.9898,0,1.9088
7,1,37,37,2.1,0.48522,1.7277,2,1.8111,1,0.66497
7,1,38,38,2.1,1.1802,1.5799,2,1.5278,0,1.1808
7,1,39,39,2.1,0.62871,1.5128,2,2.078,0,1.0009
7,1,40,40,2.1,0.61501,1.5779,3,2.2956,0,0.37111
7,1,41,41,2.1,1.882,1.2542,2,1.7386,0,0.53446
7,1,42,42,2.1,0.38278,1.86,1,1.9684,1,0.74355
7,1,43,43,2.1,0.37548,1.4544,2,0.98406,0,0.56646
7,1,44,44,2.1,0.5847,1.7044,2,1.355,0,0.65834
7,1,45,45,2.1,0.93082,1.1428,1,1.7553,0,0.44506
7,1,46,46,2.1,0.63828,1.3366,2,1.5338,0,0.36297
7,1,47,47,2.1,0.49459,1.4328,2,1.2839,0,0.40694
7,1,48,48,2.1,0.60448,1.4488,2,0.99023,1,0.76374
7,1,49,49,2.1,1.0257,1.3281,1,1.4813,0,0.41486
7,1,50,50,2.1,0.63994,1.7656,3,1.3716,0,0.4798
7,1,51,51,2.1,0.50097,1.8732,2,5.295,0,0.81053
7,1,52,52,2.1,0.48028,1.7501,2,2.5777,0,1.0435
7,1,53,53,2.1,0.40931,1.6223,2,1.1547,0,0.38944
7,1,54,54,2.1,0.47111,1.9993,2,3.5326,1,1.451
7,1,55,55,2.1,0.68092,3.1006,1,1.4491,1,0.56222
7,1,56,56,2.1,0.74771,1.8296,2,6.9149,0,0.69823
7,1,57,57,2.1,0.63037,1.8741,2,1.1993,1,0.27208
7,1,58,58,2.1,0.44201,1.6442,2,1.2109,0,0.65405
7,1,59,59,2.1,1.0888,1.5608,1,1.7949,1,0.92341
7,1,60,60,2.1,0.3754,1.8923,2,6.9388,0,0.8295
7,2,1,61,4.2,1.6531,3.0528,2,7.4027,0,1.4316
7,2,2,62,4.2,2.0246,3.9571,3,1.7339,0,2.9145
7,2,3,63,4.2,1.3397,3.7778,2,2.8183,0,1.608
7,2,4,64,4.2,0.75388,2.2243,1,1.5592,0,0.58376
7,2,5,65,4.2,1.0024,2.7619,2,1.1008,0,0.577
7,2,6,66,4.2,2.4286,4.2395,3,1.7542,1,2.9751
7,2,7,67,4.2,0.67705,3.1418,2,6.7659,0,0.95734
7,2,8,68,4.2,0.4665,2.7376,2,4.9182,0,0.29133
7,2,9,69,4.2,0.6121,3.3472,2,1.3481,0,0.92166
7,2,10,70,4.2,0.59636,3.5493,2,1.5974,1,0.49315
7,2,11,71,4.2,0.56454,3.0387,2,1.0713,1,0.43531
7,2,12,72,4.2,1.316,2.6394,1,1.1069,0,0.41428
7,2,13,73,4.2,0.53587,4.7318,2,1.4477,1,0.67387
7,2,14,74,4.2,0.99343,3.153,2,1.2021,0,0.45441
7,2,15,75,4.2,4.0764,3.5807,1,0.87566,0,0.61844
7,2,16,76,4.2,0.50943,3.331,2,1.4059,0,0.91873
7,2,17,77,4.2,0.5148,5.1217,1,1.6077,1,1.0334
7,2,18,78,4.2,0.58221,2.9503,2,1.28,0,0.65142
7,2,19,79,4.2,0.48717,3.35,2,1.3508,1,0.24991
7,2,20,80,4.2,0.47822,3.7738,1,2.5559,0,1.4205
7,2,21,81,4.2,0.51727,3.1539,1,1.4865,1,13.864
7,2,22,82,4.2,0.43718,2.7083,2,1.3331,0,0.3401
7,2,23,83,4.2,0.59947,2.8165,1,1.7862,0,0.29564
7,2,24,84,4.2,0.45794,3.4556,2,1.3737,1,0.4467
7,2,25,85,4.2,0.54614,2.7391,2,1.7356,0,0.34007
7,2,26,86,4.2,1.4795,1.3396,1,6.108,0,0.96692
7,2,27,87,4.2,0.46744,3.0653,2,1.35,1,0.62095
7,2,28,88,4.2,0.95868,3.9031,2,1.5618,0,0.6986
7,2,29,89,4.2,0.72614,4.9059,2,4.9584,0,0.2805
7,2,30,90,4.2,0.57234,3.0363,1,1.5635,0,0.7799
7,2,31,91,4.2,0.7908,3.5997,1,2.9817,0,0.51814
7,2,32,92,4.2,0.54659,3.067,2,1.1437,0,0.33891
7,2,33,93,4.2,0.89385,3.2189,1,1.5077,0,0.40264
7,2,34,94,4.2,0.51201,4.0894,2,1.5628,1,0.53096
7,2,35,95,4.2,0.53576,4.788,1,1.7167,1,0.60836
7,2,36,96,4.2,0.96373,4.8664,2,2.7971,1,0.99036
7,2,37,97,4.2,0.77731,3.591,2,2.1532,0,0.82254
7,2,38,98,4.2,0.4438,2.22,1,1.1841,0,0.26084
7,2,39,99,4.2,0.47409,4.3205,2,1.4821,1,0.15807
7,2,40,100,4.2,0.51907,4.2935,2,3.3105,0,0.24315
7,2,41,101,4.2,0.56779,3.1437,2,1.2564,1,1.8302
7,2,42,102,4.2,0.44753,3.0179,2,1.9891,1,0.97251
7,2,43,103,4.2,1.1043,3.595,3,1.582,0,0.2925
7,2,44,104,4.2,0.65904,4.5911,2,1.6208,0,0.35335
7,2,45,105,4.2,2.1898,3.224,2,1.2739,1,0.89873
7,2,46,106,4.2,0.52779,3.8407,2,2.4885,0,1.6561
7,2,47,107,4.2,1.0537,3.9667,1,2.767,1,0.38598
7,2,48,108,4.2,0.23196,3.1995,1,1.1941,0,0.3607
7,2,49,109,4.2,0.40173,4.1914,1,0.86815,0,0.30779
7,2,50,110,4.2,0.3734,2.9261,2,2.1439,0,0.41458
7,2,51,111,4.2,0.45163,3.2462,1,1.6621,0,1.0139
7,2,52,112,4.2,0.46569,3.3778,1,0.69388,0,0.38545
7,2,53,113,4.2,0.44618,2.8068,1,0.71241,1,0.42809
7,2,54,114,4.2,0.49445,3.1212,1,0.85607,0,0.35802
7,2,55,115,4.2,0.58597,3.7417,1,1.1727,0,0.27777
7,2,56,116,4.2,0.36173,4.3937,2,1.4323,1,0.88851
7,2,57,117,4.2,1.142,4.0271,2,1.4447,1,3.332
7,2,58,118,4.2,0.52808,3.639,1,1.4404,0,0.75111
7,2,59,119,4.2,0.1605,2.884,1,1.3824,0,0.68714
7,2,60,120,4.2,0.59277,2.6885,2,1.0966,0,0.47087
7,3,1,121,2.1,0.4181,2.7627,1,1.079,0,0.36951
7,3,2,122,2.1,0.41675,3.3118,2,1.0537,0,0.36731
7,3,3,123,2.1,0.48608,3.1127,2,1.224,0,0.50451
7,3,4,124,2.1,0.59852,3.0623,2,1.145,0,0.9263
7,3,5,125,4.2,0.35607,2.9922,2,3.9878,0,0.29155
7,3,6,126,4.2,1.7614,3.3078,2,1.6915,1,0.68408
7,3,7,127,2.1,0.4973,2.9597,2,0.69317,0,0.40735
7,3,8,128,2.1,0.9732,3.2499,2,0.95659,1,0.34749
7,3,9,129,2.1,0.5564,1.27,2,0.90634,0,0.31289
7,3,10,130,2.1,1.7004,4.2482,2,1.6623,1,0.67528
7,3,11,131,2.1,1.0273,4.322,2,1.2031,1,0.48912
7,3,12,132,4.2,0.40906,3.4669,2,1.5722,1,0.39976
7,3,13,133,4.2,1.2356,3.5373,2,1.0908,0,1.1908
7,3,14,134,2.1,0.94269,3.6586,2,1.3417,0,1.1578
7,3,15,135,4.2,0.55236,3.1112,2,1.8642,0,0.72329
7,3,16,136,4.2,0.44923,2.703,2,2.2291,0,0.94472
7,3,17,137,2.1,0.52019,1.7961,2,1.0198,0,1.7733
7,3,18,138,2.1,0.68923,2.5515,2,0.79832,1,0.33913
7,3,19,139,4.2,0.44805,3.6703,2,0.79688,1,0.58535
7,3,20,140,4.2,0.84355,2.7469,1,1.2034,0,0.52373
7,3,21,141,4.2,0.49577,3.0992,2,1.1926,1,0.58592
7,3,22,142,4.2,1.0622,4.1111,3,1.4663,0,0.57525
7,3,23,143,4.2,0.35956,3.569,2,1.0672,1,0.43021
7,3,24,144,2.1,0.62156,3.9575,2,3.0394,1,1.5886
7,3,25,145,2.1,0.84458,0.92537,1,1.5595,0,1.1909
7,3,26,146,2.1,0.72553,1.4977,2,1.0005,0,0.71229
7,3,27,147,2.1,0.43855,1.6743,2,2.2364,1,1.25
7,3,28,148,4.2,0.39207,2.8706,2,1.3747,1,0.62791
7,3,29,149,2.1,1.2016,2.3218,2,1.1401,1,0.58338
7,3,30,150,4.2,0.44302,3.8726,2,2.2392,1,0.56822
7,3,31,151,4.2,0.45069,2.4811,1,1.0986,0,0.86727
7,3,32,152,4.2,1.9396,2.6278,2,1.0549,0,0.3572
7,3,33,153,2.1,0.95934,1.5985,2,0.78592,1,0.60276
7,3,34,154,4.2,0.53143,2.6917,2,0.81575,1,0.689
7,3,35,155,4.2,0.53797,2.8211,2,1.4424,0,0.70733
7,3,36,156,2.1,3.6581,2.4884,1,1.0172,0,0.59901
7,3,37,157,2.1,0.81049,1.9599,2,1.1362,0,1.0399
7,3,38,158,2.1,0.55324,3.0787,2,1.8767,0,0.65158
7,3,39,159,2.1,0.53275,2.7814,2,2.7904,0,0.73707
7,3,40,160,4.2,0.41676,3.638,2,1.3048,1,0.6145
7,3,41,161,2.1,0.66766,1.275,2,0.97811,0,0.75734
7,3,42,162,2.1,0.54921,3.4786,2,2.2019,0,0.48508
7,3,43,163,4.2,1.1752,3.1501,2,1.2448,0,0.31825
7,3,44,164,4.2,0.41814,3.3372,2,1.2142,1,0.41622
7,3,45,165,2.1,0.73178,4.1762,1,1.949,0,0.29122
7,3,46,166,4.2,0.59555,3.1094,1,1.0857,1,0.99527
7,3,47,167,4.2,0.4446,3.1665,2,0.71576,1,0.55381
7,3,48,168,2.1,1.146,3.0076,2,1.1975,0,0.39343
7,3,49,169,4.2,2.4685,4.0444,2,5.3601,0,5.7381
7,3,50,170,2.1,0.92567,1.4749,2,1.1787,0,0.53228
7,3,51,171,4.2,0.59567,3.1446,2,1.3682,0,0.91439
7,3,52,172,2.1,0.59366,3.8626,2,1.4248,0,0.40323
7,3,53,173,2.1,0.43205,2.0726,2,1.2429,1,0.37255
7,3,54,174,2.1,1.5493,1.6593,2,2.1935,1,2.5515
7,3,55,175,4.2,0.85585,2.6971,2,1.3503,1,0.10385
7,3,56,176,4.2,1.1804,2.6481,3,1.8789,0,0.58715
7,3,57,177,4.2,0.49634,3.0994,2,0.90107,0,0.30844
7,3,58,178,2.1,1.0855,2.6818,2,0.81667,1,0.73525
7,3,59,179,2.1,0.74482,2.0065,2,1.5475,1,0.86436
7,3,60,180,2.1,0.78483,1.5803,2,0.80798,0,0.33672
7,3,61,181,4.2,0.46324,3.5625,2,1.0192,1,1.7384
7,3,62,182,4.2,0.39602,2.8629,2,0.87666,0,0.97025
7,3,63,183,4.2,0.43941,3.8349,2,1.5754,0,0.30396
7,3,64,184,2.1,0.43171,2.9842,2,1.2576,0,0.28058
7,3,65,185,2.1,0.81069,2.7604,2,4.158,0,1.5883
7,3,66,186,4.2,0.98847,3.0793,2,1.0324,1,0.1482
7,3,67,187,2.1,0.43959,1.9566,1,12.719,0,0.46559
7,3,68,188,2.1,0.39809,1.9483,2,0.89764,1,0.48465
7,3,69,189,4.2,0.36813,4.5281,2,3.8519,1,0.68753
7,3,70,190,4.2,0.47972,4.1235,2,1.2039,1,0.29933
7,3,71,191,4.2,1.0339,5.1557,2,1.5723,0,0.82682
7,3,72,192,4.2,0.32082,3.2715,1,0.60948,0,0.30557
7,3,73,193,4.2,0.44515,3.6612,2,2.0763,0,0.35803
7,3,74,194,2.1,0.71412,4.2146,2,2.1339,1,0.25823
7,3,75,195,2.1,0.85333,3.6404,2,0.98098,1,0.49502
7,3,76,196,4.2,0.47128,2.3273,2,2.5856,0,0.88811
7,3,77,197,2.1,0.54042,1.079,1,0.77475,0,0.29222
7,3,78,198,4.2,0.34381,2.4007,1,1.7098,0,0.60633
7,3,79,199,4.2,0.48836,3.1817,2,0.94466,1,0.58804
7,3,80,200,4.2,0.49817,2.9504,2,4.5432,0,0.71057
7,3,81,201,4.2,1.1278,2.521,2,1.387,1,1.2325
7,3,82,202,4.2,0.49575,3.1109,2,1.6279,1,0.35994
7,3,83,203,2.1,0.62707,5.4702,1,1.5848,1,0.36293
7,3,84,204,4.2,0.39336,4.6271,2,0.85792,1,0.17931
7,3,85,205,2.1,0.55526,3.0461,2,1.1235,0,0.26828
7,3,86,206,2.1,0.68494,1.1977,2,1.2596,0,0.30369
7,3,87,207,2.1,0.50345,1.4584,2,0.98838,0,0.46952
7,3,88,208,4.2,0.65481,3.619,3,1.5062,0,0.5471
7,3,89,209,4.2,0.95934,4.0182,2,0.70408,0,1.0315
7,3,90,210,2.1,0.35671,1.5753,2,0.8534,0,0.37756
8,1,1,1,2.1,0.48852,1.3137,2,1.2143,0,1.1585
8,1,2,2,2.1,0.46034,1.3197,2,1.0614,0,0.99297
8,1,3,3,2.1,0.42184,1.7208,2,0.83662,0,1.0302
8,1,4,4,2.1,0.56621,1.6456,2,0.91918,0,0.54498
8,1,5,5,2.1,0.66677,1.6121,2,1.504,0,0.78269
8,1,6,6,2.1,0.51731,1.9286,1,1.9017,1,0.69935
8,1,7,7,2.1,0.41727,1.3895,2,0.86314,1,1.0001
8,1,8,8,2.1,0.23457,1.9519,2,0.70001,1,0.79109
8,1,9,9,2.1,0.58709,1.7401,2,0.78426,0,0.80261
8,1,10,10,2.1,0.43802,1.5731,2,0.91939,0,2.1087
8,1,11,11,2.1,0.32742,1.9949,2,0.91183,1,0.71904
8,1,12,12,2.1,0.28415,1.8847,2,0.84515,1,0.88711
8,1,13,13,2.1,0.44073,1.4183,2,0.9591,0,0.66413
8,1,14,14,2.1,0.59976,1.4889,2,0.79509,0,0.58281
8,1,15,15,2.1,0.26922,1.2779,2,0.76182,0,0.4824
8,1,16,16,2.1,0.24689,1.4982,2,0.62905,0,0.47209
8,1,17,17,2.1,0.44479,1.6478,2,0.70736,1,3.397
8,1,18,18,2.1,0.25511,1.7433,2,1.0109,0,0.54323
8,1,19,19,2.1,0.24898,1.4785,2,1.4699,0,0.48883
8,1,20,20,2.1,0.23217,1.7827,2,0.78638,1,0.76029
8,1,21,21,2.1,0.3284,1.7825,3,0.66414,0,2.4759
8,1,22,22,2.1,0.63633,1.5148,2,0.82008,0,0.56907
8,1,23,23,2.1,0.3421,1.8575,2,0.76317,0,0.53973
8,1,24,24,2.1,0.29459,1.3676,2,1.0369,1,0.64685
8,1,25,25,2.1,0.31924,1.8189,2,1.0146,0,0.88994
8,1,26,26,2.1,0.90176,3.9867,1,1.6396,1,0.68325
8,1,27,27,2.1,0.58877,1.9225,2,1.2766,0,0.4955
8,1,28,28,2.1,0.34118,1.6564,2,1.0758,1,0.50588
8,1,29,29,2.1,0.30665,1.9806,2,0.95323,0,2.2676
8,1,30,30,2.1,0.48716,1.6956,3,1.0422,0,0.49598
8,1,31,31,2.1,0.38288,1.8836,2,1.1582,1,0.88803
8,1,32,32,2.1,0.50422,2.2932,2,1.1668,0,0.6103
8,1,33,33,2.1,0.32158,2.6866,1,2.2849,1,0.68675
8,1,34,34,2.1,0.54684,1.8188,2,0.82345,1,1.1679
8,1,35,35,2.1,0.68407,1.7938,2,1.1802,0,0.62929
8,1,36,36,2.1,0.35236,1.5259,2,0.88832,0,0.69468
8,1,37,37,2.1,0.3467,1.7391,2,0.88406,1,0.92673
8,1,38,38,2.1,0.26206,2.1546,2,0.84795,0,0.55236
8,1,39,39,2.1,0.63717,2.202,2,8.3943,0,0.27759
8,1,40,40,2.1,0.7041,1.7737,2,0.76167,1,0.58317
8,1,41,41,2.1,0.22851,1.7834,3,0.8553,0,0.53737
8,1,42,42,2.1,0.36288,1.6721,2,0.77164,0,0.49163
8,1,43,43,2.1,0.47339,1.6878,2,0.7927,1,0.46185
8,1,44,44,2.1,0.2586,1.4764,2,0.64102,1,0.66403
8,1,45,45,2.1,0.35701,1.7674,2,0.73266,1,0.39657
8,1,46,46,2.1,0.29828,1.6906,2,0.72754,0,1.5449
8,1,47,47,2.1,0.25681,2.0368,2,0.75818,0,0.48412
8,1,48,48,2.1,0.47549,1.3853,2,0.7924,1,0.67459
8,1,49,49,2.1,0.50784,1.5088,2,0.66223,1,0.65204
8,1,50,50,2.1,0.31036,1.8822,1,1.0569,1,0.51585
8,1,51,51,2.1,0.27984,1.8182,2,0.61975,1,0.42342
8,1,52,52,2.1,0.25877,1.6792,2,0.61501,0,0.66702
8,1,53,53,2.1,0.33425,1.7837,2,0.85627,0,1.3711
8,1,54,54,2.1,0.84056,1.8555,2,0.71426,1,0.38406
8,1,55,55,2.1,1.367,2.0944,2,1.9564,1,0.457
8,1,56,56,2.1,0.51517,1.9831,2,0.67409,1,0.56346
8,1,57,57,2.1,0.57267,1.2135,3,0.97806,0,0.50933
8,1,58,58,2.1,0.27857,1.6704,2,0.6567,0,0.87686
8,1,59,59,2.1,0.50733,1.8342,2,1.0249,0,2.0245
8,1,60,60,2.1,0.25909,1.6787,2,0.78366,1,0.38685
8,2,1,61,4.2,0.72911,3.7747,2,0.85721,1,0.51673
8,2,2,62,4.2,0.44693,3.5281,2,0.72612,0,0.56462
8,2,3,63,4.2,0.24011,3.1953,2,0.76187,0,0.49422
8,2,4,64,4.2,0.29247,3.9514,2,0.72715,1,0.53251
8,2,5,65,4.2,0.22801,3.8634,2,0.66137,1,0.44753
8,2,6,66,4.2,0.36485,3.6813,2,0.71811,0,1.2651
8,2,7,67,4.2,0.49626,3.6054,2,1.0579,1,0.71903
8,2,8,68,4.2,0.28646,4.2484,2,0.84158,0,0.56197
8,2,9,69,4.2,0.23999,3.2636,2,0.93242,0,0.68774
8,2,10,70,4.2,0.24564,3.1783,2,0.74969,1,0.71286
8,2,11,71,4.2,0.34188,4.1182,2,1.2384,1,0.59209
8,2,12,72,4.2,0.60585,3.835,1,1.4922,1,1.1009
8,2,13,73,4.2,0.51359,3.1911,2,0.95946,0,1.9024
8,2,14,74,4.2,0.44477,3.7066,2,1.0359,1,0.83765
8,2,15,75,4.2,0.28902,3.4421,2,1.1065,0,0.75189
8,2,16,76,4.2,0.31246,3.4033,2,0.91014,1,0.42887
8,2,17,77,4.2,0.97957,3.6721,2,0.93399,0,0.58901
8,2,18,78,4.2,0.36404,4.1308,2,0.79551,0,1.4843
8,2,19,79,4.2,0.35386,3.3846,2,0.81777,1,0.45403
8,2,20,80,4.2,0.4199,3.6537,2,0.84185,0,0.63035
8,2,21,81,4.2,0.57555,4.5475,2,0.79278,1,1.161
8,2,22,82,4.2,0.43397,3.3916,2,0.73473,1,0.47745
8,2,23,83,4.2,0.30468,4.4873,2,0.88419,1,0.49999
8,2,24,84,4.2,0.091657,3.5802,2,0.84077,1,0.59615
8,2,25,85,4.2,0.32152,3.0576,2,0.96139,0,0.55415
8,2,26,86,4.2,0.30954,3.7144,2,1.1125,0,0.57195
8,2,27,87,4.2,0.3114,4.4274,3,0.94712,0,0.54086
8,2,28,88,4.2,1.0521,3.718,2,1.7953,0,0.61915
8,2,29,89,4.2,0.5276,4.1664,2,0.85361,1,0.51329
8,2,30,90,4.2,0.75706,5.017,1,0.75075,1,0.61192
8,2,31,91,4.2,0.52833,3.4691,2,0.8869,1,0.46794
8,2,32,92,4.2,0.24252,3.3316,2,1.131,0,0.52884
8,2,33,93,4.2,0.33209,3.5146,2,0.81911,1,0.85001
8,2,34,94,4.2,0.33763,3.6542,2,1.2017,0,0.63428
8,2,35,95,4.2,0.39512,3.4484,2,0.84304,1,0.48493
8,2,36,96,4.2,0.53253,3.5137,1,1.1109,1,1.2962
8,2,37,97,4.2,0.35924,3.7134,2,0.63996,1,0.42612
8,2,38,98,4.2,0.54114,4.2523,2,1.2107,0,0.50859
8,2,39,99,4.2,0.32417,3.4769,2,0.91708,0,0.5215
8,2,40,100,4.2,0.47968,3.7297,2,0.57103,1,0.48105
8,2,41,101,4.2,0.33183,4.0647,2,0.77418,1,0.49473
8,2,42,102,4.2,0.36119,3.7392,2,0.687,1,0.50177
8,2,43,103,4.2,0.41756,4.5738,2,0.77535,0,0.57428
8,2,44,104,4.2,2.1857,3.9387,1,0.88782,0,1.0206
8,2,45,105,4.2,0.2703,2.9332,3,1.3023,1,0.57792
8,2,46,106,4.2,0.45113,4.6411,2,0.40452,1,0.78534
8,2,47,107,4.2,0.34069,4.0619,2,0.62436,0,0.51714
8,2,48,108,4.2,0.78871,4.2845,2,0.60596,1,1.1581
8,2,49,109,4.2,0.58173,2.7023,2,0.70877,0,0.59553
8,2,50,110,4.2,0.5005,4.4366,2,0.85733,0,0.60681
8,2,51,111,4.2,0.40342,3.3837,2,0.66469,1,0.56368
8,2,52,112,4.2,0.64166,4.6355,1,0.67512,1,0.51748
8,2,53,113,4.2,0.38188,2.8496,2,0.79495,0,0.49388
8,2,54,114,4.2,0.74925,4.424,2,0.58465,1,0.51181
8,2,55,115,4.2,0.30183,3.8997,2,0.73139,1,0.55175
8,2,56,116,4.2,0.456,3.7236,2,1.0026,0,0.50066
8,2,57,117,4.2,0.50707,3.3308,2,0.87515,1,0.47391
8,2,58,118,4.2,0.27127,3.3734,2,0.80161,1,1.1637
8,2,59,119,4.2,0.62813,5.5953,2,1.2615,0,0.57634
8,2,60,120,4.2,0.36584,4.6388,2,1.0103,1,0.67555
8,3,1,121,2.1,0.77657,1.644,2,0.78873,1,0.84064
8,3,2,122,4.2,0.35953,3.6812,2,0.71883,1,0.52439
8,3,3,123,2.1,0.55337,2.0775,2,0.80971,1,0.60906
8,3,4,124,2.1,0.48314,1.9961,3,0.85061,0,0.53246
8,3,5,125,2.1,0.28356,2.1422,2,0.67193,0,0.51586
8,3,6,126,4.2,0.30495,4.274,2,1.249,1,0.27025
8,3,7,127,2.1,0.30622,2.3168,2,0.47233,1,0.48289
8,3,8,128,4.2,0.42035,4.34,1,0.65172,1,0.433
8,3,9,129,4.2,0.28871,3.9368,2,0.70669,1,0.6283
8,3,10,130,4.2,0.31784,2.3226,1,2.2672,0,0.51693
8,3,11,131,4.2,0.53626,3.4838,2,1.2479,1,0.87938
8,3,12,132,2.1,0.57781,1.8158,2,0.80892,1,0.93409
8,3,13,133,4.2,1.0997,4.3108,2,1.0053,1,0.46915
8,3,14,134,2.1,0.66538,1.9264,2,0.85301,1,0.6368
8,3,15,135,4.2,0.39262,4.6585,2,0.71014,1,0.50946
8,3,16,136,2.1,0.6365,2.6962,2,0.66299,1,0.51722
8,3,17,137,2.1,0.32973,2.7748,2,0.70244,1,0.49055
8,3,18,138,2.1,0.32078,2.5404,2,0.57827,0,0.89945
8,3,19,139,4.2,0.28648,4.4067,1,1.4059,1,1.166
8,3,20,140,4.2,0.35472,3.8907,2,0.67646,1,0.53186
8,3,21,141,2.1,0.60864,1.8902,2,0.84043,1,0.53897
8,3,22,142,4.2,0.40897,4.1639,2,0.78443,1,0.55648
8,3,23,143,4.2,0.39859,4.492,2,0.69824,1,0.46247
8,3,24,144,2.1,0.65519,1.8543,2,0.58942,1,0.41583
8,3,25,145,4.2,0.40872,4.2648,2,0.79607,1,0.70804
8,3,26,146,2.1,0.75815,1.676,2,0.68538,1,0.45567
8,3,27,147,4.2,0.61815,3.4817,2,0.6744,1,0.64136
8,3,28,148,2.1,0.46066,3.075,2,0.96169,1,0.41952
8,3,29,149,2.1,0.46302,2.1663,2,0.79771,0,1.1268
8,3,30,150,2.1,0.52256,2.2043,2,1.1393,1,0.44692
8,3,31,151,4.2,0.5384,3.7895,2,0.76593,1,0.52041
8,3,32,152,2.1,0.53129,2.3645,2,0.86357,1,0.51772
8,3,33,153,4.2,0.36123,4.3471,2,0.67055,1,0.43488
8,3,34,154,4.2,0.56978,4.3156,2,0.64931,1,0.5204
8,3,35,155,2.1,0.7195,2.0211,2,0.82605,0,0.55167
8,3,36,156,4.2,0.31366,2.9721,2,0.98115,1,0.46299
8,3,37,157,2.1,0.60423,2.022,2,0.74779,0,0.56445
8,3,38,158,4.2,0.342,3.95,2,0.76501,1,0.41811
8,3,39,159,4.2,0.45042,5.6298,1,0.69879,1,0.46468
8,3,40,160,2.1,1.806,2.1994,2,1.0223,1,0.50399
8,3,41,161,4.2,0.40462,3.9922,2,0.75638,1,0.42552
8,3,42,162,2.1,0.47891,2.1092,2,0.61601,1,0.54341
8,3,43,163,4.2,0.33804,3.5425,2,0.86945,1,0.44522
8,3,44,164,4.2,0.38071,4.0629,2,0.71553,1,0.8577
8,3,45,165,2.1,0.51098,1.9955,2,0.79423,1,0.67795
8,3,46,166,2.1,0.34059,1.5753,2,0.82132,0,0.54686
8,3,47,167,4.2,0.35022,3.7072,2,0.78871,0,0.4938
8,3,48,168,4.2,0.22452,5.2552,1,0.88995,1,0.48255
8,3,49,169,4.2,0.32711,1.5005,1,1.8469,0,0.89187
8,3,50,170,2.1,0.58061,1.8622,1,1.385,0,1.8945
8,3,51,171,4.2,0.34057,4.7267,2,0.46246,1,0.42833
8,3,52,172,4.2,0.3781,3.6393,2,0.665,1,0.44061
8,3,53,173,4.2,0.33927,4.4213,2,0.62667,1,0.44195
8,3,54,174,4.2,0.78943,4.5217,2,0.63808,1,0.85146
8,3,55,175,4.2,0.31902,3.4719,2,0.72087,1,0.48012
8,3,56,176,2.1,0.55365,1.7066,2,0.64863,1,0.41871
8,3,57,177,2.1,0.43725,2.068,2,0.61938,1,0.41114
8,3,58,178,4.2,0.32281,3.7009,2,0.61413,1,0.40793
8,3,59,179,4.2,0.61965,3.4834,2,0.61848,0,0.51298
8,3,60,180,4.2,0.26763,2.5711,2,0.68875,1,0.40359
8,3,61,181,4.2,0.35873,3.522,2,0.8344,0,0.48754
8,3,62,182,4.2,0.32516,3.6469,2,0.62839,0,0.49322
8,3,63,183,2.1,0.41452,2.14,2,0.6246,1,0.38257
8,3,64,184,2.1,0.38619,2.0885,2,0.61158,1,0.43832
8,3,65,185,4.2,0.42947,4.3822,2,0.7285,0,0.62864
8,3,66,186,4.2,0.39077,7.3694,1,0.71175,1,0.5504
8,3,67,187,2.1,0.48758,2.1014,2,0.76693,0,0.48659
8,3,68,188,2.1,0.64286,2.4431,2,0.75129,1,0.60204
8,3,69,189,2.1,0.59738,2.201,2,0.7089,1,1.0466
8,3,70,190,2.1,0.92053,2.8422,2,0.95142,1,0.49893
8,3,71,191,2.1,0.28082,2.2405,2,0.62574,1,0.39556
8,3,72,192,4.2,0.35034,4.5613,2,0.89346,1,0.72071
8,3,73,193,4.2,0.26784,3.3256,2,0.76953,0,0.72641
8,3,74,194,4.2,0.25386,3.9011,2,0.72154,0,0.42384
8,3,75,195,4.2,0.36293,4.788,2,0.7614,0,0.51037
8,3,76,196,2.1,0.57683,2.1633,3,0.71019,1,1.3645
8,3,77,197,2.1,0.39037,2.2949,2,0.71886,1,0.45567
8,3,78,198,2.1,0.58162,2.2526,2,2.4092,1,0.34467
8,3,79,199,2.1,0.45911,4.2537,1,3.3511,1,0.90188
8,3,80,200,2.1,0.34237,2.3988,2,0.61625,1,0.39784
8,3,81,201,2.1,0.34236,2.297,2,0.71723,1,0.49875
8,3,82,202,2.1,0.32656,2.4007,2,0.73032,1,0.40518
8,3,83,203,2.1,0.44064,2.1051,2,0.83699,0,0.62585
8,3,84,204,4.2,1.2506,4.9874,2,0.68466,0,0.61463
8,3,85,205,2.1,0.4441,1.9508,2,0.70956,0,0.50624
8,3,86,206,4.2,0.27916,3.2916,2,0.65655,1,0.47165
8,3,87,207,2.1,1.8972,2.6794,3,1.0239,0,0.52819
8,3,88,208,4.2,0.31006,5.2693,2,0.76324,1,0.55158
8,3,89,209,2.1,0.49525,1.6705,2,0.73607,0,0.53442
8,3,90,210,2.1,0.495,2.4564,2,0.7479,0,0.50774
9,1,1,1,2.1,1.6614,2.7689,2,1.7661,1,1.5298
9,1,2,2,2.1,0.85549,2.1914,2,4.9795,1,5.6749
9,1,3,3,2.1,1.0606,2.3872,2,3.0636,0,1.3154
9,1,4,4,2.1,0.9804,1.8154,1,2.8919,1,0.98443
9,1,5,5,2.1,0.93967,1.7316,3,9.898,1,1.8982
9,1,6,6,2.1,0.83623,1.9533,2,1.8706,0,1.5335
9,1,7,7,2.1,0.85165,1.963,2,3.2073,1,1.3655
9,1,8,8,2.1,0.80279,2.0202,3,3.57,0,2.0566
9,1,9,9,2.1,0.88213,2.027,2,6.7819,1,1.4528
9,1,10,10,2.1,0.98304,1.8141,2,2.7646,0,1.2946
9,1,11,11,2.1,0.74131,2.3514,2,1.5307,1,0.94351
9,1,12,12,2.1,0.69619,2.481,2,2.7073,0,1.1409
9,1,13,13,2.1,0.76302,2.1649,1,4.5091,1,1.1035
9,1,14,14,2.1,0.70789,1.9132,2,4.0809,0,1.492
9,1,15,15,2.1,0.89057,1.6197,2,2.3105,1,1.8653
9,1,16,16,2.1,0.67243,2.1139,2,2.6292,0,0.96617
9,1,17,17,2.1,0.72586,1.8133,2,1.415,1,0.91082
9,1,18,18,2.1,0.98337,2.2416,2,1.886,1,0.99242
9,1,19,19,2.1,0.71447,2.0762,3,4.0932,0,2.1639
9,1,20,20,2.1,0.78899,2.439,2,2.5247,0,2.402
9,1,21,21,2.1,0.5827,2.4221,2,3.0191,0,1.0006
9,1,22,22,2.1,0.78297,2.7144,2,1.3052,1,0.94155
9,1,23,23,2.1,0.65776,2.172,1,2.6032,1,0.95681
9,1,24,24,2.1,0.65221,2.5043,2,1.5318,1,0.96746
9,1,25,25,2.1,0.67085,2.3035,1,2.3752,1,0.42463
9,1,26,26,2.1,0.56606,1.8362,3,1.9502,1,1.3843
9,1,27,27,2.1,0.73575,1.7719,2,4.6073,1,2.5411
9,1,28,28,2.1,0.40912,1.712,3,3.4281,0,1.0988
9,1,29,29,2.1,0.52636,1.8359,3,3.2446,0,4.451
9,1,30,30,2.1,0.48619,1.7623,3,2.6334,1,1.9507
9,1,31,31,2.1,0.66233,2.3778,2,2.4961,0,0.79889
9,1,32,32,2.1,0.75765,2.4416,2,1.6933,1,0.55097
9,1,33,33,2.1,0.70434,1.5487,2,2.1039,0,1.1059
9,1,34,34,2.1,0.65733,2.2954,2,2.8232,1,0.84734
9,1,35,35,2.1,0.61173,2.0633,3,4.2033,1,0.65403
9,1,36,36,2.1,0.67088,2.0213,2,6.3382,0,3.5865
9,1,37,37,2.1,0.45831,1.7344,2,2.86,1,0.78351
9,1,38,38,2.1,0.57247,2.1817,2,1.4482,1,0.41577
9,1,39,39,2.1,0.5694,2.0657,2,2.3718,1,0.66824
9,1,40,40,2.1,0.72002,2.5386,2,2.3656,1,0.3528
9,1,41,41,2.1,0.68904,2.1254,1,2.1117,1,0.84292
9,1,42,42,2.1,0.64115,2.1162,2,1.2359,1,0.42134
9,1,43,43,2.1,0.53746,2.1344,2,4.7368,0,1.6759
9,1,44,44,2.1,0.49899,2.2534,2,1.3861,1,0.80308
9,1,45,45,2.1,0.6143,3.101,1,2.6186,1,0.6403
9,1,46,46,2.1,0.46504,2.5907,2,2.2214,1,0.81407
9,1,47,47,2.1,0.7123,1.8387,1,1.6484,1,0.77489
9,1,48,48,2.1,0.60363,1.8311,2,2.3035,1,0.8349
9,1,49,49,2.1,0.61482,2.4319,2,4.0351,0,1.3277
9,1,50,50,2.1,0.62972,2.6038,2,1.8817,1,0.9763
9,1,51,51,2.1,0.74553,2.4571,2,1.3549,1,0.96382
9,1,52,52,2.1,0.63779,2.1916,2,1.312,1,0.64386
9,1,53,53,2.1,0.47821,2.6157,2,3.641,1,1.589
9,1,54,54,2.1,0.55318,2.0325,2,1.8432,0,1.4965
9,1,55,55,2.1,0.55232,2.2457,2,1.5404,1,4.7449
9,1,56,56,2.1,0.43155,1.9827,3,1.5069,1,2.145
9,1,57,57,2.1,0.61623,1.9493,2,1.9451,1,1.0249
9,1,58,58,2.1,0.45172,2.1547,2,2.8059,0,1.0261
9,1,59,59,2.1,0.35509,1.9228,2,4.3495,1,1.9766
9,1,60,60,2.1,0.46473,2.1627,3,2.5531,0,2.3644
9,2,1,61,4.2,0.72945,3.796,2,1.6951,1,1.2604
9,2,2,62,4.2,0.87907,4.1553,2,4.331,0,0.88381
9,2,3,63,4.2,1.3995,3.7299,3,3.0796,1,0.63948
9,2,4,64,4.2,0.57356,4.5233,2,2.6085,1,0.75995
9,2,5,65,4.2,0.71384,2.9984,3,2.216,0,0.98883
9,2,6,66,4.2,0.73066,4.3595,2,1.9945,1,1.0237
9,2,7,67,4.2,0.6428,3.4769,2,2.8653,1,0.56246
9,2,8,68,4.2,0.68856,3.0793,2,6.6026,1,1.9294
9,2,9,69,4.2,0.61814,3.4704,3,3.3515,0,2.354
9,2,10,70,4.2,0.68757,4.1709,2,1.9545,1,0.52275
9,2,11,71,4.2,0.70934,3.5796,2,2.8657,1,1.0254
9,2,12,72,4.2,0.68995,3.9482,1,2.7987,1,0.9686
9,2,13,73,4.2,0.74489,3.3904,2,2.5902,1,0.74688
9,2,14,74,4.2,0.6903,4.2189,1,1.7398,1,0.7713
9,2,15,75,4.2,0.66481,4.3233,2,2.058,1,1.3235
9,2,16,76,4.2,0.65355,4.8677,1,1.8658,1,0.61709
9,2,17,77,4.2,0.70992,4.5691,2,3.3195,0,1.1922
9,2,18,78,4.2,0.6757,4.3557,2,2.3501,1,0.59506
9,2,19,79,4.2,0.42328,3.2501,2,4.8226,0,0.97074
9,2,20,80,4.2,0.63199,3.2983,2,1.3389,1,0.68149
9,2,21,81,4.2,0.66387,4.0457,2,1.5918,1,0.41439
9,2,22,82,4.2,0.61562,4.5139,2,2.0643,0,2.591
9,2,23,83,4.2,0.67365,3.7912,2,3.2651,1,0.64167
9,2,24,84,4.2,0.65506,5.4316,1,3.0201,1,0.60662
9,2,25,85,4.2,0.63256,4.6614,1,4.5479,0,1.0974
9,2,26,86,4.2,0.60754,3.5769,2,2.3013,1,0.55056
9,2,27,87,4.2,0.71077,6.1132,2,3.0377,1,0.57524
9,2,28,88,4.2,0.67381,4.3978,2,2.7752,0,3.1904
9,2,29,89,4.2,0.69499,5.3145,2,2.6593,1,0.92909
9,2,30,90,4.2,0.68782,3.2371,2,2.498,1,0.96879
9,2,31,91,4.2,0.67512,3.7919,2,2.6253,0,0.88339
9,2,32,92,4.2,0.66477,5.0872,2,1.5519,1,0.5777
9,2,33,93,4.2,0.64148,3.5556,2,2.9254,0,1.3223
9,2,34,94,4.2,0.85115,2.5009,2,3.2177,1,0.94679
9,2,35,95,4.2,0.56542,4.6831,2,3.9118,1,1.187
9,2,36,96,4.2,1.2183,5.6505,2,2.6955,0,1.8436
9,2,37,97,4.2,0.5799,3.459,2,2.3448,1,0.42703
9,2,38,98,4.2,0.577,3.3779,2,1.5138,1,0.57269
9,2,39,99,4.2,0.40699,3.2517,2,3.452,0,0.84702
9,2,40,100,4.2,0.6669,4.605,1,2.247,1,0.68723
9,2,41,101,4.2,0.51386,5.9808,1,3.231,1,1.2141
9,2,42,102,4.2,0.78852,3.5872,2,1.5171,1,0.36252
9,2,43,103,4.2,0.66589,5.2018,2,1.2227,0,1.2355
9,2,44,104,4.2,0.52344,4.9163,2,3.9222,0,2.2043
9,2,45,105,4.2,0.7033,5.2493,2,1.761,0,1.0126
9,2,46,106,4.2,0.4447,4.899,2,1.2893,1,0.78346
9,2,47,107,4.2,0.66549,2.8149,2,1.8851,1,0.53087
9,2,48,108,4.2,0.54273,3.6687,3,3.9693,0,3.6588
9,2,49,109,4.2,0.63257,4.9536,2,1.8446,0,2.206
9,2,50,110,4.2,1.5962,4.4444,2,3.0538,0,1.9917
9,2,51,111,4.2,1.1907,4.0263,2,3.2204,0,3.2853
9,2,52,112,4.2,0.48344,3.6275,2,1.6591,1,0.46007
9,2,53,113,4.2,0.88439,5.7309,1,3.1191,1,0.71889
9,2,54,114,4.2,0.60396,6.6462,1,2.1809,1,1.2858
9,2,55,115,4.2,0.6267,3.5802,2,2.4839,0,1.1351
9,2,56,116,4.2,0.70863,3.4428,2,2.761,1,1.1342
9,2,57,117,4.2,0.56452,5.5377,2,2.6424,1,0.76081
9,2,58,118,4.2,0.71527,4.6832,2,0.91839,1,0.9726
9,2,59,119,4.2,0.84926,5.3355,1,1.3587,1,0.82066
9,2,60,120,4.2,0.98491,4.2687,1,3.0142,0,1.6776
9,3,1,121,2.1,0.64565,1.8276,2,1.7547,1,0.86064
9,3,2,122,4.2,0.66437,4.4448,2,1.9057,1,0.76013
9,3,3,123,4.2,0.43428,4.5847,2,1.7311,1,1.0339
9,3,4,124,4.2,0.57017,4.2829,2,4.4977,1,1.4468
9,3,5,125,4.2,0.90416,3.5055,2,3.8491,0,0.97713
9,3,6,126,2.1,0.69384,1.9834,3,3.1837,0,1.409
9,3,7,127,4.2,0.805,5.2165,2,3.394,1,1.7503
9,3,8,128,4.2,1.514,5.2798,1,1.8479,1,1.6473
9,3,9,129,2.1,2.1805,2.9486,2,3.2471,0,1.1017
9,3,10,130,2.1,0.79901,2.7016,2,2.3961,0,2.5766
9,3,11,131,2.1,0.90862,1.294,2,2.2681,0,1.125
9,3,12,132,4.2,0.74998,4.9874,2,2.1938,1,1.169
9,3,13,133,4.2,0.65264,4.4397,2,2.2603,0,1.4937
9,3,14,134,4.2,0.66759,3.5155,2,1.8105,0,1.113
9,3,15,135,4.2,0.4883,5.4543,2,1.709,0,0.46001
9,3,16,136,4.2,0.85952,4.1416,1,2.0935,1,1.2138
9,3,17,137,4.2,1.2674,5.2337,2,1.8189,0,1.7352
9,3,18,138,2.1,1.0446,2.6017,2,1.8009,0,2.3975
9,3,19,139,4.2,0.49137,3.0278,2,1.582,1,1.3163
9,3,20,140,4.2,0.71619,6.8543,2,2.4698,1,1.9376
9,3,21,141,4.2,1.0187,6.4055,2,3.1705,0,1.4966
9,3,22,142,2.1,0.64443,2.0966,3,2.2693,0,0.72129
9,3,23,143,4.2,0.67876,3.3462,2,1.7409,0,0.96413
9,3,24,144,2.1,0.67328,2.35,2,1.4848,0,0.47509
9,3,25,145,4.2,1.2113,4.1087,3,3.7716,0,0.57224
9,3,26,146,4.2,0.66007,4.389,2,2.249,0,1.9904
9,3,27,147,2.1,0.57343,2.5195,2,1.418,1,1.9604
9,3,28,148,2.1,0.76201,1.972,2,1.5803,1,0.63462
9,3,29,149,2.1,0.57624,2.3754,3,2.7427,0,1.2779
9,3,30,150,2.1,0.69424,1.8828,2,2.2947,0,1.3262
9,3,31,151,2.1,0.59063,2.3741,3,1.4243,1,0.71775
9,3,32,152,2.1,0.42574,2.2399,2,1.2782,1,0.4863
9,3,33,153,4.2,0.62016,3.5741,2,1.2956,0,1.4431
9,3,34,154,2.1,0.53861,2.2487,2,1.3815,0,0.65257
9,3,35,155,2.1,0.57688,1.7358,2,1.6457,1,1.0028
9,3,36,156,2.1,0.3933,2.2532,2,1.4763,1,0.40497
9,3,37,157,2.1,0.48088,1.5546,3,3.6507,1,0.5286
9,3,38,158,2.1,0.5399,2.5537,2,2.2959,0,1.7004
9,3,39,159,2.1,0.76725,2.5907,2,1.209,1,0.59683
9,3,40,160,2.1,0.67584,2.9607,1,2.7307,1,0.75399
9,3,41,161,4.2,0.60645,4.0377,2,1.8769,1,0.89993
9,3,42,162,2.1,0.62949,2.2219,2,1.5676,1,0.80143
9,3,43,163,4.2,0.74404,5.583,1,2.6828,1,0.62251
9,3,44,164,4.2,0.77847,3.4914,2,1.6796,0,1.037
9,3,45,165,4.2,0.6009,4.5054,2,3.5295,1,1.1666
9,3,46,166,4.2,0.70657,4.2848,2,1.778,1,1.3839
9,3,47,167,2.1,0.5664,1.9497,2,1.3278,1,0.63161
9,3,48,168,4.2,0.59145,4.1305,2,1.9873,1,0.56616
9,3,49,169,2.1,0.59182,2.0938,3,2.6314,1,0.57411
9,3,50,170,2.1,0.51488,1.9367,3,1.6691,1,0.71227
9,3,51,171,2.1,0.69248,2.612,2,1.4153,1,0.99073
9,3,52,172,2.1,0.65557,2.2486,2,1.3929,0,0.75308
9,3,53,173,4.2,0.67383,5.1078,2,2.564,1,1.1361
9,3,54,174,4.2,0.67718,4.9412,2,1.5288,1,0.54252
9,3,55,175,4.2,0.6899,5.6915,1,1.5276,1,0.66301
9,3,56,176,4.2,0.76254,6.068,2,2.8639,1,1.1243
9,3,57,177,4.2,0.59829,2.8035,2,1.914,1,0.39681
9,3,58,178,2.1,0.54186,2.6109,2,2.4726,1,1.0965
9,3,59,179,2.1,0.61699,2.0187,2,2.2514,1,0.57413
9,3,60,180,4.2,0.60854,3.9157,2,2.4279,0,1.6987
9,3,61,181,2.1,0.53721,1.7418,3,2.3935,0,0.999
9,3,62,182,2.1,0.36369,1.9821,2,1.2243,1,0.84273
9,3,63,183,4.2,0.75311,3.246,2,2.1813,0,0.64373
9,3,64,184,4.2,0.73301,3.8729,2,1.6208,1,0.62289
9,3,65,185,2.1,0.67585,2.3646,2,1.7629,0,0.60957
9,3,66,186,2.1,0.64896,1.8808,3,2.1701,1,0.56443
9,3,67,187,4.2,0.53948,4.7131,2,1.9509,1,0.87845
9,3,68,188,2.1,0.87206,2.8776,2,1.7856,1,0.75661
9,3,69,189,4.2,0.54743,3.4891,2,1.8116,1,0.86643
9,3,70,190,4.2,0.65715,4.3759,2,2.24,0,0.70325
9,3,71,191,2.1,0.60741,2.2382,2,2.5132,1,1.0128
9,3,72,192,2.1,0.55578,1.7767,2,1.7548,0,1.9174
9,3,73,193,2.1,0.69063,2.6104,3,2.663,1,0.92271
9,3,74,194,4.2,0.62554,3.0281,2,3.3486,0,2.498
9,3,75,195,4.2,0.62224,3.4073,2,1.9037,1,1.3657
9,3,76,196,2.1,0.55189,2.5713,2,1.5891,0,1.0083
9,3,77,197,2.1,0.85084,2.603,3,2.3401,0,1.8626
9,3,78,198,2.1,0.60895,2.7015,2,3.7565,1,1.5432
9,3,79,199,4.2,0.5939,4.0985,1,3.5291,0,1.4137
9,3,80,200,2.1,0.58465,2.008,3,2.4836,0,3.3509
9,3,81,201,4.2,0.49848,3.5911,2,1.9045,1,0.81432
9,3,82,202,2.1,0.51995,2.5391,2,2.006,1,0.64755
9,3,83,203,4.2,0.66408,4.0003,1,2.9131,1,2.114
9,3,84,204,4.2,1.4191,4.3688,2,1.575,1,0.44863
9,3,85,205,2.1,1.3469,2.4897,2,2.2218,0,1.7258
9,3,86,206,2.1,0.64164,2.0493,3,2.552,0,2.7003
9,3,87,207,4.2,0.61611,3.6034,2,1.6858,1,0.65564
9,3,88,208,4.2,0.6624,4.8207,2,1.739,1,0.58024
9,3,89,209,4.2,1.4351,5.381,1,1.8719,1,0.73615
9,3,90,210,2.1,0.92624,2.0947,3,3.5098,1,1.3431
10,1,1,1,2.1,0.69867,2.5676,3,1.8391,0,1.8211
10,1,2,2,2.1,0.6741,2.4253,2,1.9099,1,2.7748
10,1,3,3,2.1,1.3251,2.5385,3,1.4922,0,2.2261
10,1,4,4,2.1,0.69945,2.2803,2,1.4358,1,2.932
10,1,5,5,2.1,0.81881,2.7461,3,2.4504,0,2.4759
10,1,6,6,2.1,0.83301,2.4939,2,1.2486,1,2.4533
10,1,7,7,2.1,0.73962,3.2258,2,1.5574,1,0.89932
10,1,8,8,2.1,0.56355,2.3694,2,1.2921,0,0.87619
10,1,9,9,2.1,0.54847,2.243,2,1.7111,0,2.1513
10,1,10,10,2.1,0.36886,1.9845,2,1.1672,1,1.3552
10,1,11,11,2.1,0.28584,2.6594,2,3.3479,1,1.8752
10,1,12,12,2.1,1.88,2.5903,3,1.1336,1,1.5803
10,1,13,13,2.1,1.6498,2.0315,2,1.4258,1,0.98857
10,1,14,14,2.1,1.3605,1.9026,3,2.805,0,1.5174
10,1,15,15,2.1,0.86878,2.4203,1,1.7803,1,1.6414
10,1,16,16,2.1,0.87781,4.2416,2,1.1286,0,3.0922
10,1,17,17,2.1,0.60839,2.5515,2,1.3397,1,1.5862
10,1,18,18,2.1,0.54958,2.1426,2,1.3495,1,1.0791
10,1,19,19,2.1,0.84264,2.6899,3,1.0571,0,3.5373
10,1,20,20,2.1,1.8867,2.2319,3,0.94908,1,3.9551
10,1,21,21,2.1,0.27661,2.2304,3,0.97847,0,1.8168
10,1,22,22,2.1,0.68203,3.2802,3,1.1868,1,0.80801
10,1,23,23,2.1,0.31969,2.8977,3,1.7896,0,1.4214
10,1,24,24,2.1,0.83873,2.9359,3,0.86435,1,2.3411
10,1,25,25,2.1,0.79324,2.678,3,1.2863,1,0.58251
10,1,26,26,2.1,0.1971,3.2425,2,1.4576,1,0.66161
10,1,27,27,2.1,0.35623,1.9884,3,1.021,0,1.2847
10,1,28,28,2.1,0.14429,3.1306,3,1.4876,1,1.2089
10,1,29,29,2.1,0.64709,3.1945,2,1.5476,1,0.51348
10,1,30,30,2.1,0.64227,2.6525,2,1.3532,0,1.3079
10,1,31,31,2.1,0.73922,2.4121,2,1.176,1,1.0763
10,1,32,32,2.1,0.77215,2.8862,3,1.44,0,0.61162
10,1,33,33,2.1,0.76031,2.3406,3,1.5843,0,0.39254
10,1,34,34,2.1,0.49212,2.5279,2,1.012,1,1.426
10,1,35,35,2.1,0.61429,3.4907,3,3.8676,1,0.40174
10,1,36,36,2.1,0.5641,2.8297,3,2.3123,0,3.2017
10,1,37,37,2.1,0.54521,2.43,2,1.6886,0,0.85996
10,1,38,38,2.1,0.91617,2.4178,3,1.5651,0,2.4518
10,1,39,39,2.1,0.50859,3.3152,2,1.3263,1,0.42578
10,1,40,40,2.1,0.55335,2.2849,2,1.4408,0,0.31232
10,1,41,41,2.1,0.44904,2.6425,2,1.2852,0,0.4189
10,1,42,42,2.1,0.70089,2.232,2,1.3128,0,0.50102
10,1,43,43,2.1,0.60608,4.075,2,1.4172,1,1.1542
10,1,44,44,2.1,0.47106,3.1238,1,2.7062,0,3.9687
10,1,45,45,2.1,0.6745,2.7132,2,1.5637,0,1.3884
10,1,46,46,2.1,0.35231,3.7715,2,1.9891,1,0.28371
10,1,47,47,2.1,0.52815,2.4316,2,1.2236,0,0.89963
10,1,48,48,2.1,0.93877,2.2365,2,1.0674,0,0.78048
10,1,49,49,2.1,0.53546,2.5344,2,1.9149,1,2.0509
10,1,50,50,2.1,0.69439,2.543,3,1.2851,0,0.94313
10,1,51,51,2.1,0.47425,2.6655,3,1.4489,0,1.6657
10,1,52,52,2.1,0.46012,2.7172,2,1.8638,1,0.25359
10,1,53,53,2.1,0.52047,2.6724,2,2.8443,1,0.37366
10,1,54,54,2.1,0.54906,2.6937,2,1.2846,1,1.256
10,1,55,55,2.1,0.082174,3.145,3,1.4109,1,0.51298
10,1,56,56,2.1,0.27122,3.3124,3,2.9357,0,1.1773
10,1,57,57,2.1,1.3153,2.6446,3,1.3376,1,0.78333
10,1,58,58,2.1,0.061158,2.6325,3,1.7234,0,1.4978
10,1,59,59,2.1,0.20734,2.8526,3,1.4025,1,1.4693
10,1,60,60,2.1,0.22243,2.8893,2,3.2677,1,1.216
10,2,1,61,4.2,0.63706,4.3602,2,1.2178,0,2.0809
10,2,2,62,4.2,0.80231,4.6213,3,1.9492,1,2.4143
10,2,3,63,4.2,0.5222,3.9749,3,1.4669,1,0.90437
10,2,4,64,4.2,0.34922,3.9564,2,1.6399,0,1.1107
10,2,5,65,4.2,0.38473,4.0092,2,1.5303,0,0.71318
10,2,6,66,4.2,0.37194,4.6124,2,1.3442,1,0.50223
10,2,7,67,4.2,0.33623,3.5736,2,1.3665,1,0.44194
10,2,8,68,4.2,0.41938,4.2468,2,1.2837,0,0.63036
10,2,9,69,4.2,0.54737,4.867,2,1.2354,1,1.2695
10,2,10,70,4.2,0.65163,4.5711,2,2.3117,0,2.4626
10,2,11,71,4.2,0.54049,3.4513,2,1.4111,1,0.61452
10,2,12,72,4.2,0.56595,4.0446,2,1.1575,0,0.52397
10,2,13,73,4.2,0.52052,4.0475,3,1.3366,1,1.0067
10,2,14,74,4.2,0.66955,3.7839,1,1.113,1,2.977
10,2,15,75,4.2,0.58809,3.1491,2,1.2483,0,0.81498
10,2,16,76,4.2,0.78221,3.742,2,2.3936,1,2.0988
10,2,17,77,4.2,0.4819,4.6798,2,1.3959,1,0.57871
10,2,18,78,4.2,0.35889,4.6779,3,3.1561,0,1.2058
10,2,19,79,4.2,0.66878,4.6712,2,1.9359,1,2.0552
10,2,20,80,4.2,0.35939,4.6406,3,1.5402,0,2.5353
10,2,21,81,4.2,0.48279,3.8439,2,1.9204,0,0.38066
10,2,22,82,4.2,0.42348,3.6028,2,1.1995,0,0.25365
10,2,23,83,4.2,0.3849,3.4833,2,1.0385,0,0.24899
10,2,24,84,4.2,0.46481,3.9927,3,3.0185,1,1.8383
10,2,25,85,4.2,0.756,4.1009,2,0.98683,1,1.46
10,2,26,86,4.2,0.68262,4.793,3,1.8545,1,0.15658
10,2,27,87,4.2,0.95525,4.1226,3,2.2274,0,1.6242
10,2,28,88,4.2,0.22664,3.9918,3,1.1057,0,1.2725
10,2,29,89,4.2,0.44381,4.2046,2,2.2757,0,0.84798
10,2,30,90,4.2,0.9993,4.629,3,1.4071,1,0.19945
10,2,31,91,4.2,0.56415,3.8667,1,1.6642,0,3.1005
10,2,32,92,4.2,0.4566,3.8883,2,0.77741,0,0.9539
10,2,33,93,4.2,0.7377,5.4235,2,1.448,1,0.22757
10,2,34,94,4.2,0.63338,4.7448,2,1.4048,1,0.11016
10,2,35,95,4.2,0.56032,4.5036,3,2.7642,1,0.20386
10,2,36,96,4.2,0.48382,3.4954,3,2.1221,1,0.54478
10,2,37,97,4.2,0.64623,4.8939,2,1.3422,1,1.2632
10,2,38,98,4.2,0.49855,3.9672,3,3.1387,1,1.692
10,2,39,99,4.2,0.71877,3.8342,3,1.2639,0,1.5892
10,2,40,100,4.2,0.78319,4.219,3,1.1359,1,1.5566
10,2,41,101,4.2,0.60998,4.2912,2,2.4782,1,1.1246
10,2,42,102,4.2,0.72323,4.4511,2,1.3621,1,0.5034
10,2,43,103,4.2,0.67509,3.8899,3,1.1402,1,0.87438
10,2,44,104,4.2,0.5046,4.4858,3,1.3267,1,0.50213
10,2,45,105,4.2,0.54651,2.9199,2,1.415,0,0.63943
10,2,46,106,4.2,0.63255,3.505,3,1.2403,0,0.83677
10,2,47,107,4.2,0.53157,4.3431,3,1.705,0,3.8827
10,2,48,108,4.2,0.66546,4.3556,2,1.3267,0,1.2382
10,2,49,109,4.2,0.43085,4.492,3,1.7283,1,0.28926
10,2,50,110,4.2,0.24959,4.2822,3,1.3109,0,0.43907
10,2,51,111,4.2,0.46595,5.2943,2,1.3028,1,0.26939
10,2,52,112,4.2,0.44317,4.7921,2,1.3899,1,0.686
10,2,53,113,4.2,0.35729,5.8523,2,2.3224,0,0.34371
10,2,54,114,4.2,2.5412,4.071,2,1.7633,0,0.17872
10,2,55,115,4.2,0.38911,3.5513,2,2.323,1,0.12075
10,2,56,116,4.2,0.36862,4.0729,3,1.4148,1,0.63904
10,2,57,117,4.2,0.31522,4.5176,3,1.8385,0,0.42017
10,2,58,118,4.2,0.57177,3.8865,2,1.3246,1,1.0003
10,2,59,119,4.2,0.24955,4.5699,3,1.4354,0,0.49338
10,2,60,120,4.2,0.70386,4.4851,3,1.876,1,0.098945
10,3,1,121,2.1,0.46772,2.2584,2,2.3098,0,0.48593
10,3,2,122,2.1,0.52649,3.2905,2,1.2191,1,0.56994
10,3,3,123,2.1,0.40685,2.6761,3,1.2608,1,0.59002
10,3,4,124,2.1,0.51836,2.7459,3,1.0497,1,1.955
10,3,5,125,4.2,0.47303,4.4893,2,1.5004,0,0.55471
10,3,6,126,4.2,0.86399,4.3071,3,1.2272,1,0.52656
10,3,7,127,2.1,0.55892,2.2911,3,1.2473,1,0.50183
10,3,8,128,4.2,0.41863,3.6093,1,1.1702,0,0.59509
10,3,9,129,4.2,0.22744,4.4569,2,1.2258,1,1.1519
10,3,10,130,2.1,0.36165,2.0311,2,1.013,0,0.51419
10,3,11,131,2.1,0.48328,0.82006,1,2.1466,0,0.53983
10,3,12,132,4.2,0.62858,3.2312,3,1.7014,0,1.9542
10,3,13,133,4.2,0.66949,4.8229,2,1.1365,1,0.68378
10,3,14,134,4.2,0.46652,4.145,2,3.8833,0,1.1002
10,3,15,135,2.1,0.51314,2.4453,2,1.2125,0,2.4306
10,3,16,136,2.1,0.45735,2.3148,2,1.3116,1,0.85331
10,3,17,137,2.1,0.70935,3.4791,3,2.5222,1,2.0696
10,3,18,138,2.1,0.52297,3.0373,2,1.4281,0,0.51515
10,3,19,139,4.2,0.47996,4.2205,3,1.5876,0,1.8957
10,3,20,140,4.2,0.22956,4.7332,2,1.2609,0,1.3664
10,3,21,141,4.2,0.32652,4.1426,2,1.1178,0,2.9809
10,3,22,142,4.2,1.205,4.9595,2,1.6155,0,1.0273
10,3,23,143,4.2,0.39101,5.5269,2,2.0151,1,0.98867
10,3,24,144,2.1,1.3315,3.0573,1,1.1688,0,1.3574
10,3,25,145,2.1,0.56687,2.1939,2,0.85093,0,2.1188
10,3,26,146,4.2,0.54957,4.6811,2,1.7213,0,0.69545
10,3,27,147,4.2,0.45851,4.4897,3,1.2146,1,0.61462
10,3,28,148,4.2,0.21945,4.5982,2,1.1469,1,0.50079
10,3,29,149,2.1,0.51931,3.0594,1,1.1343,0,1.1932
10,3,30,150,4.2,0.3454,4.9182,2,1.5504,1,0.70298
10,3,31,151,4.2,0.38344,4.032,2,0.88733,1,0.58386
10,3,32,152,2.1,0.64419,2.868,2,1.0256,0,0.63914
10,3,33,153,2.1,0.58343,3.0076,2,1.057,1,0.49886
10,3,34,154,4.2,0.524,4.9635,3,1.2074,1,0.64957
10,3,35,155,4.2,0.49884,5.1067,3,1.8743,0,2.1982
10,3,36,156,4.2,0.60462,4.6488,2,1.3595,0,1.2643
10,3,37,157,2.1,0.55111,2.5944,1,1.425,0,0.57428
10,3,38,158,2.1,0.33947,2.5268,3,1.1983,1,1.8777
10,3,39,159,2.1,0.29805,2.1058,2,1.27,0,0.53352
10,3,40,160,4.2,0.29383,4.6422,2,1.0032,1,0.43366
10,3,41,161,4.2,0.6841,4.9451,3,1.2552,0,0.97187
10,3,42,162,4.2,1.9826,4.4565,3,1.5267,1,1.3627
10,3,43,163,2.1,0.32086,2.9501,2,2.4987,0,0.86707
10,3,44,164,4.2,0.59546,4.3315,2,0.697,1,0.50407
10,3,45,165,2.1,0.64718,2.357,2,1.0217,0,1.3969
10,3,46,166,4.2,0.27932,5.3838,2,1.6583,1,0.71166
10,3,47,167,2.1,0.37941,2.5447,2,0.97401,0,0.42632
10,3,48,168,4.2,0.26076,5.1304,2,1.0327,1,0.57891
10,3,49,169,2.1,0.47715,2.4184,2,1.127,0,0.57734
10,3,50,170,4.2,0.49927,4.4072,2,1.177,0,0.52657
10,3,51,171,2.1,0.7229,3.2997,2,1.3274,1,0.58848
10,3,52,172,2.1,0.47222,4.4997,2,1.0245,1,0.4634
10,3,53,173,2.1,0.43444,2.6835,2,1.2368,0,0.34641
10,3,54,174,4.2,0.71929,4.0463,3,1.5593,0,1.9249
10,3,55,175,4.2,0.60111,4.5446,2,1.2055,1,1.3108
10,3,56,176,2.1,0.38704,3.6106,2,1.2588,0,0.66309
10,3,57,177,2.1,0.36146,3.9697,2,0.94914,1,0.55454
10,3,58,178,2.1,0.44262,2.4041,3,1.043,1,0.47579
10,3,59,179,4.2,0.49375,4.7918,2,1.5525,0,1.4689
10,3,60,180,2.1,0.43463,3.2209,2,1.1655,1,0.47871
10,3,61,181,4.2,0.35876,4.7148,1,1.1357,0,0.6571
10,3,62,182,4.2,0.37835,4.3078,2,1.4407,0,0.5352
10,3,63,183,2.1,3.7086,2.9312,1,1.1014,0,0.41874
10,3,64,184,2.1,0.59471,2.5556,3,2.1937,0,0.15006
10,3,65,185,4.2,0.53515,4.171,3,3.0499,1,0.61512
10,3,66,186,4.2,2.0233,4.7333,2,1.3866,0,0.857
10,3,67,187,4.2,0.51374,4.8083,3,1.3907,0,0.6237
10,3,68,188,4.2,0.50343,4.3599,3,2.5185,0,2.727
10,3,69,189,2.1,0.6325,2.5045,3,1.3681,0,0.63032
10,3,70,190,2.1,0.5386,2.8996,2,1.2997,1,0.37926
10,3,71,191,2.1,0.50355,2.7475,2,1.4013,0,1.9189
10,3,72,192,2.1,0.34708,2.7666,2,1.1874,1,0.55943
10,3,73,193,4.2,0.36543,5.2558,3,2.0365,1,0.53016
10,3,74,194,4.2,0.31787,5.7215,2,1.2887,1,0.39635
10,3,75,195,2.1,0.51646,2.2068,2,1.3839,0,0.84189
10,3,76,196,2.1,0.30783,3.0398,3,1.4186,1,0.26878
10,3,77,197,4.2,0.40802,4.9781,2,1.1788,1,0.36779
10,3,78,198,2.1,0.68411,3.5812,2,1.4632,0,0.47965
10,3,79,199,4.2,1.1587,4.2763,3,1.3559,0,0.74769
10,3,80,200,4.2,0.37705,4.343,2,1.0293,1,0.41464
10,3,81,201,2.1,0.72122,4.1357,2,1.9773,0,0.91276
10,3,82,202,4.2,0.27145,3.8753,3,1.3171,1,0.4544
10,3,83,203,4.2,0.92808,5.6541,2,0.80013,1,0.5562
10,3,84,204,2.1,0.87534,3.0145,3,1.2512,1,1.9061
10,3,85,205,2.1,0.48078,3.3287,2,1.2237,1,0.12317
10,3,86,206,4.2,0.73605,3.8714,2,1.151,0,0.21827
10,3,87,207,2.1,0.41549,2.8425,2,0.79681,0,0.19028
