Subj_idx,Block,Trial_in_block,Trial,Stimulus,RT_start,Response,Confidence,RT_conf,ErrorDirection,RT_error
1,1,1,1,1.5,1.4217,1.3226,2,5.2847,0,0.99854
1,1,2,2,1.5,1.2055,2.2855,2,1.4792,1,1.1665
1,1,3,3,1.5,1.3408,1.3363,2,2.2452,0,0.47529
1,1,4,4,1.5,0.87049,1.6974,2,2.4624,0,1.1259
1,1,5,5,1.5,1.3661,1.6577,3,0.9865,1,2.8081
1,1,6,6,1.5,0.82046,2.4473,2,5.8529,1,1.172
1,1,7,7,1.5,1.0332,2.6052,2,0.73047,1,1.054
1,1,8,8,1.5,0.97284,1.7494,2,1.202,1,0.1939
1,1,9,9,1.5,4.3669,1.5249,1,2.1739,0,0.75909
1,1,10,10,1.5,0.87669,1.9145,3,1.063,0,1.6147
1,1,11,11,1.5,1.008,1.4769,2,0.96365,1,2.9656
1,1,12,12,1.5,0.66128,2.0798,2,1.9529,1,0.21889
1,1,13,13,1.5,0.66661,1.681,2,1.8892,0,0.13253
1,1,14,14,1.5,0.83129,1.745,3,2.5649,0,1.2533
1,1,15,15,1.5,0.7338,1.7693,2,0.74346,1,0.21605
1,1,16,16,1.5,1.1011,2.1807,1,4.0029,1,0.25328
1,1,17,17,1.5,0.57046,2.3849,1,1.5165,1,0.1655
1,1,18,18,1.5,0.31568,1.6565,2,0.78383,1,0.15751
1,1,19,19,1.5,0.56712,2.0943,3,1.3755,0,1.5996
1,1,20,20,1.5,1.5877,2.9833,2,2.3615,1,0.82578
1,1,21,21,1.5,1.3432,1.8393,3,2.4097,0,0.96072
1,1,22,22,1.5,0.31227,1.5073,2,0.94886,0,0.82871
1,1,23,23,1.5,1.229,1.9675,3,0.93997,0,1.95
1,1,24,24,1.5,0.93646,2.0218,2,0.71977,1,0.15983
1,1,25,25,1.5,0.62652,1.8787,2,0.86108,1,0.19145
1,1,26,26,1.5,0.60027,1.8567,3,0.98497,1,0.81886
1,1,27,27,1.5,0.61899,1.9343,3,0.75411,1,1.2354
1,1,28,28,1.5,0.91006,1.5653,2,1.7019,0,0.51754
1,1,29,29,1.5,0.80659,1.3498,3,1.0543,0,0.70887
1,1,30,30,1.5,0.93583,1.9213,3,0.79429,0,1.0542
1,1,31,31,1.5,1.7837,2.1084,2,1.2094,1,1.577
1,1,32,32,1.5,0.5617,2.5298,2,0.93827,1,1.0743
1,1,33,33,1.5,1.5771,2.389,3,0.84504,1,0.71348
1,1,34,34,1.5,0.25903,1.6662,3,0.65266,0,0.90908
1,1,35,35,1.5,0.87295,1.9875,3,0.9316,1,1.0655
1,1,36,36,1.5,1.522,2.0345,2,1.0526,1,1.1589
1,1,37,37,1.5,0.88166,1.1799,2,1.3514,0,0.27957
1,1,38,38,1.5,0.67312,2.9885,2,1.8285,1,0.25169
1,1,39,39,1.5,1.445,1.527,1,1.7243,0,0.25959
1,1,40,40,1.5,0.46098,1.7683,2,0.96751,0,0.16794
1,1,41,41,1.5,0.7412,2.077,2,2.0491,1,0.12767
1,1,42,42,1.5,0.56574,1.806,3,2.7465,1,0.71391
1,1,43,43,1.5,0.5358,1.8459,2,0.83665,0,0.98388
1,1,44,44,1.5,0.38819,1.2867,2,0.94608,0,0.85033
1,1,45,45,1.5,0.6205,2.0104,3,1.1007,0,0.26852
1,1,46,46,1.5,0.77188,1.8863,2,1.9436,1,1.2873
1,1,47,47,1.5,0.54811,2.0179,2,0.97781,1,1.0429
1,1,48,48,1.5,1.0896,1.8238,2,2.4852,0,1.5284
1,1,49,49,1.5,0.59191,1.7645,2,0.78781,0,0.81072
1,1,50,50,1.5,0.37778,1.6424,2,0.9882,0,0.7352
1,1,51,51,1.5,1.0466,2.0071,1,2.0715,1,0.96998
1,1,52,52,1.5,0.49539,2.857,2,1.7567,1,0.38436
1,1,53,53,1.5,0.59805,2.0784,2,1.0893,1,0.11068
1,1,54,54,1.5,0.58781,2.4849,2,0.7027,1,0.18366
1,1,55,55,1.5,0.54604,2.2814,2,1.7123,0,0.12816
1,1,56,56,1.5,0.81071,1.5039,1,1.4703,0,0.14488
1,1,57,57,1.5,0.58432,2.4692,2,1.0546,1,0.42093
1,1,58,58,1.5,0.79052,1.6129,3,1.0869,1,2.2209
1,1,59,59,1.5,0.7885,2.4609,2,1.8496,1,0.47688
1,1,60,60,1.5,0.76015,1.827,2,2.8765,1,0.62247
1,2,1,61,3,0.63759,3.7731,2,2.0049,0,1.5443
1,2,2,62,3,0.62545,3.8032,2,1.0628,1,3.2012
1,2,3,63,3,0.39308,3.5927,3,1.4192,0,1.9814
1,2,4,64,3,1.8956,2.2157,1,1.5626,0,0.14127
1,2,5,65,3,0.53871,3.1001,2,1.3995,0,2.8027
1,2,6,66,3,0.56689,2.6188,3,0.84029,0,2.4248
1,2,7,67,3,0.59841,4.5176,3,0.93823,1,1.7473
1,2,8,68,3,0.92665,2.6278,2,1.8622,0,0.36422
1,2,9,69,3,1.1147,4.0202,1,2.3753,1,0.87234
1,2,10,70,3,0.38732,3.3235,2,0.71789,1,0.2946
1,2,11,71,3,0.70593,3.0757,2,0.89505,0,1.5005
1,2,12,72,3,0.89893,3.655,1,1.2768,1,0.22643
1,2,13,73,3,0.79237,3.0282,3,0.8983,0,2.8904
1,2,14,74,3,0.34735,3.6534,2,0.91385,0,0.4898
1,2,15,75,3,0.83124,2.9422,1,1.5713,0,0.58302
1,2,16,76,3,0.66382,4.3206,1,1.7627,1,0.11435
1,2,17,77,3,0.3664,2.8322,2,0.84067,1,0.24977
1,2,18,78,3,1.481,2.7442,2,0.87298,1,0.12502
1,2,19,79,3,0.46086,4.0054,2,1.9516,1,0.27987
1,2,20,80,3,0.96542,3.8552,1,1.839,1,1.0206
1,2,21,81,3,1.0305,3.156,3,0.90424,0,2.3728
1,2,22,82,3,0.8209,3.4851,2,2.1629,1,0.063806
1,2,23,83,3,2.8022,3.6937,1,1.0836,1,0.30566
1,2,24,84,3,1.0341,4.1677,1,1.0755,1,1.2263
1,2,25,85,3,0.52233,3.613,2,2.6979,0,0.026522
1,2,26,86,3,0.45699,3.6266,2,0.89482,1,0.06758
1,2,27,87,3,1.0328,3.0927,2,1.0704,0,0.059451
1,2,28,88,3,0.4406,3.2528,3,2.2508,0,0.1023
1,2,29,89,3,2.241,5.3595,1,1.338,1,0.44649
1,2,30,90,3,2.2338,3.6201,2,1.0256,0,0.88864
1,2,31,91,3,2.3305,3.8409,2,2.8287,0,2.712
1,2,32,92,3,0.95092,3.6058,2,0.94135,1,0.17607
1,2,33,93,3,1.3381,3.5216,1,1.1287,1,0.17906
1,2,34,94,3,0.8565,4.6879,1,2.3485,1,0.11548
1,2,35,95,3,1.1833,3.5928,2,2.4199,0,0.028358
1,2,36,96,3,0.75318,5.022,1,2.1023,1,0.016795
1,2,37,97,3,1.397,4.3552,2,2.6002,1,0.080194
1,2,38,98,3,6.9231,3.3483,1,1.7127,1,0.077839
1,2,39,99,3,0.72572,4.3147,3,0.82389,1,4.2496
1,2,40,100,3,0.59947,3.5931,2,3.3584,0,0.094068
1,2,41,101,3,4.7488,4.3974,1,2.1851,1,0.053183
1,2,42,102,3,0.76607,3.0929,2,3.959,1,2.2928
1,2,43,103,3,0.8052,4.2612,1,1.4941,1,0.077224
1,2,44,104,3,1.294,6.0279,1,2.0765,1,0.049105
1,2,45,105,3,1.0307,4.5696,1,1.9761,1,0.81351
1,2,46,106,3,1.571,4.3834,2,2.1873,1,0.042627
1,2,47,107,3,1.2572,4.4736,1,2.6152,1,0.040051
1,2,48,108,3,0.49356,4.342,3,1.0539,1,1.2209
1,2,49,109,3,0.57394,5.5762,2,1.5011,1,0.017093
1,2,50,110,3,0.55326,4.2973,3,0.89641,0,0.7269
1,2,51,111,3,0.81884,4.0322,2,1.4503,1,0.64206
1,2,52,112,3,0.91125,3.8421,2,1.4797,1,0.043072
1,2,53,113,3,1.8327,5.1807,2,1.433,1,0.054007
1,2,54,114,3,2.4824,4.8652,2,2.422,1,2.7199
1,2,55,115,3,1.0381,2.9604,3,0.64657,1,1.1278
1,2,56,116,3,0.56732,4.3578,2,2.8661,0,6.3156
1,2,57,117,3,0.99705,3.5443,3,2.0335,0,0.014879
1,2,58,118,3,1.3973,4.418,1,3.364,1,0.07469
1,2,59,119,3,1.0368,2.9839,3,0.87553,1,1.5877
1,2,60,120,3,0.97274,3.7746,2,1.4422,1,0.037816
1,3,1,121,3,0.78528,4.6332,3,2.1744,1,0.77096
1,3,2,122,3,0.52243,3.6878,2,0.37726,0,0.13949
1,3,3,123,3,0.54857,3.0172,2,2.7999,1,0.054545
1,3,4,124,1.5,1.2486,2.2311,3,2.5878,1,0.41786
1,3,5,125,3,0.62254,4.5132,2,0.87003,1,0.058947
1,3,6,126,1.5,0.60358,1.7356,3,0.96717,1,1.119
1,3,7,127,3,0.36881,3.4348,3,0.96126,0,1.6798
1,3,8,128,3,0.51627,3.4316,2,1.2141,1,0.95111
1,3,9,129,3,1.0894,3.9617,3,1.7837,1,0.027206
1,3,10,130,3,0.45435,3.2116,1,1.7725,1,0.5703
1,3,11,131,3,0.68378,3.5313,2,1.6386,1,1.2712
1,3,12,132,1.5,1.0147,1.62,2,2.2071,0,0.84692
1,3,13,133,1.5,0.48974,2.0631,2,1.8486,0,0.014445
1,3,14,134,3,0.69715,3.8084,2,2.6548,1,0.03048
1,3,15,135,3,0.44729,4.0169,1,2.2002,1,0.014578
1,3,16,136,3,1.0754,3.6005,1,1.7617,1,0.088242
1,3,17,137,3,1.2698,4.7077,2,1.9138,1,0.0412
1,3,18,138,3,0.99258,3.5656,2,1.1508,1,0.030427
1,3,19,139,1.5,0.7537,2.122,3,1.0813,0,1.6909
1,3,20,140,1.5,0.64831,3.3684,2,0.97505,1,0.42422
1,3,21,141,1.5,0.71767,1.7187,2,2.4933,1,0.68584
1,3,22,142,3,3.0149,3.1145,1,1.6262,0,1.2633
1,3,23,143,1.5,0.53166,2.5547,2,6.1687,0,0.070731
1,3,24,144,3,0.66964,3.7348,1,1.8662,1,0.039205
1,3,25,145,3,0.62797,3.6687,2,0.69816,1,0.58038
1,3,26,146,1.5,0.46881,1.9589,3,2.8368,1,1.4148
1,3,27,147,1.5,1.3471,2.1687,2,2.4158,1,1.7932
1,3,28,148,3,1.4847,3.2171,3,2.6503,0,0.038041
1,3,29,149,3,0.1631,3.0789,1,2.0488,1,0.02718
1,3,30,150,3,2.709,3.3473,2,2.3489,1,0.10479
1,3,31,151,1.5,1.384,1.6425,2,1.8242,0,0.09793
1,3,32,152,3,0.58386,5.194,2,0.85429,1,0.10983
1,3,33,153,1.5,0.99402,1.9267,2,0.40129,1,0.096578
1,3,34,154,3,0.4071,3.3512,1,1.3619,1,0.054848
1,3,35,155,3,0.48723,2.9982,1,2.7884,1,0.06846
1,3,36,156,3,0.67031,4.1972,2,4.6601,1,0.016764
1,3,37,157,1.5,0.47433,2.3645,2,1.7235,1,0.93474
1,3,38,158,3,8.0189,3.5692,2,4.0766,0,0.042629
1,3,39,159,3,3.7187,4.4412,1,2.2651,1,0.091828
1,3,40,160,1.5,0.66493,2.8546,1,4.1796,1,1.4974
1,3,41,161,3,0.80797,4.0395,2,1.7273,1,3.1011
1,3,42,162,3,3.6955,5.6094,1,2.402,1,1.3403
1,3,43,163,1.5,1.2627,2.4913,3,2.2094,0,0.37401
1,3,44,164,3,0.55961,4.0798,2,2.909,1,1.7335
1,3,45,165,1.5,2.3141,3.0281,1,2.261,0,0.02432
1,3,46,166,3,0.731,3.2325,3,1.3865,0,1.1937
1,3,47,167,3,3.4233,6.9169,1,1.5417,1,1.8369
1,3,48,168,1.5,0.78407,0.094208,1,2.4525,0,1.6288
1,3,49,169,1.5,0.64904,2.7422,3,1.5589,1,0.90099
1,3,50,170,3,3.5417,4.6804,1,1.6212,1,0.019666
1,3,51,171,1.5,0.50062,2.3951,3,1.463,1,1.4041
1,3,52,172,1.5,0.78342,2.9564,3,1.9057,1,1.133
1,3,53,173,3,0.5062,5.6377,2,1.7368,1,0.045248
1,3,54,174,1.5,0.83249,1.9186,3,1.0542,0,1.3597
1,3,55,175,1.5,2.3869,1.9671,1,0.97799,1,1.5418
1,3,56,176,3,1.023,4.1619,1,2.6949,1,2.2368
1,3,57,177,1.5,0.88061,2.5575,3,1.0203,1,0.92165
1,3,58,178,3,0.69592,4.7437,1,1.7794,1,0.066781
1,3,59,179,1.5,1.0488,2.2085,3,0.79753,1,1.153
1,3,60,180,3,0.50346,3.1733,3,1.3184,0,1.0813
1,3,61,181,1.5,0.83011,1.7203,2,2.2696,1,0.015746
1,3,62,182,1.5,0.65006,1.857,3,0.99742,0,1.7778
1,3,63,183,3,0.3613,3.606,3,1.5275,1,1.5022
1,3,64,184,1.5,0.83818,1.6734,3,0.89795,0,1.6784
1,3,65,185,1.5,0.725,1.5903,3,0.63429,1,2.5703
1,3,66,186,1.5,0.48721,1.7483,3,1.7509,0,0.054436
1,3,67,187,1.5,0.84817,2.204,2,1.5181,0,2.3316
1,3,68,188,1.5,0.41645,2.294,2,3.5118,1,0.072763
1,3,69,189,1.5,0.58757,2.4736,2,1.208,0,1.4255
1,3,70,190,1.5,0.7499,2.456,2,1.6205,1,0.044048
1,3,71,191,1.5,0.8582,2.5392,1,2.1701,1,0.029145
1,3,72,192,1.5,0.43282,1.4948,3,1.7232,0,0.022001
1,3,73,193,1.5,3.5045,3.0562,1,0.20615,0,1.3763
1,3,74,194,3,0.48737,4.1119,2,1.7198,1,0.69406
1,3,75,195,3,1.3679,4.2557,2,2.3005,1,0.040395
1,3,76,196,1.5,0.68518,2.3955,2,5.4394,0,0.039009
1,3,77,197,1.5,0.56116,1.8438,3,2.6131,0,1.4761
1,3,78,198,3,0.95754,4.0874,2,1.5877,1,0.070485
1,3,79,199,3,1.0945,3.4664,3,1.9153,1,4.4255
1,3,80,200,1.5,0.71436,3.1206,2,1.1533,1,0.65788
1,3,81,201,3,3.0975,3.6398,1,2.5156,0,0.22836
1,3,82,202,1.5,0.84465,2.3421,3,2.523,0,0.018362
1,3,83,203,1.5,0.92712,2.7904,3,2.6076,1,0.43332
1,3,84,204,3,2.8213,4.6296,2,1.5824,1,0.026741
1,3,85,205,3,0.72869,3.7563,2,0.76616,1,0.61715
1,3,86,206,1.5,0.62967,2.5063,2,3.0443,1,1.7226
1,3,87,207,1.5,3.7011,1.5896,2,4.035,1,0.063775
1,3,88,208,1.5,0.40183,2.4849,2,1.0398,0,1.9607
1,3,89,209,3,1.0346,2.6818,2,7.3531,1,1.3179
1,3,90,210,1.5,0.71475,2.2534,3,1.3548,1,1.7103
2,1,1,1,1.5,0.80054,1.118,3,1.5065,0,1.349
2,1,2,2,1.5,1.5892,1.1849,3,1.8433,0,2.1886
2,1,3,3,1.5,1.2234,1.3609,3,1.2858,0,1.6318
2,1,4,4,1.5,0.74848,1.1055,2,3.1472,0,0.97527
2,1,5,5,1.5,2.6342,1.6064,3,1.759,0,2.1999
2,1,6,6,1.5,1.0983,1.9947,3,1.9385,1,1.12
2,1,7,7,1.5,0.61477,1.1535,2,1.096,0,1.2884
2,1,8,8,1.5,0.45729,1.1257,3,0.98999,0,1.7372
2,1,9,9,1.5,0.49243,1.0281,3,1.4748,0,0.73703
2,1,10,10,1.5,0.54545,1.4069,3,1.4356,0,1.2058
2,1,11,11,1.5,0.65005,1.8441,3,1.4015,1,0.86863
2,1,12,12,1.5,1.0939,1.7033,2,1.9561,0,1.8218
2,1,13,13,1.5,0.7764,1.64,3,3.1112,0,1.0731
2,1,14,14,1.5,0.77905,1.5061,1,1.0965,0,1.1767
2,1,15,15,1.5,0.768,1.3815,3,1.1772,1,1.1401
2,1,16,16,1.5,0.90587,1.2868,2,1.2197,0,2.6956
2,1,17,17,1.5,0.36744,0.9339,1,1.3562,0,1.8725
2,1,18,18,1.5,0.77196,1.6604,3,1.6017,0,1.6061
2,1,19,19,1.5,0.86676,1.5937,3,1.1637,1,0.8895
2,1,20,20,1.5,0.67194,1.8369,2,1.4934,0,1.1898
2,1,21,21,1.5,0.67516,1.6771,3,3.1508,0,2.2415
2,1,22,22,1.5,1.0446,1.8162,3,1.7278,0,0.73937
2,1,23,23,1.5,2.5125,1.5377,3,1.0711,0,1.0974
2,1,24,24,1.5,0.55489,1.3365,3,1.0321,1,0.84176
2,1,25,25,1.5,0.89883,1.4922,3,1.0992,0,1.0042
2,1,26,26,1.5,0.81229,2.3925,2,1.0224,1,1.2736
2,1,27,27,1.5,1.0201,1.6591,3,2.6868,1,0.56599
2,1,28,28,1.5,0.73236,1.7049,2,1.333,0,1.7926
2,1,29,29,1.5,1.0047,1.5099,2,1.326,1,1.1892
2,1,30,30,1.5,1.3001,2.1549,2,1.082,1,0.66647
2,1,31,31,1.5,1.4715,2.109,2,1.2989,0,1.3283
2,1,32,32,1.5,0.88025,1.3944,2,1.162,0,2.3044
2,1,33,33,1.5,0.72458,1.8142,3,0.98722,1,0.95971
2,1,34,34,1.5,0.30057,1.571,3,1.7082,0,0.94805
2,1,35,35,1.5,1.1965,1.3553,3,1.3094,0,1.6765
2,1,36,36,1.5,0.74576,1.7439,1,1.5974,0,4.4508
2,1,37,37,1.5,0.30965,1.3556,1,2.072,0,1.182
2,1,38,38,1.5,0.33894,1.4633,3,1.05,0,1.1799
2,1,39,39,1.5,1.0291,1.6305,3,1.0382,1,1.8101
2,1,40,40,1.5,0.68579,1.4716,3,1.2093,0,0.83775
2,1,41,41,1.5,0.94249,1.452,2,0.76921,1,1.5458
2,1,42,42,1.5,0.85404,1.4231,2,1.1232,0,1.824
2,1,43,43,1.5,1.4547,1.9838,3,1.0023,0,3.0709
2,1,44,44,1.5,0.85914,1.8646,2,1.4509,1,0.66674
2,1,45,45,1.5,0.73305,1.7564,2,1.0337,1,0.78063
2,1,46,46,1.5,0.41391,1.4163,3,1.1292,0,1.8006
2,1,47,47,1.5,0.77362,1.7255,3,3.2862,0,1.6649
2,1,48,48,1.5,0.29973,1.7946,3,5.0386,1,2.3532
2,1,49,49,1.5,0.32829,1.844,2,4.5388,0,2.8621
2,1,50,50,1.5,0.27322,1.9261,3,1.9491,1,2.3147
2,1,51,51,1.5,0.34723,1.5301,3,1.2004,1,0.80447
2,1,52,52,1.5,0.26728,1.77,2,1.3075,1,1.9488
2,1,53,53,1.5,0.49673,1.12,1,2.0593,1,1.4981
2,1,54,54,1.5,0.57449,2.0899,2,1.1456,0,1.2555
2,1,55,55,1.5,0.39584,1.795,2,2.227,0,1.3112
2,1,56,56,1.5,0.46262,1.5697,3,1.6932,0,1.3515
2,1,57,57,1.5,0.27873,1.7315,3,1.6019,0,2.0439
2,1,58,58,1.5,0.29707,1.6914,3,1.5503,1,0.72736
2,1,59,59,1.5,0.31268,1.8451,3,1.2977,1,0.98962
2,1,60,60,1.5,0.28949,1.8874,3,1.1828,1,1.8787
2,2,1,61,3,6.8959,3.1418,1,1.4074,0,1.024
2,2,2,62,3,0.40702,2.7765,3,1.2099,1,3.0267
2,2,3,63,3,0.28263,2.7694,2,1.3142,0,0.85231
2,2,4,64,3,0.49739,2.9797,3,1.1617,0,1.1045
2,2,5,65,3,0.33239,2.744,3,0.94802,0,0.903
2,2,6,66,3,0.36657,2.9819,3,0.9396,1,0.42516
2,2,7,67,3,0.38422,2.7208,2,1.5156,1,0.9906
2,2,8,68,3,0.71432,2.2327,3,1.0761,0,1.2144
2,2,9,69,3,0.275,2.8287,3,1.0246,0,0.47558
2,2,10,70,3,0.73438,2.3941,2,1.9622,0,0.64012
2,2,11,71,3,0.78149,2.7416,1,2.1715,0,0.91857
2,2,12,72,3,0.60648,3.2008,2,2.6239,0,2.2949
2,2,13,73,3,0.45722,2.9147,3,2.3642,1,1.178
2,2,14,74,3,0.53328,2.7941,2,2.2993,1,0.77492
2,2,15,75,3,0.57394,2.8388,2,0.93023,0,0.77865
2,2,16,76,3,0.35344,2.5731,2,0.90642,0,0.76228
2,2,17,77,3,2.3341,3.4319,3,1.0506,0,2.4931
2,2,18,78,3,1.781,2.5552,3,0.9559,0,0.84918
2,2,19,79,3,0.3343,3.6331,3,0.75255,1,0.74502
2,2,20,80,3,0.31423,2.8923,3,1.0466,1,1.3643
2,2,21,81,3,0.24139,2.9402,3,0.9312,1,1.9164
2,2,22,82,3,0.22872,2.8322,3,1.0746,0,1.3628
2,2,23,83,3,0.019326,2.9613,3,1.6107,0,0.92638
2,2,24,84,3,0.55543,3.4991,2,0.81387,1,0.52867
2,2,25,85,3,0.68266,2.1806,2,1.2371,0,4.2207
2,2,26,86,3,0.316,2.6319,2,1.3235,1,0.66121
2,2,27,87,3,0.67465,2.5266,3,1.7856,1,2.2051
2,2,28,88,3,0.29265,2.754,3,1.2914,0,1.2259
2,2,29,89,3,0.55611,2.5761,1,1.5967,0,1.3305
2,2,30,90,3,0.26914,3.0226,1,1.2808,0,0.77638
2,2,31,91,3,0.32969,3.1085,2,1.9447,0,0.88854
2,2,32,92,3,0.57114,2.1865,2,1.2297,0,1.1514
2,2,33,93,3,0.29979,2.9577,3,1.0823,0,0.85307
2,2,34,94,3,0.23658,3.0108,3,0.97312,1,2.7239
2,2,35,95,3,0.24253,2.3404,1,1.0589,0,0.81335
2,2,36,96,3,0.26442,3.0673,3,1.1883,0,0.84647
2,2,37,97,3,0.30951,2.8159,3,1.0752,1,0.63806
2,2,38,98,3,0.30895,3.0644,3,1.0524,1,0.53321
2,2,39,99,3,0.29606,2.9071,2,1.3949,0,0.67869
2,2,40,100,3,0.41132,2.7063,3,1.5316,0,0.68905
2,2,41,101,3,0.33594,2.9472,2,1.4133,0,1.901
2,2,42,102,3,0.31395,2.9048,3,1.1165,1,0.43035
2,2,43,103,3,0.28165,3.9432,1,1.2054,1,0.41123
2,2,44,104,3,0.28717,3.0743,2,0.75613,0,0.87504
2,2,45,105,3,0.45478,2.499,1,3.1506,0,1.7658
2,2,46,106,3,0.55948,2.4291,1,0.81298,1,0.83971
2,2,47,107,3,0.30726,3.8399,3,0.96537,1,1.2544
2,2,48,108,3,0.40335,3.3103,2,1.9589,1,0.58627
2,2,49,109,3,0.35122,3.4342,2,1.3235,1,0.41181
2,2,50,110,3,0.30881,3.2778,2,1.636,1,1.1681
2,2,51,111,3,0.53388,2.9324,2,1.0401,0,1.8127
2,2,52,112,3,0.72937,2.6189,2,1.3912,0,0.99921
2,2,53,113,3,0.28925,3.1128,1,1.7367,0,0.80675
2,2,54,114,3,0.36747,0.23388,1,1.7326,0,0.72765
2,2,55,115,3,0.27309,3.9516,3,1.6131,1,1.0769
2,2,56,116,3,0.34708,3.4925,2,1.0436,0,0.72793
2,2,57,117,3,0.60137,4.283,2,1.6745,1,0.79854
2,2,58,118,3,0.99371,1.9529,1,1.5061,0,1.1092
2,2,59,119,3,0.26483,2.2932,2,1.1114,0,0.55503
2,2,60,120,3,0.23435,3.258,2,0.98233,1,0.95311
2,3,1,121,1.5,0.92531,0.85079,1,1.6324,0,1.6275
2,3,2,122,1.5,0.63674,1.9355,3,1.0796,0,1.564
2,3,3,123,3,0.35659,3.4516,3,0.82462,1,1.213
2,3,4,124,3,0.41109,3.3179,2,1.0621,1,0.74221
2,3,5,125,3,0.37626,4.9663,1,1.2353,1,0.69361
2,3,6,126,3,0.36525,3.2675,2,2.8372,1,0.96569
2,3,7,127,3,0.33981,2.7007,3,1.664,0,1.3794
2,3,8,128,3,0.55977,3.241,2,0.89374,0,1.7792
2,3,9,129,3,0.45311,3.5731,2,1.8786,0,1.2508
2,3,10,130,1.5,0.8208,1.023,1,1.2859,0,0.71919
2,3,11,131,3,0.46899,3.5476,3,1.0114,0,2.1422
2,3,12,132,1.5,0.73599,1.5465,2,1.2252,0,2.0139
2,3,13,133,3,0.38159,2.7794,2,0.91363,0,1.1646
2,3,14,134,3,0.63351,3.6068,1,1.5298,0,0.9422
2,3,15,135,3,0.30707,3.8145,3,1.837,1,1.5815
2,3,16,136,3,0.25038,3.1328,3,0.91344,0,1.2417
2,3,17,137,3,0.31155,3.2325,3,0.46404,0,0.29229
2,3,18,138,3,0.413,3.233,2,0.098192,1,0.21971
2,3,19,139,3,0.40336,1.6616,1,1.0756,0,0.53902
2,3,20,140,1.5,1.0749,1.3378,2,1.272,0,0.4595
2,3,21,141,1.5,0.41049,1.7057,3,0.78319,1,0.19374
2,3,22,142,1.5,0.47084,1.7244,3,1.011,1,0.1781
2,3,23,143,3,0.57238,3.9002,2,1.039,1,0.24787
2,3,24,144,1.5,0.72094,1.386,2,0.85672,0,1.6375
2,3,25,145,1.5,0.60047,1.5066,3,1.8988,1,2.5018
2,3,26,146,1.5,0.54687,1.7454,3,1.1735,1,1.3487
2,3,27,147,1.5,0.26457,1.7298,3,1.1366,1,0.38341
2,3,28,148,3,0.28068,3.1435,2,1.4964,0,0.91742
2,3,29,149,3,0.26597,3.1186,3,1.2515,1,1.0934
2,3,30,150,3,0.26861,2.7592,1,1.2843,0,0.68023
2,3,31,151,1.5,0.3094,1.8274,2,0.76104,0,2.2669
2,3,32,152,3,0.33739,3.349,3,0.60103,1,0.1838
2,3,33,153,3,0.25665,2.9262,2,0.1846,1,0.2469
2,3,34,154,1.5,0.73207,1.1167,1,0.76781,0,0.60716
2,3,35,155,3,0.70488,4.2989,3,0.37338,1,0.9132
2,3,36,156,3,0.43333,3.1072,3,0.46867,1,0.53478
2,3,37,157,1.5,0.92799,0.82965,1,0.70163,0,0.39555
2,3,38,158,1.5,0.67682,2.0798,2,0.59803,0,0.30376
2,3,39,159,1.5,0.38605,2.0098,3,1.5745,1,0.71103
2,3,40,160,1.5,0.69577,1.5818,2,0.91397,1,0.16559
2,3,41,161,3,0.67148,4.0484,3,0.24883,1,0.31848
2,3,42,162,1.5,0.82951,0.93203,2,1.804,0,1.4318
2,3,43,163,1.5,0.25959,1.7291,3,0.89842,0,0.36722
2,3,44,164,1.5,0.21422,1.8174,3,1.8529,1,0.26888
2,3,45,165,3,0.27396,3.0652,3,1.7254,1,1.0263
2,3,46,166,3,0.25076,3.0471,3,0.77537,0,0.5634
2,3,47,167,3,0.2744,3.6269,2,0.13356,1,0.3828
2,3,48,168,1.5,2.2126,0.90186,1,0.85785,0,0.22606
2,3,49,169,3,0.24348,2.8059,2,0.46754,0,0.29529
2,3,50,170,1.5,0.73066,1.7189,2,1.2687,1,0.70637
2,3,51,171,1.5,0.72694,1.466,1,0.84042,0,0.92512
2,3,52,172,1.5,0.22982,1.6915,3,1.0495,1,2.4911
2,3,53,173,3,0.2368,2.8485,3,0.99043,1,0.21239
2,3,54,174,1.5,0.21882,1.6722,3,1.7348,0,0.35444
2,3,55,175,3,0.40998,3.692,1,0.50631,1,0.82525
2,3,56,176,1.5,0.4741,0.85282,1,0.60814,1,0.90229
2,3,57,177,3,0.28967,3.2633,3,0.77418,0,1.3632
2,3,58,178,1.5,0.53394,1.0325,2,1.067,1,0.45469
2,3,59,179,3,0.28897,2.6759,3,0.32169,1,0.19995
2,3,60,180,3,0.32451,2.9524,2,0.9895,1,1.3608
2,3,61,181,1.5,0.27149,1.6256,2,1.0121,0,1.2874
2,3,62,182,3,0.30812,3.2773,3,0.70979,1,0.22825
2,3,63,183,1.5,0.36811,1.9588,1,0.74869,1,0.61795
2,3,64,184,3,0.63107,2.9412,2,0.77079,1,0.38467
2,3,65,185,1.5,0.74422,1.3921,1,1.1386,1,0.34716
2,3,66,186,1.5,0.40862,1.0026,1,1.2202,1,0.33314
2,3,67,187,1.5,0.33516,1.6721,3,1.5331,1,0.2287
2,3,68,188,1.5,0.24151,1.8036,3,0.46944,1,0.18486
2,3,69,189,1.5,0.22449,1.7406,3,0.72319,1,0.16288
2,3,70,190,3,0.26884,3.0603,2,0.647,0,0.39048
2,3,71,191,1.5,0.60934,1.603,1,0.16859,1,0.22224
2,3,72,192,1.5,0.60429,1.4486,1,0.67691,0,0.71614
2,3,73,193,3,0.33755,3.0243,2,1.3076,1,0.29873
2,3,74,194,1.5,0.65959,1.9654,1,1.6891,1,0.40821
2,3,75,195,3,0.20611,3.4511,3,0.3486,1,0.4187
2,3,76,196,3,0.34327,3.33,2,2.9246,1,0.36958
2,3,77,197,1.5,0.73692,1.6484,2,1.0385,1,1.0606
2,3,78,198,1.5,0.75596,1.7744,1,0.8602,0,1.0291
2,3,79,199,1.5,0.55015,2.2694,1,0.81698,1,0.71778
2,3,80,200,3,0.43447,3.6588,3,0.90662,1,0.11142
2,3,81,201,3,0.28166,3.6191,2,1.2871,0,0.97056
2,3,82,202,1.5,0.5212,0.98648,2,1.1203,0,1.184
2,3,83,203,1.5,0.53126,2.3673,2,0.63874,0,0.3495
2,3,84,204,3,0.29502,3.2692,3,1.5889,1,1.4841
2,3,85,205,1.5,0.52058,1.8479,2,0.83869,1,0.5109
2,3,86,206,1.5,0.34136,1.9906,3,0.77173,1,0.22341
2,3,87,207,3,0.34317,2.9164,3,0.91138,1,0.25521
2,3,88,208,3,0.29495,3.6056,2,0.57852,1,0.67671
2,3,89,209,3,0.4225,2.739,2,0.8306,0,0.23964
2,3,90,210,1.5,0.57057,2.2108,1,0.77511,1,0.71424
3,1,1,1,1.5,3.5439,1.6086,3,1.9995,0,3.1519
3,1,2,2,1.5,2.3348,1.9816,2,2.2255,1,1.2107
3,1,3,3,1.5,2.7236,2.207,3,1.7454,1,2.3642
3,1,4,4,1.5,4.1714,2.1417,3,1.8354,1,1.9546
3,1,5,5,1.5,3.055,1.9791,2,1.7617,0,1.3252
3,1,6,6,1.5,1.7479,1.9792,2,2.753,0,0.70384
3,1,7,7,1.5,1.7099,1.4881,3,2.7964,0,1.4883
3,1,8,8,1.5,0.33999,1.3516,1,2.131,0,2.2161
3,1,9,9,1.5,1.338,1.8223,2,2.1452,1,2.9895
3,1,10,10,1.5,1.4186,1.7432,3,2.1752,0,1.5232
3,1,11,11,1.5,1.21,2.0774,3,1.8508,1,1.0405
3,1,12,12,1.5,0.87188,1.9872,3,1.3938,0,1.1511
3,1,13,13,1.5,0.57043,1.6228,2,1.0605,1,0.86442
3,1,14,14,1.5,0.97786,2.0158,2,2.7145,0,2.1138
3,1,15,15,1.5,0.70612,1.6248,2,1.5493,0,0.80291
3,1,16,16,1.5,0.69258,1.9407,2,1.4343,1,0.94307
3,1,17,17,1.5,0.72911,1.969,3,1.4919,0,2.0627
3,1,18,18,1.5,0.87178,1.6101,2,1.2645,0,2.2388
3,1,19,19,1.5,2.4714,1.8176,1,1.5289,1,1.6154
3,1,20,20,1.5,0.59745,1.7949,2,1.2149,1,2.3662
3,1,21,21,1.5,1.1305,1.8441,2,1.8132,0,1.1421
3,1,22,22,1.5,0.93452,2.195,3,1.4128,1,2.9056
3,1,23,23,1.5,0.90664,1.8624,2,1.3267,1,0.86417
3,1,24,24,1.5,0.77422,1.739,2,1.2463,1,1.089
3,1,25,25,1.5,1.1808,2.0821,1,1.4379,0,1.196
3,1,26,26,1.5,0.62938,1.6572,3,2.1724,1,1.3828
3,1,27,27,1.5,0.62865,1.5929,2,1.2384,0,1.0588
3,1,28,28,1.5,0.73397,1.495,1,1.761,0,2.214
3,1,29,29,1.5,0.89593,1.9056,1,1.3592,1,0.86239
3,1,30,30,1.5,1.25,1.3663,2,1.1913,1,1.6516
3,1,31,31,1.5,1.2282,1.4275,1,1.491,0,1.1489
3,1,32,32,1.5,1.0184,1.4068,1,1.3353,0,1.0824
3,1,33,33,1.5,2.2062,1.2945,2,0.87888,1,1.2137
3,1,34,34,1.5,0.77393,1.8126,1,1.3536,1,1.5832
3,1,35,35,1.5,0.82264,1.4609,2,1.0118,1,1.5409
3,1,36,36,1.5,0.84809,1.8079,2,1.1731,1,0.67438
3,1,37,37,1.5,2.5664,1.4169,2,2.1293,0,0.72711
3,1,38,38,1.5,1.6387,1.6838,3,1.8786,0,1.614
3,1,39,39,1.5,2.6021,1.7692,2,1.2431,1,1.0384
3,1,40,40,1.5,1.3246,1.826,2,1.0624,0,1.113
3,1,41,41,1.5,1.7022,2.0816,2,2.1492,1,1.6768
3,1,42,42,1.5,1.9501,4.681,1,1.534,1,1.2175
3,1,43,43,1.5,1.1228,1.3987,2,1.078,0,1.5794
3,1,44,44,1.5,1.4476,2.4818,2,1.4613,1,2.0895
3,1,45,45,1.5,1.3065,1.8981,3,1.3014,1,2.7307
3,1,46,46,1.5,1.1757,1.5266,2,1.6384,0,2.0835
3,1,47,47,1.5,1.5936,1.8008,2,1.8915,1,2.3608
3,1,48,48,1.5,0.90959,1.9904,2,1.6709,1,0.89625
3,1,49,49,1.5,0.13066,1.9307,1,1.3382,0,0.95839
3,1,50,50,1.5,0.88238,1.8168,1,1.1913,1,0.78782
3,1,51,51,1.5,1.2364,1.8444,2,1.077,1,1.0408
3,1,52,52,1.5,0.7022,1.7826,2,1.3018,1,2.182
3,1,53,53,1.5,0.65003,1.6949,1,1.3769,0,0.82735
3,1,54,54,1.5,1.1267,1.8265,1,1.4383,1,0.67071
3,1,55,55,1.5,1.1848,1.6556,1,1.7472,1,1.0043
3,1,56,56,1.5,1.1699,1.7322,2,1.8781,1,1.3015
3,1,57,57,1.5,0.92362,1.6378,2,1.695,1,0.93913
3,1,58,58,1.5,5.3487,2.0077,1,1.4986,1,1.002
3,1,59,59,1.5,1.2042,1.9342,2,1.4793,1,2.0416
3,1,60,60,1.5,1.6121,1.9279,3,1.5018,0,1.4679
3,2,1,61,3,2.3163,3.43,2,1.6122,0,1.5529
3,2,2,62,3,1.1544,3.2469,1,1.9491,1,0.82739
3,2,3,63,3,0.94285,3.3661,1,1.2006,1,0.70604
3,2,4,64,3,0.59637,2.7069,1,1.6202,0,0.68197
3,2,5,65,3,0.61021,2.7295,1,1.0886,0,1.8232
3,2,6,66,3,1.0839,2.6436,1,1.1482,1,0.94095
3,2,7,67,3,0.92981,2.9815,2,0.88892,0,2.6247
3,2,8,68,3,1.8084,3.1233,1,0.99399,1,1.0404
3,2,9,69,3,0.65991,3.1264,1,1.0734,1,0.71211
3,2,10,70,3,0.70706,2.7625,1,0.99982,1,0.59293
3,2,11,71,3,0.44276,2.4531,2,1.6789,1,0.9284
3,2,12,72,3,1.2656,3.1189,1,0.98959,1,0.58589
3,2,13,73,3,0.58943,2.5258,2,0.8965,0,1.0394
3,2,14,74,3,1.3426,3.2888,2,1.5657,1,0.77878
3,2,15,75,3,0.94875,2.8666,2,1.137,0,0.77196
3,2,16,76,3,0.75369,4.2602,1,1.093,1,0.66468
3,2,17,77,3,1.8859,2.0808,1,1.3499,0,0.70396
3,2,18,78,3,1.1599,3.5771,2,1.1087,1,0.60098
3,2,19,79,3,1.3888,2.6842,2,1.2512,0,1.1811
3,2,20,80,3,1.4851,2.7809,3,2.6641,1,1.0891
3,2,21,81,3,1.0671,2.893,3,1.7712,0,1.2074
3,2,22,82,3,0.86759,2.5934,2,1.3612,0,0.92852
3,2,23,83,3,1.0762,2.6774,2,1.2732,0,0.92404
3,2,24,84,3,1.223,2.4858,2,1.4913,1,0.7121
3,2,25,85,3,0.84441,3.7288,1,1.297,1,0.67627
3,2,26,86,3,1.1129,3.1067,2,1.155,0,1.0346
3,2,27,87,3,1.6428,3.0635,2,1.1364,0,0.65899
3,2,28,88,3,0.6854,3.1091,1,1.0322,1,0.99179
3,2,29,89,3,0.88731,2.4841,1,1.4394,0,0.88451
3,2,30,90,3,0.90426,2.9343,1,1.2003,1,0.52964
3,2,31,91,3,0.62012,2.8464,2,1.364,0,1.6256
3,2,32,92,3,0.65807,2.7392,1,1.2927,1,0.57652
3,2,33,93,3,1.1074,2.4501,1,1.0634,1,0.55246
3,2,34,94,3,0.6851,2.7584,1,1.2213,0,1.8211
3,2,35,95,3,0.63107,3.1046,1,1.3659,1,0.86618
3,2,36,96,3,0.98499,2.8822,2,1.5978,1,2.1635
3,2,37,97,3,0.60052,3.1073,3,1.0189,1,1.6955
3,2,38,98,3,0.68788,3.1232,1,0.98066,1,1.3027
3,2,39,99,3,0.56474,3.1669,1,1.7748,1,1.2604
3,2,40,100,3,0.53679,2.9602,1,1.3855,1,2.1816
3,2,41,101,3,0.71856,3.2328,2,1.1864,1,1.9202
3,2,42,102,3,0.92917,2.9303,2,1.4258,1,0.72491
3,2,43,103,3,2.0664,2.9681,3,1.1634,1,0.78873
3,2,44,104,3,0.65565,2.5622,2,1.1254,0,0.63775
3,2,45,105,3,1.5714,3.7705,1,0.91332,1,0.66496
3,2,46,106,3,0.95621,2.7999,1,1.087,0,0.6967
3,2,47,107,3,1.6918,2.7875,2,1.0413,1,0.67577
3,2,48,108,3,0.88444,3.3452,2,1.0603,1,0.65169
3,2,49,109,3,0.68201,2.9543,2,1.0543,1,0.64702
3,2,50,110,3,0.86329,2.5679,2,0.76422,1,0.61664
3,2,51,111,3,0.27911,2.3835,1,1.0138,0,0.51475
3,2,52,112,3,0.61316,3.4819,1,1.0761,1,1.039
3,2,53,113,3,2.7919,3.4083,2,3.9569,0,1.2286
3,2,54,114,3,0.90819,2.7765,3,0.99727,1,0.90298
3,2,55,115,3,0.88805,3.0725,2,0.98063,0,1.3396
3,2,56,116,3,0.94749,3.2323,3,1.401,1,1.7056
3,2,57,117,3,1.1251,3.1502,2,1.8367,1,0.93089
3,2,58,118,3,4.1296,4.4594,1,2.3541,1,1.5552
3,2,59,119,3,0.95362,3.4347,2,1.1233,0,1.4244
3,2,60,120,3,1.6162,2.6579,2,0.97048,1,0.53463
3,3,1,121,1.5,0.82351,2.1507,3,1.5147,1,1.152
3,3,2,122,1.5,0.88164,1.8418,2,0.8238,1,0.801
3,3,3,123,1.5,0.5801,1.6324,3,0.87796,1,0.67882
3,3,4,124,1.5,0.65441,1.8105,1,1.727,1,1.3251
3,3,5,125,1.5,0.51745,2.2334,2,1.3512,1,0.45602
3,3,6,126,1.5,0.32707,1.4673,3,1.1415,1,0.72591
3,3,7,127,3,0.70195,3.1822,2,0.9274,0,1.7168
3,3,8,128,3,0.40488,2.586,3,0.91602,1,2.4549
3,3,9,129,3,0.5545,2.6876,3,1.217,0,1.0796
3,3,10,130,3,0.74282,3.5156,3,1.0384,1,0.59893
3,3,11,131,3,0.44096,2.9523,1,0.93826,1,0.62392
3,3,12,132,1.5,0.58537,1.3453,2,0.93738,0,0.70886
3,3,13,133,1.5,0.76353,1.4689,2,0.94447,1,0.49112
3,3,14,134,3,0.3421,2.7644,1,1.3152,1,0.65383
3,3,15,135,1.5,1.3957,1.5914,1,0.91254,1,0.61319
3,3,16,136,3,0.38622,3.0855,1,0.97668,1,0.47756
3,3,17,137,3,0.33986,2.6522,3,1.2769,0,1.9392
3,3,18,138,1.5,0.80797,2.3385,1,1.3688,1,5.1816
3,3,19,139,3,0.44205,3.227,1,1.1474,1,0.45297
3,3,20,140,1.5,0.37595,1.7542,2,0.81866,1,1.1453
3,3,21,141,3,0.71518,2.7673,1,2.1254,0,0.79795
3,3,22,142,3,0.53134,2.7927,1,0.89748,1,0.62721
3,3,23,143,3,0.58466,3.3458,1,0.81105,1,0.65373
3,3,24,144,1.5,0.64178,1.9394,2,1.5719,0,0.87067
3,3,25,145,1.5,0.6297,2.5562,1,1.2321,0,1.6657
3,3,26,146,3,0.68136,2.8669,1,2.0489,0,1.3014
3,3,27,147,3,0.31964,2.6975,2,0.81335,1,0.6152
3,3,28,148,3,0.32449,2.678,3,1.574,0,0.44775
3,3,29,149,3,0.2916,2.8519,2,0.75365,0,0.65937
3,3,30,150,3,0.39082,2.7027,2,0.765,1,0.7919
3,3,31,151,1.5,0.27373,1.827,2,0.84971,1,0.88147
3,3,32,152,1.5,0.53594,2.347,1,1.1608,0,1.5906
3,3,33,153,3,0.82876,3.1057,3,1.1419,1,1.3381
3,3,34,154,1.5,1.1216,2.172,2,0.90703,1,0.85002
3,3,35,155,1.5,0.63715,2.7476,2,1.6259,0,2.4891
3,3,36,156,1.5,0.86197,1.6415,2,1.1241,1,0.96349
3,3,37,157,3,1.2652,2.8322,2,1.2277,1,0.51514
3,3,38,158,3,0.69008,2.9005,2,1.6629,1,0.66591
3,3,39,159,3,0.48017,2.6332,2,1.9121,0,1.1525
3,3,40,160,1.5,0.83224,2.2178,1,1.3774,0,0.99021
3,3,41,161,3,0.82321,2.499,3,0.9256,0,1.3389
3,3,42,162,3,0.63031,3.4211,1,1.1271,1,0.47707
3,3,43,163,1.5,0.59925,1.0681,2,0.88173,0,0.55359
3,3,44,164,3,0.40668,3.1274,2,1.2215,0,1.784
3,3,45,165,3,0.97994,2.7311,1,1.5512,0,0.55498
3,3,46,166,1.5,0.52251,2.0502,2,1.4906,0,1.9601
3,3,47,167,3,0.8522,3.2583,3,1.0322,1,1.9296
3,3,48,168,3,0.38599,3.4478,2,0.96259,1,0.58846
3,3,49,169,1.5,0.96786,2.4945,1,1.0496,0,1.8292
3,3,50,170,3,0.58559,2.7219,2,1.1803,1,0.57741
3,3,51,171,3,0.45448,2.8871,2,1.5517,0,1.3941
3,3,52,172,3,0.56175,3.4299,1,1.6363,0,1.0317
3,3,53,173,3,0.42622,3.0271,2,1.8121,1,0.88881
3,3,54,174,1.5,1.3431,2.6263,2,0.94668,1,0.72749
3,3,55,175,1.5,1.098,2.7204,1,0.90371,1,0.83372
3,3,56,176,3,0.87121,2.8226,2,0.99346,1,1.1027
3,3,57,177,3,0.48295,3.2566,2,1.5935,1,1.0511
3,3,58,178,1.5,0.87984,2.3561,2,1.6691,0,1.1196
3,3,59,179,1.5,1.3343,1.6302,2,0.80092,1,0.89404
3,3,60,180,1.5,0.38618,1.6602,1,1.5758,1,2.7378
3,3,61,181,1.5,0.7453,1.5186,2,0.94377,1,1.4526
3,3,62,182,3,0.60018,2.218,3,1.0665,0,1.9293
3,3,63,183,3,0.67978,3.357,2,1.2297,0,1.0766
3,3,64,184,1.5,0.43781,2.1988,2,1.2265,1,0.55199
3,3,65,185,1.5,1.0599,1.9399,2,1.2465,0,0.46342
3,3,66,186,3,0.42598,2.9519,2,1.3901,0,3.0992
3,3,67,187,3,1.0574,3.0621,1,1.3865,1,0.96965
3,3,68,188,1.5,0.63696,1.4966,2,0.85112,1,0.60648
3,3,69,189,1.5,0.9067,1.7384,2,1.0945,1,0.80439
3,3,70,190,1.5,1.0076,1.6747,2,0.83708,1,0.4719
3,3,71,191,1.5,0.4745,1.9277,2,0.9518,1,0.63186
3,3,72,192,3,0.70999,3.0785,3,1.937,1,2.3054
3,3,73,193,1.5,0.89656,3.2429,2,1.1342,1,0.79273
3,3,74,194,1.5,2.5094,1.8351,1,1.0922,1,0.52536
3,3,75,195,1.5,2.2727,2.2698,3,1.2793,1,4.2431
3,3,76,196,1.5,0.37911,2.0443,2,0.63744,1,0.5859
3,3,77,197,3,0.39243,2.4778,2,1.0378,0,0.8719
3,3,78,198,3,0.98951,4.35,1,1.3116,1,1.1163
3,3,79,199,1.5,0.38215,1.8558,2,0.72107,0,0.99866
3,3,80,200,3,0.52534,2.9659,2,0.92391,0,2.5497
3,3,81,201,3,0.55723,2.5253,2,1.0227,1,1.223
3,3,82,202,1.5,1.2869,2.6208,1,1.2802,0,0.48787
3,3,83,203,1.5,1.081,2.0321,2,0.95048,1,0.86894
3,3,84,204,1.5,1.1799,3.8814,1,1.024,1,0.67392
3,3,85,205,1.5,0.52855,2.007,2,0.84615,0,0.90286
3,3,86,206,3,0.54335,2.5281,3,1.3131,1,2.8188
3,3,87,207,3,1.092,2.8894,2,1.1309,1,0.98949
3,3,88,208,3,1.0188,3.508,2,1.755,0,2.0078
3,3,89,209,1.5,0.50634,1.075,2,0.85105,1,1.1691
3,3,90,210,1.5,0.73182,1.9664,2,0.99079,1,1.4503
4,1,1,1,1.5,0.55352,1.3351,3,2.281,0,0.87782
4,1,2,2,1.5,0.49981,1.2943,2,1.7908,1,2.2353
4,1,3,3,1.5,0.64319,1.3394,3,1.5867,0,0.95684
4,1,4,4,1.5,0.73961,0.7753,2,1.1509,0,0.70674
4,1,5,5,1.5,0.71077,1.5297,2,1.1126,0,0.47653
4,1,6,6,1.5,0.56048,0.92958,3,1.0138,1,1.2903
4,1,7,7,1.5,0.38026,1.6548,1,2.9827,1,0.81584
4,1,8,8,1.5,0.6316,1.4544,2,1.7717,0,0.80734
4,1,9,9,1.5,0.34939,1.1939,2,1.1979,1,0.69123
4,1,10,10,1.5,0.60438,1.7984,2,0.701,1,0.71937
4,1,11,11,1.5,0.59125,1.2523,3,1.0062,1,0.64876
4,1,12,12,1.5,0.49968,1.6071,2,0.7106,0,1.0535
4,1,13,13,1.5,2.0155,1.8801,2,1.0117,1,0.91718
4,1,14,14,1.5,0.50614,1.1379,2,1.1595,0,0.78854
4,1,15,15,1.5,0.6233,2.1138,2,0.84797,1,0.81648
4,1,16,16,1.5,0.37844,1.5809,2,0.7516,0,0.6954
4,1,17,17,1.5,0.66152,1.1316,2,0.61484,1,0.64247
4,1,18,18,1.5,0.57227,0.88699,2,0.95969,0,0.53934
4,1,19,19,1.5,0.52048,1.2736,2,0.94875,0,0.70432
4,1,20,20,1.5,0.51246,1.332,2,0.75194,1,0.58297
4,1,21,21,1.5,0.51324,1.7707,3,0.80645,1,0.53724
4,1,22,22,1.5,1.6086,1.4986,3,0.80339,1,0.87114
4,1,23,23,1.5,3.4866,1.9559,3,0.65905,1,0.8402
4,1,24,24,1.5,0.69774,0.99542,2,0.81276,0,0.85267
4,1,25,25,1.5,0.47315,1.7007,2,0.75385,1,0.73591
4,1,26,26,1.5,0.50944,1.8772,2,0.91354,1,0.55246
4,1,27,27,1.5,0.55723,0.90117,3,0.74415,1,0.71311
4,1,28,28,1.5,4.8967,1.3077,2,0.96186,1,0.76266
4,1,29,29,1.5,0.57018,1.7109,2,0.87585,1,0.56438
4,1,30,30,1.5,0.4326,1.906,2,0.84593,1,0.51361
4,1,31,31,1.5,0.62104,1.5732,3,0.82316,1,0.56102
4,1,32,32,1.5,0.55219,1.8213,3,0.80726,0,0.86311
4,1,33,33,1.5,0.8226,2.6378,1,1.792,1,0.88673
4,1,34,34,1.5,0.51103,1.6675,3,0.86714,1,0.81827
4,1,35,35,1.5,0.50125,1.5199,3,0.69435,1,0.54253
4,1,36,36,1.5,0.80019,1.0812,3,0.85223,1,0.43273
4,1,37,37,1.5,0.87643,0.7656,2,0.87967,1,0.48915
4,1,38,38,1.5,0.72811,1.505,3,1.4717,1,0.6343
4,1,39,39,1.5,0.60143,1.3465,3,0.73722,1,0.68475
4,1,40,40,1.5,0.63117,1.5164,2,1.454,0,0.56985
4,1,41,41,1.5,0.59564,1.9315,3,1.3009,1,0.55439
4,1,42,42,1.5,0.50921,1.278,3,0.90068,1,0.50609
4,1,43,43,1.5,0.48697,1.6353,3,0.72961,1,0.46546
4,1,44,44,1.5,0.44096,1.5269,3,0.76384,1,0.40375
4,1,45,45,1.5,0.41347,1.4343,3,0.87929,1,0.48887
4,1,46,46,1.5,0.62796,0.90458,2,0.74844,0,0.50358
4,1,47,47,1.5,1.0049,1.1469,2,0.80277,0,0.87074
4,1,48,48,1.5,0.48266,1.4321,2,0.82658,0,0.44111
4,1,49,49,1.5,0.19118,1.6533,3,0.73208,1,0.50433
4,1,50,50,1.5,0.42675,2.1673,3,0.97668,1,0.35368
4,1,51,51,1.5,0.57012,1.8604,3,0.78887,0,0.5854
4,1,52,52,1.5,0.53548,0.77042,3,0.94779,0,0.49002
4,1,53,53,1.5,0.47931,1.4451,3,0.79844,1,0.51733
4,1,54,54,1.5,0.50928,1.54,3,0.76068,1,0.51697
4,1,55,55,1.5,0.58785,1.4118,3,0.93661,0,0.58346
4,1,56,56,1.5,0.50852,1.54,3,0.87364,0,0.79936
4,1,57,57,1.5,0.3998,1.3189,3,0.54409,1,0.96371
4,1,58,58,1.5,0.83181,1.7291,3,1.124,0,1.2125
4,1,59,59,1.5,3.5282,2.1839,3,1.2775,0,0.96515
4,1,60,60,1.5,0.59034,0.5008,2,1.2448,0,0.54053
4,2,1,61,3,0.51046,2.3421,2,1.2861,1,0.85644
4,2,2,62,3,0.69628,2.2579,2,1.1841,1,0.61759
4,2,3,63,3,0.49083,2.6136,3,1.102,1,0.64441
4,2,4,64,3,0.55768,2.4396,2,1.069,1,1.2825
4,2,5,65,3,0.55229,2.9716,3,0.81658,1,0.65578
4,2,6,66,3,0.47706,3.7052,2,0.78985,1,0.69967
4,2,7,67,3,0.56646,2.5318,3,0.77415,1,0.62484
4,2,8,68,3,0.82541,3.4645,2,0.71173,1,0.56475
4,2,9,69,3,0.47974,3.2947,2,0.72198,1,0.60014
4,2,10,70,3,0.70313,2.5722,2,0.78076,1,0.579
4,2,11,71,3,0.51954,4.3097,3,0.88031,1,0.64015
4,2,12,72,3,0.66021,3.5901,3,0.7687,1,0.55823
4,2,13,73,3,0.61725,3.4948,3,0.83461,1,0.60572
4,2,14,74,3,0.74742,2.3961,3,0.58835,1,0.87422
4,2,15,75,3,0.82363,3.4511,2,1.3858,1,0.53206
4,2,16,76,3,0.60867,2.5655,3,1.2255,1,0.55081
4,2,17,77,3,0.69652,2.32,2,0.86733,1,0.5563
4,2,18,78,3,0.56525,2.6679,2,0.72684,1,0.66591
4,2,19,79,3,1.0621,3.9917,2,0.54232,1,0.66464
4,2,20,80,3,0.90526,3.5116,3,0.45927,1,0.55404
4,2,21,81,3,0.46996,2.8351,3,0.4642,1,0.61791
4,2,22,82,3,0.89903,3.4422,3,0.54498,1,0.63903
4,2,23,83,3,0.5674,3.8834,3,0.40013,1,0.58216
4,2,24,84,3,0.74557,3.4804,2,1.0744,1,0.63749
4,2,25,85,3,0.99878,4.6045,2,0.74934,1,0.60568
4,2,26,86,3,0.64211,3.9645,2,0.5737,1,0.55084
4,2,27,87,3,1.1153,4.7211,3,0.4847,1,0.72072
4,2,28,88,3,0.59455,3.5566,2,0.67884,1,0.65148
4,2,29,89,3,0.97682,3.5775,3,0.64641,1,0.69143
4,2,30,90,3,1.6493,4.7564,3,0.62575,1,0.61586
4,2,31,91,3,0.56874,2.609,3,0.659,1,0.50245
4,2,32,92,3,0.6036,4.2977,3,0.59794,1,0.59061
4,2,33,93,3,0.44841,3.8688,3,0.72446,1,0.6008
4,2,34,94,3,0.50903,4.1661,2,0.94885,1,0.8294
4,2,35,95,3,0.35555,2.1247,3,0.69751,1,0.55392
4,2,36,96,3,0.39013,4.9022,1,1.4116,1,0.69098
4,2,37,97,3,0.45751,2.3902,3,0.69483,1,0.52683
4,2,38,98,3,0.47694,3.2179,3,0.52466,0,1.0385
4,2,39,99,3,0.45263,2.8716,3,0.7914,1,0.61426
4,2,40,100,3,0.37343,2.9263,3,0.73372,1,0.61958
4,2,41,101,3,0.59354,2.9659,2,1.4368,1,0.69524
4,2,42,102,3,0.36651,3.1204,2,0.45221,1,0.74712
4,2,43,103,3,0.39395,4.0301,2,0.62179,1,0.57332
4,2,44,104,3,0.4605,3.429,2,0.74815,1,0.59194
4,2,45,105,3,0.50149,3.5966,3,0.48539,1,0.59576
4,2,46,106,3,0.74592,3.9446,2,0.49451,1,0.7764
4,2,47,107,3,0.4815,2.2546,2,0.76929,0,1.1575
4,2,48,108,3,0.76916,4.5471,2,0.83314,1,0.76801
4,2,49,109,3,0.76788,3.9071,2,0.50333,1,0.75949
4,2,50,110,3,0.60531,3.2249,2,0.53082,1,0.57989
4,2,51,111,3,0.46606,1.8438,2,0.75079,0,0.7444
4,2,52,112,3,0.38678,3.9724,2,0.55271,1,1.897
4,2,53,113,3,0.55648,4.5253,3,0.55292,1,1.0471
4,2,54,114,3,1.0906,4.5875,2,0.75316,1,0.63382
4,2,55,115,3,0.54147,4.3511,3,0.4885,1,0.61284
4,2,56,116,3,0.41208,3.9317,2,1.1495,1,0.89094
4,2,57,117,3,0.60357,3.9351,2,1.1358,1,0.69514
4,2,58,118,3,0.45714,3.5392,3,0.72837,1,0.58955
4,2,59,119,3,0.7531,4.0721,3,0.46403,1,0.61745
4,2,60,120,3,0.60871,3.0526,2,3.7278,0,0.56959
4,3,1,121,3,0.42252,2.3513,2,0.65217,1,0.62037
4,3,2,122,1.5,0.57855,0.64296,2,0.5375,1,0.57228
4,3,3,123,3,0.40672,1.9889,2,0.63261,1,0.55628
4,3,4,124,3,0.3113,3.2189,2,0.56365,1,0.64067
4,3,5,125,1.5,0.42909,1.0822,2,0.7291,1,0.6642
4,3,6,126,3,0.33178,3.4555,2,1.3032,0,0.77043
4,3,7,127,3,0.92348,3.4125,2,0.686,1,0.75921
4,3,8,128,3,1.4288,3.9266,2,0.94597,1,0.83891
4,3,9,129,3,0.37026,1.724,2,0.69746,0,1.1918
4,3,10,130,1.5,0.79422,1.9923,2,0.57386,1,0.86334
4,3,11,131,3,0.39187,2.6772,3,0.49864,1,0.69271
4,3,12,132,1.5,0.9973,0.93167,2,0.91721,0,0.83073
4,3,13,133,3,0.56797,3.2963,2,0.78659,0,1.409
4,3,14,134,1.5,0.59488,1.4187,2,0.64257,0,0.86654
4,3,15,135,3,0.36552,3.7443,1,1.6699,0,0.869
4,3,16,136,3,0.43216,3.7561,2,1.154,1,0.7957
4,3,17,137,1.5,0.83987,2.2134,2,1.1978,0,0.68948
4,3,18,138,1.5,0.39681,1.5328,2,0.64022,0,0.76402
4,3,19,139,1.5,0.84269,1.2663,2,0.64097,1,0.65173
4,3,20,140,3,0.44216,2.2529,2,0.617,0,1.1815
4,3,21,141,3,0.4296,3.2578,2,0.65604,1,2.0618
4,3,22,142,1.5,0.56306,2.1942,2,1.551,0,0.84111
4,3,23,143,3,0.43263,2.7315,2,0.72844,1,0.97596
4,3,24,144,3,0.50851,2.2026,2,0.71781,1,0.61944
4,3,25,145,1.5,0.59701,2.3574,2,0.65875,0,0.81486
4,3,26,146,3,0.3857,1.8968,2,0.66223,0,0.5395
4,3,27,147,1.5,0.53673,1.6476,2,0.6384,1,0.77387
4,3,28,148,1.5,0.41199,2.4811,2,0.74811,0,0.60535
4,3,29,149,3,0.52264,3.0633,2,0.83758,0,0.85945
4,3,30,150,3,0.58136,2.8551,2,1.2037,1,0.98459
4,3,31,151,1.5,0.39142,1.1778,2,0.72394,1,0.66321
4,3,32,152,3,0.33614,1.9349,2,0.62973,1,0.82684
4,3,33,153,1.5,0.43457,1.5204,3,0.64574,0,0.50129
4,3,34,154,1.5,0.27484,1.69,2,0.5605,1,0.55
4,3,35,155,3,0.49232,2.9282,3,0.58672,1,0.62269
4,3,36,156,1.5,0.44827,1.2926,2,0.83761,1,0.58546
4,3,37,157,1.5,0.39745,1.717,3,0.41521,1,0.65617
4,3,38,158,3,0.58094,3.7049,3,0.5524,1,1.3965
4,3,39,159,1.5,0.78207,1.6548,2,0.6084,0,0.51545
4,3,40,160,3,0.38617,3.0089,2,0.93337,1,0.65548
4,3,41,161,3,0.62088,2.7728,2,1.1445,0,0.51506
4,3,42,162,1.5,0.73578,2.4213,3,0.681,1,0.57838
4,3,43,163,3,0.79608,3.2301,2,0.52533,1,0.56442
4,3,44,164,3,0.65895,4.1518,2,0.52296,1,0.56276
4,3,45,165,1.5,0.59767,4.1291,2,0.79639,1,1.0392
4,3,46,166,3,0.49406,5.0797,1,1.1315,1,0.72829
4,3,47,167,3,0.41783,1.6837,2,0.69139,0,0.57583
4,3,48,168,1.5,0.68032,2.357,2,0.58322,1,0.5821
4,3,49,169,1.5,0.4955,1.0558,2,0.69946,0,0.85539
4,3,50,170,1.5,0.70516,1.2612,2,0.73562,1,0.62141
4,3,51,171,1.5,0.37173,1.2999,2,0.74167,1,0.66482
4,3,52,172,1.5,0.28612,1.7842,2,0.69231,1,0.90172
4,3,53,173,3,0.44745,3.4415,2,0.89415,0,1.1042
4,3,54,174,3,0.40692,2.9005,3,0.68745,1,0.6488
4,3,55,175,3,0.32863,3.4581,3,0.55492,0,0.53739
4,3,56,176,3,0.38427,3.2828,2,1.3386,1,0.74815
4,3,57,177,1.5,0.62657,1.3915,2,0.78743,0,0.72334
4,3,58,178,3,0.4902,4.3764,2,0.51627,1,0.59405
4,3,59,179,3,0.37435,3.2031,2,0.96469,1,0.69016
4,3,60,180,1.5,0.46276,1.4073,2,0.66085,1,0.64192
4,3,61,181,3,0.41761,2.0839,2,0.7145,1,0.6664
4,3,62,182,1.5,0.87224,2.073,3,0.72202,1,0.54886
4,3,63,183,3,0.42022,3.8604,2,0.81875,1,0.69544
4,3,64,184,3,0.40081,3.5704,2,0.8254,1,0.6515
4,3,65,185,3,0.42541,3.5291,3,0.77222,1,0.59973
4,3,66,186,3,0.42403,4.315,3,1.1354,1,0.89421
4,3,67,187,3,0.48053,3.6291,3,0.6475,1,0.65396
4,3,68,188,3,0.44599,4.3825,2,0.52354,1,0.58842
4,3,69,189,1.5,0.7141,6.2327,1,1.2182,1,0.69331
4,3,70,190,1.5,0.49771,0.8798,2,1.652,0,0.59236
4,3,71,191,1.5,0.41521,1.9176,2,0.62808,0,0.51424
4,3,72,192,1.5,0.51627,1.1677,2,0.63179,0,0.5176
4,3,73,193,3,0.40572,3.2252,2,0.78142,0,0.5169
4,3,74,194,1.5,0.45866,1.5533,2,0.61964,0,0.54673
4,3,75,195,3,0.77351,2.9877,2,1.2659,1,0.69127
4,3,76,196,1.5,0.40428,2.4866,2,0.89197,0,0.63825
4,3,77,197,1.5,0.44336,1.5178,2,0.7805,1,0.5899
4,3,78,198,1.5,0.45764,1.7392,2,0.54631,1,0.54019
4,3,79,199,1.5,0.42484,0.68973,2,0.58853,0,0.46133
4,3,80,200,1.5,0.42462,1.515,2,0.65202,1,0.57107
4,3,81,201,1.5,0.62707,2.5297,2,1.0621,1,0.78886
4,3,82,202,1.5,0.89687,2.1568,2,0.78402,0,0.84407
4,3,83,203,3,0.29394,2.7549,3,0.74362,1,0.6538
4,3,84,204,1.5,0.38675,1.7983,2,0.51362,0,0.57865
4,3,85,205,3,0.27943,2.3333,2,0.62577,1,0.5155
4,3,86,206,3,0.37457,3.4525,2,0.80151,1,0.57001
4,3,87,207,1.5,0.50434,1.536,2,0.86846,0,0.5947
4,3,88,208,1.5,0.42566,1.402,2,0.70736,1,0.8395
4,3,89,209,1.5,0.42403,3.2262,1,0.90789,1,0.76377
4,3,90,210,1.5,0.48878,1.0133,2,0.60117,1,0.60747
5,1,1,1,1.5,0.85375,1.1087,2,2.7129,0,1.4262
5,1,2,2,1.5,0.83331,1.3052,3,1.26,1,0.67678
5,1,3,3,1.5,0.3485,1.0312,3,0.85303,1,0.8332
5,1,4,4,1.5,0.71245,1.694,3,1.738,1,4.2588
5,1,5,5,1.5,0.96122,1.5917,2,2.0114,1,0.62648
5,1,6,6,1.5,0.58168,1.5674,2,1.8282,1,0.90189
5,1,7,7,1.5,0.7905,1.776,3,1.288,0,4.5969
5,1,8,8,1.5,1.6274,1.951,3,2.4662,0,4.1676
5,1,9,9,1.5,1.2134,1.8567,2,1.5839,1,0.66726
5,1,10,10,1.5,0.84539,1.856,2,7.008,1,1.5257
5,1,11,11,1.5,0.78329,0.86903,2,3.1831,0,0.41372
5,1,12,12,1.5,0.91885,1.1709,2,1.3085,0,0.54984
5,1,13,13,1.5,0.79988,1.0071,2,2.0742,0,0.65967
5,1,14,14,1.5,0.72903,1.6568,3,1.7472,1,1.504
5,1,15,15,1.5,0.77117,1.3983,2,1.6398,0,3.3725
5,1,16,16,1.5,0.47529,1.452,3,1.5442,1,4.3012
5,1,17,17,1.5,0.59238,1.3153,3,1.5153,1,0.52753
5,1,18,18,1.5,0.48113,1.1045,3,1.4345,0,0.55553
5,1,19,19,1.5,0.62173,1.2352,2,3.4566,0,0.64232
5,1,20,20,1.5,0.81666,0.86797,1,2.1824,0,0.80123
5,1,21,21,1.5,0.29931,0.95623,1,2.0629,0,0.95083
5,1,22,22,1.5,0.7155,1.5421,3,1.9511,1,0.63977
5,1,23,23,1.5,1.8544,1.7199,3,4.9319,1,1.1577
5,1,24,24,1.5,0.37154,1.0243,2,1.4511,0,0.70473
5,1,25,25,1.5,0.53518,1.7082,3,1.1485,1,1.6162
5,1,26,26,1.5,1.9597,1.5755,2,1.8368,0,0.53185
5,1,27,27,1.5,0.66299,1.5067,3,1.6229,1,3.1724
5,1,28,28,1.5,0.68156,1.4292,3,1.3508,0,0.48007
5,1,29,29,1.5,0.55969,1.442,2,1.4248,0,0.44985
5,1,30,30,1.5,0.61813,1.5204,3,1.632,1,0.66476
5,1,31,31,1.5,5.5462,1.2662,3,0.92949,0,0.52676
5,1,32,32,1.5,0.99902,1.417,3,0.97935,1,2.0131
5,1,33,33,1.5,0.64693,1.8448,3,1.7015,1,0.82957
5,1,34,34,1.5,0.76985,1.3337,2,5.9422,1,1.6285
5,1,35,35,1.5,1.4316,2.27,3,1.1423,1,3.3133
5,1,36,36,1.5,1.1891,2.2358,3,4.1297,1,5.584
5,1,37,37,1.5,1.1282,1.0286,3,1.8136,0,0.704
5,1,38,38,1.5,1.8731,1.5472,3,1.5756,1,0.66326
5,1,39,39,1.5,0.82102,1.5472,2,1.5133,0,5.0179
5,1,40,40,1.5,0.69734,1.3444,3,1.8278,0,0.42619
5,1,41,41,1.5,0.74908,1.8048,2,1.745,1,0.55205
5,1,42,42,1.5,1.1208,1.2217,3,1.4221,0,0.25949
5,1,43,43,1.5,0.67253,1.4002,3,1.7538,0,2.9699
5,1,44,44,1.5,0.63342,1.4186,2,1.3697,0,0.5314
5,1,45,45,1.5,0.57255,1.6012,3,1.5535,1,0.49576
5,1,46,46,1.5,0.56987,0.99684,3,1.702,0,0.55486
5,1,47,47,1.5,1.6548,1.1709,2,2.6586,0,0.68432
5,1,48,48,1.5,1.315,1.3938,2,3.6642,0,0.69994
5,1,49,49,1.5,0.65808,1.7896,2,9.6717,1,4.464
5,1,50,50,1.5,1.0098,1.0156,2,1.8916,0,1.8855
5,1,51,51,1.5,0.49784,1.2293,2,1.5256,0,0.76368
5,1,52,52,1.5,0.5571,1.5765,2,1.7755,1,0.64875
5,1,53,53,1.5,0.66524,1.4544,3,1.4331,1,3.9544
5,1,54,54,1.5,0.59848,1.5166,3,1.3417,0,1.9879
5,1,55,55,1.5,0.88262,1.1677,2,2.0305,0,0.64161
5,1,56,56,1.5,0.63365,1.4932,3,1.5382,0,1.934
5,1,57,57,1.5,0.5595,1.4522,2,6.382,0,2.3926
5,1,58,58,1.5,0.69857,1.1427,3,2.0631,1,1.4408
5,1,59,59,1.5,0.53848,1.6124,3,1.1739,1,0.62401
5,1,60,60,1.5,1.0733,1.3374,3,1.4704,0,2.0573
5,2,1,61,3,1.5298,3.3037,3,1.3284,1,2.0027
5,2,2,62,3,0.92449,3.9133,3,1.4354,1,2.2557
5,2,3,63,3,0.79507,2.2182,2,1.367,0,1.29
5,2,4,64,3,0.8497,2.3939,3,1.2738,1,0.79997
5,2,5,65,3,0.64659,2.0581,1,2.1978,0,1.0538
5,2,6,66,3,0.62252,2.412,2,1.8887,1,1.4195
5,2,7,67,3,0.59985,2.4697,3,1.353,1,1.1445
5,2,8,68,3,0.77516,3.0893,2,1.3427,0,2.7263
5,2,9,69,3,0.71007,2.5895,3,1.5208,1,0.53308
5,2,10,70,3,0.72473,2.8643,2,1.8135,0,0.57876
5,2,11,71,3,0.89259,2.5772,3,0.84947,1,1.9923
5,2,12,72,3,0.97451,3.9011,3,1.4758,1,0.65136
5,2,13,73,3,0.26496,2.7052,2,1.7188,0,2.0426
5,2,14,74,3,2.8833,3.8279,2,2.035,0,0.67881
5,2,15,75,3,0.94273,2.4402,2,2.1082,0,0.69802
5,2,16,76,3,0.97904,2.7926,2,4.4219,1,0.95478
5,2,17,77,3,0.88399,2.756,3,1.4183,1,0.66804
5,2,18,78,3,1.4866,3.0576,2,1.6189,1,0.58089
5,2,19,79,3,0.88391,2.8318,2,1.9847,0,1.2672
5,2,20,80,3,0.60332,2.5468,3,0.72711,1,0.71591
5,2,21,81,3,0.9188,2.8835,3,2.6996,0,1.0044
5,2,22,82,3,1.8153,3.1686,2,1.8641,1,0.85337
5,2,23,83,3,0.73539,2.2831,3,1.6512,1,1.8421
5,2,24,84,3,0.70631,2.6247,2,2.0966,1,1.1774
5,2,25,85,3,0.87326,2.6995,1,2.0376,0,1.4558
5,2,26,86,3,0.67088,6.0728,1,1.2878,1,1.0095
5,2,27,87,3,0.60602,2.4617,2,3.626,0,1.3061
5,2,28,88,3,1.3529,2.9065,2,1.6062,1,1.8228
5,2,29,89,3,1.381,2.9684,3,2.3635,0,0.82652
5,2,30,90,3,0.53364,2.52,2,4.9286,1,3.644
5,2,31,91,3,0.59061,2.8757,2,1.3838,1,0.92965
5,2,32,92,3,0.50402,2.723,1,3.8324,1,10.387
5,2,33,93,3,0.76725,2.1195,2,2.4176,0,0.18889
5,2,34,94,3,0.6691,2.409,2,3.8731,1,1.2534
5,2,35,95,3,0.80093,3.4811,3,1.4754,1,0.83686
5,2,36,96,3,0.49682,2.5584,3,6.2838,1,1.457
5,2,37,97,3,0.61944,3.0964,1,1.6115,0,0.68959
5,2,38,98,3,1.1681,2.7575,2,3.295,1,1.3222
5,2,39,99,3,1.3322,3.7324,2,1.5756,1,0.48772
5,2,40,100,3,0.98042,1.9814,3,1.0881,1,2.0338
5,2,41,101,3,0.76935,2.659,2,2.3214,1,4.0812
5,2,42,102,3,0.55644,2.8006,2,4.1376,0,5.6178
5,2,43,103,3,0.65747,2.8883,1,2.9413,0,1.0327
5,2,44,104,3,0.58186,2.9679,3,1.4382,1,0.54646
5,2,45,105,3,0.78111,2.5079,2,1.5708,0,1.2578
5,2,46,106,3,0.54432,2.9436,2,1.4587,0,0.5505
5,2,47,107,3,0.76201,2.1054,2,6.4574,0,1.5508
5,2,48,108,3,0.40144,2.9206,2,1.5542,1,1.3573
5,2,49,109,3,0.74083,2.839,3,0.68041,1,0.71615
5,2,50,110,3,0.65769,2.8013,2,4.3651,1,1.147
5,2,51,111,3,0.36245,3.4313,2,3.3504,1,0.67785
5,2,52,112,3,0.55335,2.935,2,1.4888,1,0.65949
5,2,53,113,3,0.39702,3.1661,3,1.499,1,0.96527
5,2,54,114,3,1.084,3.2308,3,2.5627,1,0.027128
5,2,55,115,3,1.8601,2.9514,1,1.6374,1,0.383
5,2,56,116,3,0.46537,2.5676,2,1.7391,1,0.8209
5,2,57,117,3,0.35411,3.7987,3,1.8125,1,0.21566
5,2,58,118,3,0.64145,2.7649,2,1.9763,0,0.41357
5,2,59,119,3,0.61805,4.0203,1,1.6001,1,0.37876
5,2,60,120,3,0.40937,2.9159,2,1.2366,1,0.4836
5,3,1,121,1.5,0.53991,1.3262,2,2.076,0,0.37467
5,3,2,122,1.5,0.40008,1.4329,3,0.42788,1,0.4636
5,3,3,123,3,0.50813,3.0889,2,0.692,1,0.46509
5,3,4,124,3,0.37517,2.8153,2,1.4035,1,1.319
5,3,5,125,3,0.38416,2.7456,2,1.2492,1,0.77846
5,3,6,126,3,0.47588,2.6656,2,1.3496,1,0.70384
5,3,7,127,3,1.1865,3.2079,2,1.8437,1,2.5018
5,3,8,128,1.5,0.59422,1.2299,3,2.9642,1,1.3513
5,3,9,129,3,0.44126,2.5411,2,1.6704,1,5.7574
5,3,10,130,3,0.61825,2.5832,2,1.6251,1,3.3997
5,3,11,131,3,0.41523,3.081,2,1.0877,1,0.84647
5,3,12,132,1.5,0.84102,2.6008,3,2.0898,0,0.58348
5,3,13,133,3,0.71961,3.5725,2,1.9652,1,2.4266
5,3,14,134,1.5,0.6845,1.7569,2,4.0231,0,0.70292
5,3,15,135,1.5,1.1086,1.3756,2,2.4637,0,2.614
5,3,16,136,1.5,0.60092,1.932,3,1.1391,1,0.26048
5,3,17,137,1.5,0.60187,1.4949,3,1.3869,1,0.80699
5,3,18,138,1.5,1.2096,1.4149,2,1.4513,0,0.44334
5,3,19,139,3,0.37002,3.2355,2,1.338,1,0.99746
5,3,20,140,3,0.39389,2.7173,2,2.2643,1,0.60336
5,3,21,141,3,0.63999,2.2257,2,2.1604,0,0.63737
5,3,22,142,1.5,0.39867,1.6048,2,5.6209,1,2.7627
5,3,23,143,3,0.5321,3.743,3,2.5691,1,1.4152
5,3,24,144,3,0.32181,2.3369,2,1.6173,0,0.41669
5,3,25,145,3,0.57996,2.3318,2,1.8375,0,1.1446
5,3,26,146,1.5,0.6177,1.3837,2,1.5536,0,0.63317
5,3,27,147,1.5,0.49083,1.1765,1,4.439,0,0.97578
5,3,28,148,3,0.47981,2.982,3,0.7898,1,0.63749
5,3,29,149,3,0.91376,2.5819,2,1.4121,1,1.0036
5,3,30,150,1.5,0.68215,0.93115,1,2.1146,0,0.52981
5,3,31,151,3,0.41135,2.805,2,3.7181,0,1.0637
5,3,32,152,3,1.0304,2.8567,2,1.7686,1,0.89259
5,3,33,153,3,0.44103,2.7655,2,5.7898,0,0.8026
5,3,34,154,1.5,0.72647,2.5783,2,2.1626,1,0.82657
5,3,35,155,3,0.35583,3.2883,3,1.7901,1,0.38487
5,3,36,156,1.5,0.86228,1.8814,2,1.3753,1,0.5382
5,3,37,157,3,0.74547,2.8809,1,1.8377,1,1.0082
5,3,38,158,3,0.32375,2.364,1,1.2745,1,0.41186
5,3,39,159,1.5,0.54904,1.8307,2,3.9743,1,1.429
5,3,40,160,3,0.58738,3.035,1,0.80086,1,0.29487
5,3,41,161,1.5,0.77997,1.1568,3,1.2738,1,0.37387
5,3,42,162,1.5,0.81921,1.1828,3,0.72894,1,0.36405
5,3,43,163,1.5,0.38386,1.6089,2,1.3368,1,0.97053
5,3,44,164,3,0.65894,2.4272,2,1.4379,0,0.421
5,3,45,165,3,0.84574,3.3568,1,1.8669,0,0.60223
5,3,46,166,1.5,0.62889,2.2053,3,1.3196,1,0.20783
5,3,47,167,1.5,0.52286,1.0383,1,1.4225,0,0.60955
5,3,48,168,1.5,0.4188,1.9092,2,1.5612,1,0.65224
5,3,49,169,3,0.46365,3.7963,2,1.6099,1,0.31271
5,3,50,170,1.5,0.52409,1.3518,2,1.2809,0,0.50237
5,3,51,171,3,2.948,1.9773,3,0.68735,0,0.8227
5,3,52,172,3,0.53311,2.5187,3,3.7279,1,1.0704
5,3,53,173,3,1.2096,2.4146,2,1.1735,0,0.74903
5,3,54,174,1.5,1.3869,3.1587,2,1.3692,0,0.45673
5,3,55,175,3,0.44684,2.7321,2,0.91547,1,0.7803
5,3,56,176,1.5,0.39702,1.3798,2,3.6254,0,0.65574
5,3,57,177,3,0.55703,2.763,1,1.4639,0,0.51279
5,3,58,178,3,0.3813,2.3296,2,1.4387,1,0.27253
5,3,59,179,3,0.33598,2.81,2,1.8603,0,3.7255
5,3,60,180,3,0.54902,2.3817,2,1.0485,1,0.64202
5,3,61,181,3,0.32319,2.4886,2,1.4689,0,6.1433
5,3,62,182,3,0.38298,2.3945,2,3.6619,0,0.57182
5,3,63,183,1.5,0.49031,2.688,1,4.3806,0,0.73336
5,3,64,184,3,0.31831,3.2593,2,1.5337,1,1.5913
5,3,65,185,1.5,0.63449,2.1583,3,1.0476,1,0.32761
5,3,66,186,1.5,0.59358,1.4784,3,0.86275,0,0.75191
5,3,67,187,1.5,0.43737,1.6123,2,2.5737,1,1.0325
5,3,68,188,1.5,2.3886,1.6697,2,1.0933,1,0.35209
5,3,69,189,3,0.29904,2.9185,3,0.67703,1,1.5788
5,3,70,190,3,0.45345,2.835,2,1.377,0,2.5134
5,3,71,191,1.5,0.50171,1.7962,2,6.2991,1,0.99289
5,3,72,192,3,0.38351,3.2316,1,1.8017,1,1.88
5,3,73,193,3,1.834,3.2341,3,1.7112,1,0.51484
5,3,74,194,1.5,1.3265,1.8025,2,1.4429,1,1.2003
5,3,75,195,1.5,1.0118,1.5298,3,1.2631,0,1.3627
5,3,76,196,1.5,1.4039,1.9197,1,1.631,1,0.50108
5,3,77,197,1.5,0.61446,1.3304,3,6.388,1,1.2987
5,3,78,198,3,0.47954,3.0579,1,1.8436,1,0.58886
5,3,79,199,1.5,0.41608,1.6188,2,2.7175,1,0.58972
5,3,80,200,3,0.53999,2.3881,3,1.6682,1,0.51749
5,3,81,201,1.5,0.39725,1.3291,3,1.5116,1,0.97829
5,3,82,202,1.5,0.37937,1.4949,2,2.0613,1,0.62672
5,3,83,203,1.5,0.35242,1.4099,2,35.564,1,0.82963
5,3,84,204,1.5,0.37226,1.0743,1,1.5879,0,0.70821
5,3,85,205,1.5,0.32572,1.6162,2,9.0919,1,1.0052
5,3,86,206,3,0.38978,3.3883,1,4.2156,1,0.76252
5,3,87,207,1.5,0.32119,2.0989,1,1.4145,1,0.26349
5,3,88,208,1.5,0.68506,2.2196,3,1.8551,1,1.308
5,3,89,209,1.5,0.42458,2.3775,1,1.1995,1,0.26737
5,3,90,210,1.5,0.40441,1.6361,2,5.819,0,0.63469
6,1,1,1,1.5,1.0266,2.066,3,1.3893,1,1.7717
6,1,2,2,1.5,0.62314,1.3639,2,1.9257,0,2.5489
6,1,3,3,1.5,0.71406,1.5575,3,1.7999,1,1.8527
6,1,4,4,1.5,0.50789,1.8889,3,1.8842,0,0.65303
6,1,5,5,1.5,0.44163,2.4661,2,1.8368,1,1.8563
6,1,6,6,1.5,0.56673,1.619,2,2.6676,1,1.4385
6,1,7,7,1.5,0.44167,1.6646,3,1.502,1,0.96817
6,1,8,8,1.5,0.60859,1.6288,2,3.2646,1,2.1017
6,1,9,9,1.5,0.3809,1.8294,1,1.1649,1,0.56669
6,1,10,10,1.5,0.69455,2.0553,2,2.1189,1,0.80511
6,1,11,11,1.5,0.6883,2.2984,1,3.5377,0,1.3133
6,1,12,12,1.5,0.59554,1.6942,2,1.6019,1,1.6174
6,1,13,13,1.5,0.55367,1.5849,1,3.0552,0,1.067
6,1,14,14,1.5,0.26732,1.5075,2,4.2496,1,4.8994
6,1,15,15,1.5,0.27181,1.4756,1,1.7999,0,0.86546
6,1,16,16,1.5,0.43733,1.6357,2,1.4436,1,0.58959
6,1,17,17,1.5,0.56558,2.2057,1,1.4319,1,0.578
6,1,18,18,1.5,0.48696,1.3855,3,1.7813,0,0.70098
6,1,19,19,1.5,0.67668,1.803,3,4.1319,1,2.4363
6,1,20,20,1.5,0.43152,1.58,3,2.575,0,0.50979
6,1,21,21,1.5,0.3435,1.9801,1,2.0861,1,0.85576
6,1,22,22,1.5,0.28797,1.6869,1,1.4694,1,0.51948
6,1,23,23,1.5,0.25744,1.0785,3,2.0989,0,0.62656
6,1,24,24,1.5,0.34869,1.1678,2,1.0939,0,1.7898
6,1,25,25,1.5,0.28815,1.4628,2,1.3252,0,0.62461
6,1,26,26,1.5,0.25897,1.2544,3,2.1847,1,0.60204
6,1,27,27,1.5,0.33696,1.3354,1,1.1313,0,2.2398
6,1,28,28,1.5,0.3117,1.4823,2,0.73948,1,1.1375
6,1,29,29,1.5,0.33283,1.5691,2,1.1943,0,1.6903
6,1,30,30,1.5,0.36829,1.3956,2,2.2255,0,2.2971
6,1,31,31,1.5,0.47403,2.1279,1,1.4258,1,0.56305
6,1,32,32,1.5,0.25926,1.3799,2,1.5393,0,0.8345
6,1,33,33,1.5,0.68828,1.7365,2,2.4562,1,0.50663
6,1,34,34,1.5,0.83727,1.747,3,3.2496,1,2.5515
6,1,35,35,1.5,0.51356,2.234,2,4.5522,1,2.0258
6,1,36,36,1.5,0.45797,1.6032,3,2.4441,1,2.2373
6,1,37,37,1.5,0.37003,1.398,3,2.2772,0,0.49893
6,1,38,38,1.5,0.39265,1.0045,2,1.1722,0,0.87324
6,1,39,39,1.5,0.52724,1.418,3,1.442,1,1.8877
6,1,40,40,1.5,0.30126,1.8202,2,1.5696,1,0.76923
6,1,41,41,1.5,0.50241,1.3088,3,1.1383,0,0.57294
6,1,42,42,1.5,0.3898,3.476,1,1.5202,1,1.0447
6,1,43,43,1.5,0.31954,1.4215,2,1.4973,0,0.5884
6,1,44,44,1.5,0.33547,2.4969,1,1.1717,0,0.56016
6,1,45,45,1.5,0.43604,1.2966,3,1.589,0,3.7843
6,1,46,46,1.5,0.60462,1.5997,2,1.8154,0,0.58922
6,1,47,47,1.5,0.43997,1.6767,2,2.9124,0,1.2496
6,1,48,48,1.5,0.22365,1.1777,2,3.5738,0,0.60402
6,1,49,49,1.5,0.51272,1.433,2,2.2283,1,0.42546
6,1,50,50,1.5,0.36537,1.6296,3,2.9625,1,0.80067
6,1,51,51,1.5,0.30361,1.6989,2,4.0393,1,0.65228
6,1,52,52,1.5,0.33191,1.3816,2,1.5773,1,0.589
6,1,53,53,1.5,0.34346,1.4431,3,4.8512,1,1.8362
6,1,54,54,1.5,0.40012,1.5709,3,1.6818,1,1.0146
6,1,55,55,1.5,0.4889,1.4998,2,6.7538,1,1.1588
6,1,56,56,1.5,0.57548,1.4276,3,1.8889,0,0.67261
6,1,57,57,1.5,0.35609,1.4006,3,1.6418,1,0.41226
6,1,58,58,1.5,0.48498,1.6709,2,6.1587,1,2.1147
6,1,59,59,1.5,0.58217,1.5176,2,1.8677,0,0.54024
6,1,60,60,1.5,0.28787,1.5249,2,4.424,1,0.57666
6,2,1,61,3,3.3391,3.179,1,2.2118,1,1.2754
6,2,2,62,3,0.53446,4.4201,1,1.0739,1,0.41221
6,2,3,63,3,0.49508,2.6942,2,3.3984,0,0.28905
6,2,4,64,3,0.45421,2.5373,2,3.3787,1,0.41106
6,2,5,65,3,0.64955,2.9678,3,3.6135,1,0.098234
6,2,6,66,3,0.70421,2.7849,3,2.5646,1,0.75275
6,2,7,67,3,0.6989,3.4554,2,2.0405,1,1.1981
6,2,8,68,3,0.36426,2.6665,2,1.9252,1,0.58695
6,2,9,69,3,0.54406,3.0547,1,3.6544,1,1.0517
6,2,10,70,3,0.30162,2.6723,2,2.8682,0,0.47674
6,2,11,71,3,0.68032,3.0318,1,3.4775,0,0.50813
6,2,12,72,3,0.43458,3.0337,1,10.424,1,0.85186
6,2,13,73,3,0.3806,3.0796,2,3.8742,1,0.66719
6,2,14,74,3,0.42236,2.85,2,2.4756,0,0.46005
6,2,15,75,3,0.7402,2.9136,1,0.86384,1,0.41419
6,2,16,76,3,0.67,2.0472,2,2.5618,0,0.68669
6,2,17,77,3,0.44108,2.9649,1,2.4346,0,0.46465
6,2,18,78,3,0.53128,4.9296,1,0.89389,1,0.79194
6,2,19,79,3,0.36556,2.9809,1,3.8639,1,1.6356
6,2,20,80,3,0.78023,2.4575,3,1.5958,0,0.56558
6,2,21,81,3,0.59518,2.7568,3,0.83136,0,1.0039
6,2,22,82,3,0.45743,3.0017,2,0.56422,1,0.64038
6,2,23,83,3,0.65675,2.8127,3,1.9878,1,1.1689
6,2,24,84,3,0.38805,2.2501,3,2.5519,0,0.5642
6,2,25,85,3,0.60995,3.6284,2,2.0974,0,0.51633
6,2,26,86,3,0.5747,3.5402,1,1.7539,1,1.0072
6,2,27,87,3,0.56864,3.0969,2,3.1997,1,0.72857
6,2,28,88,3,0.49192,3.0404,2,3.7063,0,1.691
6,2,29,89,3,0.40055,2.9462,1,4.9739,1,0.55085
6,2,30,90,3,0.43926,0.31289,1,2.1662,0,0.46304
6,2,31,91,3,0.6383,4.2368,1,2.0613,0,0.55034
6,2,32,92,3,2.664,4.8405,1,0.80134,1,0.41964
6,2,33,93,3,0.73455,3.6943,1,1.0716,1,0.39812
6,2,34,94,3,1.8632,2.9781,2,1.5864,0,0.86914
6,2,35,95,3,0.48335,3.3939,2,3.1206,0,1.0537
6,2,36,96,3,0.7351,3.7202,1,1.4507,1,0.62944
6,2,37,97,3,0.35785,2.6768,2,5.2112,1,1.0159
6,2,38,98,3,0.3325,3.5189,2,2.1628,1,1.0271
6,2,39,99,3,0.37806,2.68,2,1.389,0,0.57318
6,2,40,100,3,0.47306,2.1133,2,0.57793,0,0.51358
6,2,41,101,3,0.39759,2.2559,2,1.5066,0,0.81118
6,2,42,102,3,0.42777,2.8817,2,2.4267,1,0.42337
6,2,43,103,3,0.80318,3.3723,2,0.85353,0,0.82128
6,2,44,104,3,0.71677,3.2692,3,0.51317,0,1.0655
6,2,45,105,3,1.3969,4.3421,3,0.57937,0,1.3399
6,2,46,106,3,0.98246,4.2165,2,0.88756,0,1.6094
6,2,47,107,3,0.39931,3.0807,3,3.1009,1,0.4915
6,2,48,108,3,1.0117,4.7046,1,0.87382,1,0.37582
6,2,49,109,3,0.61537,2.6187,3,0.57697,1,0.60385
6,2,50,110,3,0.79153,3.1508,3,2.038,1,0.63229
6,2,51,111,3,0.55215,3.6208,2,1.389,1,0.59802
6,2,52,112,3,0.51456,2.5544,3,0.4929,1,0.66606
6,2,53,113,3,1.4479,5.2688,1,0.94869,1,0.62914
6,2,54,114,3,0.59603,3.3442,2,4.7719,1,0.9783
6,2,55,115,3,1.3658,2.3701,2,1.2166,0,0.86687
6,2,56,116,3,0.37678,2.9682,3,0.43752,0,1.0494
6,2,57,117,3,0.31998,2.6858,3,0.51441,0,0.7181
6,2,58,118,3,0.83108,2.5444,3,0.59937,0,0.89448
6,2,59,119,3,0.65499,2.4,3,0.72632,0,2.3901
6,2,60,120,3,0.70232,3.5594,2,1.1446,1,1.1275
6,3,1,121,1.5,0.48121,2.0927,2,7.6861,1,0.10483
6,3,2,122,1.5,0.89809,3.1082,2,2.5832,1,0.54202
6,3,3,123,3,0.36809,2.3455,3,0.55162,1,1.2952
6,3,4,124,3,0.48848,2.3366,1,2.4177,1,0.10183
6,3,5,125,3,0.38435,3.0337,2,1.9243,1,0.15985
6,3,6,126,3,0.35233,3.3851,2,2.999,1,0.13905
6,3,7,127,1.5,0.47708,1.2795,2,1.3513,1,0.33067
6,3,8,128,1.5,0.36497,1.2436,2,1.9269,0,0.10049
6,3,9,129,3,0.34871,2.5063,2,1.2441,1,0.14027
6,3,10,130,1.5,0.32699,1.7549,2,0.85748,0,0.56422
6,3,11,131,3,0.25399,7.5483,1,0.96383,1,0.56476
6,3,12,132,1.5,0.49131,2.0399,1,1.7338,1,0.61672
6,3,13,133,3,0.92443,2.8021,2,0.92589,1,0.46515
6,3,14,134,1.5,1.2707,1.7588,2,1.0619,0,0.62973
6,3,15,135,1.5,0.6914,1.6769,2,1.7373,1,0.57015
6,3,16,136,3,0.96678,2.4307,2,1.248,1,0.80243
6,3,17,137,3,0.65263,3.3215,2,0.54053,1,0.48878
6,3,18,138,3,0.44014,3.5769,2,1.4072,1,0.57318
6,3,19,139,3,0.51942,2.9976,2,2.6258,1,0.14708
6,3,20,140,1.5,0.48776,1.3859,2,0.49369,0,0.75498
6,3,21,141,3,0.32996,3.1457,2,1.7741,0,0.17359
6,3,22,142,3,0.65838,2.7903,3,1.1691,1,0.42027
6,3,23,143,1.5,2.6547,2.743,1,1.5215,1,0.77084
6,3,24,144,1.5,0.49259,1.3402,2,0.94951,0,0.66735
6,3,25,145,1.5,0.39887,1.0426,2,0.5984,0,0.37938
6,3,26,146,1.5,0.26077,1.4804,2,0.82633,0,0.53851
6,3,27,147,3,0.40398,2.4106,2,0.76286,0,0.47616
6,3,28,148,1.5,0.54892,1.1805,3,2.0141,0,0.45456
6,3,29,149,3,0.43059,2.8786,2,1.4496,1,0.1661
6,3,30,150,3,0.37608,6.5174,1,0.6817,1,0.31671
6,3,31,151,3,0.28674,2.1237,3,1.2215,1,0.096975
6,3,32,152,3,0.49082,2.6638,3,0.87657,1,0.066409
6,3,33,153,1.5,0.39888,1.1853,2,1.2561,0,0.13614
6,3,34,154,1.5,2.11,1.3371,2,0.38238,0,0.45654
6,3,35,155,1.5,0.36626,1.094,2,0.44896,0,0.4936
6,3,36,156,3,0.34574,3.0193,2,0.43972,0,0.62512
6,3,37,157,1.5,0.43872,1.162,2,1.1125,0,0.25177
6,3,38,158,3,0.04524,2.2074,2,1.5091,0,0.53829
6,3,39,159,1.5,0.95036,1.9549,2,0.74496,1,1.1889
6,3,40,160,3,0.29654,3.1575,2,1.3941,0,0.21476
6,3,41,161,3,1.4108,2.8774,2,1.4735,1,1.0978
6,3,42,162,1.5,0.36375,1.8803,2,0.38627,0,0.37323
6,3,43,163,3,0.45717,2.4395,2,1.0822,0,0.66603
6,3,44,164,1.5,0.35506,4.1123,1,0.97001,1,0.68414
6,3,45,165,1.5,1.0975,4.0687,2,1.6387,1,0.36054
6,3,46,166,1.5,0.66258,2.268,2,0.7783,1,0.40083
6,3,47,167,1.5,0.66785,1.7213,3,0.24447,1,0.32718
6,3,48,168,1.5,0.61904,1.6843,2,0.26537,1,0.34441
6,3,49,169,1.5,0.30082,1.7461,2,0.27335,0,0.28927
6,3,50,170,3,0.68424,2.9687,2,0.27686,0,0.47598
6,3,51,171,3,0.99338,4.0904,3,0.62863,0,0.58906
6,3,52,172,3,0.27937,3.1327,3,1.3899,1,0.34859
6,3,53,173,1.5,0.62684,1.0416,1,0.38834,0,1.0735
6,3,54,174,3,0.33253,2.3563,1,1.5074,0,0.14863
6,3,55,175,3,0.35559,2.876,2,0.35893,1,0.35415
6,3,56,176,3,0.29346,5.2046,1,2.2519,1,0.2787
6,3,57,177,1.5,0.38881,2.7877,1,0.95405,1,0.24707
6,3,58,178,1.5,0.32028,6.4982,1,1.1529,1,0.24596
6,3,59,179,3,0.20744,2.3786,3,0.82488,1,0.40262
6,3,60,180,1.5,0.36155,2.2814,2,1.4122,1,0.16716
6,3,61,181,3,0.34955,2.5568,2,0.75812,1,0.31414
6,3,62,182,3,0.24913,2.332,1,1.5752,0,0.12444
6,3,63,183,3,0.41542,4.5054,1,1.2257,1,0.10016
6,3,64,184,1.5,0.35393,1.1729,1,0.46133,0,0.85102
6,3,65,185,3,0.41523,1.6806,2,1.0626,1,0.38856
6,3,66,186,1.5,0.3609,4.2812,1,0.65932,1,0.29014
6,3,67,187,1.5,0.43167,2.0809,3,0.33603,1,0.29733
6,3,68,188,1.5,0.4666,1.1316,2,0.32845,0,0.31491
6,3,69,189,3,1.1956,3.0771,2,0.22343,1,0.26403
6,3,70,190,3,1.3416,2.0627,2,0.2768,0,0.2263
6,3,71,191,1.5,0.88341,2.3803,2,0.77805,0,0.11257
6,3,72,192,1.5,0.44403,1.0562,3,1.0105,0,0.1414
6,3,73,193,1.5,0.51943,2.1225,2,1.8194,0,0.081687
6,3,74,194,3,0.25405,2.487,2,0.26671,0,0.25718
6,3,75,195,3,0.49317,3.4795,3,0.91054,1,0.078846
6,3,76,196,3,0.44789,2.843,2,0.322,1,0.21156
6,3,77,197,3,0.27668,2.5177,3,0.93838,1,0.28676
6,3,78,198,1.5,0.36675,1.6699,2,0.33147,0,0.36858
6,3,79,199,1.5,0.4452,2.2947,2,0.3118,0,0.74063
6,3,80,200,3,0.13621,2.0112,1,2.0385,0,0.14455
6,3,81,201,1.5,0.66449,4.0792,2,2.2456,0,0.1512
6,3,82,202,3,0.46582,3.1687,2,0.61328,0,0.42848
6,3,83,203,1.5,0.51966,1.4353,2,0.23091,0,0.26774
6,3,84,204,3,0.30665,1.9012,2,0.17891,0,0.21632
6,3,85,205,3,0.68453,3.1702,3,0.16428,0,2.2064
6,3,86,206,1.5,0.45564,1.6259,3,0.88764,1,0.30925
6,3,87,207,3,0.51161,2.156,3,0.34524,1,0.37782
6,3,88,208,1.5,0.51014,1.6791,3,0.78985,1,0.76239
6,3,89,209,1.5,0.47445,1.8148,3,0.41314,0,0.50304
6,3,90,210,1.5,0.62623,2.4914,2,1.9847,0,0.42873
7,1,1,1,1.5,0.89621,1.2691,2,1.7443,1,2.3637
7,1,2,2,1.5,0.57486,1.5025,3,0.8947,1,3.0296
7,1,3,3,1.5,0.92778,1.1045,3,2.6594,0,2.5856
7,1,4,4,1.5,0.65452,1.5731,2,2.0357,1,1.2549
7,1,5,5,1.5,0.50598,1.6627,3,2.5243,1,4.233
7,1,6,6,1.5,0.58524,1.6093,2,3.2496,1,1.5268
7,1,7,7,1.5,0.80406,1.3605,2,1.6378,1,1.6719
7,1,8,8,1.5,0.50889,1.4768,2,2.3144,0,1.2918
7,1,9,9,1.5,0.50472,1.5742,3,1.461,0,4.2149
7,1,10,10,1.5,0.5284,1.1817,2,3.4025,0,1.8011
7,1,11,11,1.5,0.56116,1.3678,3,1.0432,1,1.2013
7,1,12,12,1.5,0.47903,1.2324,3,1.5664,0,1.5285
7,1,13,13,1.5,0.52907,1.645,2,1.9763,0,4.0133
7,1,14,14,1.5,0.54808,1.6047,2,1.6331,1,0.9527
7,1,15,15,1.5,0.63632,1.4219,2,1.6594,0,1.0127
7,1,16,16,1.5,0.51357,1.258,3,1.4747,1,1.2997
7,1,17,17,1.5,0.60548,1.1746,3,1.613,1,1.7661
7,1,18,18,1.5,0.56306,1.0575,3,2.2001,0,1.0638
7,1,19,19,1.5,0.46725,1.3947,2,1.0403,1,1.4876
7,1,20,20,1.5,0.78576,1.1831,2,2.4793,0,1.1641
7,1,21,21,1.5,0.54806,1.3923,2,2.0639,0,1.8915
7,1,22,22,1.5,0.56051,1.6049,2,3.1966,1,1.1747
7,1,23,23,1.5,0.58541,1.5085,3,1.3496,1,1.4547
7,1,24,24,1.5,0.43488,1.3466,2,1.6257,1,1.7875
7,1,25,25,1.5,0.50781,1.3396,3,1.4493,0,1.0154
7,1,26,26,1.5,0.43993,1.5878,2,2.6341,1,1.0882
7,1,27,27,1.5,0.38811,1.4118,2,5.2621,1,0.79249
7,1,28,28,1.5,1.0617,1.4789,2,1.5373,1,0.72003
7,1,29,29,1.5,0.44614,1.6191,3,1.2311,1,0.72799
7,1,30,30,1.5,0.47264,1.7138,3,1.9244,0,1.686
7,1,31,31,1.5,0.44727,1.4053,2,1.0958,0,4.4771
7,1,32,32,1.5,0.44895,1.7815,1,2.3628,1,0.97688
7,1,33,33,1.5,0.43063,1.1428,3,0.92193,1,1.3234
7,1,34,34,1.5,1.2084,1.2625,3,0.90171,0,2.3573
7,1,35,35,1.5,0.41754,1.4206,3,0.73327,1,0.75568
7,1,36,36,1.5,0.55712,1.0639,2,0.91471,0,1.1782
7,1,37,37,1.5,0.53606,1.1464,3,1.9757,0,1.8366
7,1,38,38,1.5,0.58838,1.1868,3,2.3582,1,2.196
7,1,39,39,1.5,0.52247,1.5125,2,0.94941,0,1.2042
7,1,40,40,1.5,0.39502,1.6568,2,1.3982,1,0.80152
7,1,41,41,1.5,0.35966,1.9295,1,5.6371,1,1.1869
7,1,42,42,1.5,0.46918,1.5219,2,2.5341,0,2.5756
7,1,43,43,1.5,0.39959,1.6196,2,1.6318,1,0.85136
7,1,44,44,1.5,0.42665,1.8649,3,1.0523,1,1.6705
7,1,45,45,1.5,0.3881,1.6242,3,1.0242,0,0.8751
7,1,46,46,1.5,0.43384,1.569,2,1.7066,0,1.9852
7,1,47,47,1.5,0.57672,1.48,3,1.9882,0,1.6571
7,1,48,48,1.5,0.53312,1.5947,2,2.2474,1,0.88947
7,1,49,49,1.5,0.47095,1.9733,2,3.5336,1,1.5265
7,1,50,50,1.5,0.63402,1.6824,2,1.4773,1,0.87571
7,1,51,51,1.5,0.50895,1.6899,3,0.66078,1,0.86712
7,1,52,52,1.5,1.1453,1.6798,3,1.5375,0,2.0704
7,1,53,53,1.5,1.1887,1.522,2,1.4223,0,1.4334
7,1,54,54,1.5,0.36985,1.4348,2,2.8061,1,0.96836
7,1,55,55,1.5,0.43364,1.6575,3,1.1859,1,0.69461
7,1,56,56,1.5,0.36627,1.1814,3,0.80368,0,0.83383
7,1,57,57,1.5,0.38315,1.4692,2,1.3072,1,0.67354
7,1,58,58,1.5,0.36595,1.1827,2,4.6917,1,1.4903
7,1,59,59,1.5,0.49486,1.5935,3,1.9386,1,2.0336
7,1,60,60,1.5,0.63463,1.5078,3,1.8365,0,0.80567
7,2,1,61,3,0.76058,2.6773,2,3.7373,0,1.6761
7,2,2,62,3,0.57739,2.4301,3,0.92702,1,2.2921
7,2,3,63,3,0.5909,2.3263,3,0.9994,0,1.5915
7,2,4,64,3,0.56405,2.246,2,2.1269,1,1.9625
7,2,5,65,3,0.54306,2.2782,3,1.2351,1,1.7437
7,2,6,66,3,0.54888,2.1182,2,1.7538,0,0.93178
7,2,7,67,3,0.50944,3.1404,2,1.2939,1,0.92725
7,2,8,68,3,0.4391,2.6628,3,0.95191,1,2.8194
7,2,9,69,3,0.55995,2.0034,3,1.556,0,1.4604
7,2,10,70,3,0.61252,1.9061,3,1.4457,0,1.0297
7,2,11,71,3,0.56566,2.9433,3,1.0095,0,1.3511
7,2,12,72,3,0.55013,2.1815,2,2.4378,0,1.5795
7,2,13,73,3,0.59684,2.8823,2,1.2495,1,0.82792
7,2,14,74,3,0.51582,2.169,3,1.2539,1,1.1829
7,2,15,75,3,0.49331,2.2916,2,2.6852,0,2.3403
7,2,16,76,3,0.57708,3.0672,3,1.7991,0,1.0027
7,2,17,77,3,4.1157,2.5126,2,3.2384,0,1.2284
7,2,18,78,3,0.56736,3.2459,3,1.1975,1,2.8657
7,2,19,79,3,0.64569,2.0945,2,1.8257,1,1.1615
7,2,20,80,3,1.1098,1.7149,1,2.4511,0,1.5153
7,2,21,81,3,0.54478,1.9064,2,1.5084,0,1.088
7,2,22,82,3,0.55575,2.601,3,0.87623,0,1.7264
7,2,23,83,3,0.46834,2.4584,2,1.0852,0,1.8823
7,2,24,84,3,0.49918,2.431,2,1.0743,0,0.93782
7,2,25,85,3,0.70433,3.3222,3,0.97957,0,2.7271
7,2,26,86,3,0.41992,3.4601,3,1.8711,1,1.1071
7,2,27,87,3,0.51753,3.2333,2,1.1641,1,0.71468
7,2,28,88,3,0.39418,2.3802,3,0.85164,1,0.75897
7,2,29,89,3,0.53306,2.8802,2,1.1397,1,1.4475
7,2,30,90,3,0.45616,2.4629,2,1.0767,0,0.76519
7,2,31,91,3,0.49029,3.0764,3,2.1833,0,3.14
7,2,32,92,3,0.42076,3.1356,3,1.027,1,1.1898
7,2,33,93,3,0.39713,2.3429,2,0.99831,0,2.3913
7,2,34,94,3,0.64864,3.28,2,1.1988,1,1.6664
7,2,35,95,3,0.50929,3.1649,3,0.8014,0,1.7332
7,2,36,96,3,0.58049,3.1574,2,1.0941,0,1.8415
7,2,37,97,3,0.47458,2.6532,3,1.4651,0,0.85304
7,2,38,98,3,0.63929,2.7625,2,1.4496,0,0.8034
7,2,39,99,3,0.62753,2.393,3,1.5735,0,1.0478
7,2,40,100,3,0.51068,3.6291,3,2.4482,1,1.6525
7,2,41,101,3,0.38705,2.5366,2,1.3291,1,0.85358
7,2,42,102,3,0.48382,2.9577,3,1.6566,0,6.1359
7,2,43,103,3,0.42697,3.1674,2,1.3122,0,1.5049
7,2,44,104,3,0.42003,1.9225,2,4.0588,0,2.1165
7,2,45,105,3,0.40495,2.2373,2,1.9796,1,0.74023
7,2,46,106,3,0.38265,2.9055,3,0.96757,1,0.70633
7,2,47,107,3,0.50611,2.2136,3,0.85307,1,0.771
7,2,48,108,3,0.31231,2.4445,2,1.6752,0,1.9858
7,2,49,109,3,0.46288,2.5188,2,0.95311,1,1.7334
7,2,50,110,3,0.43586,2.6225,3,0.59244,1,0.7797
7,2,51,111,3,0.41656,2.6939,3,0.84883,1,0.77908
7,2,52,112,3,0.40826,2.3026,2,0.97951,1,0.70092
7,2,53,113,3,0.38031,2.266,3,0.88881,1,1.4989
7,2,54,114,3,0.30478,3.8006,1,3.7015,1,1.491
7,2,55,115,3,0.60849,2.5403,2,1.157,0,1.4877
7,2,56,116,3,0.5653,2.8542,3,4.0801,0,0.89584
7,2,57,117,3,0.35327,3.3989,2,1.1757,1,0.7519
7,2,58,118,3,0.45659,2.0256,2,1.0106,1,0.8916
7,2,59,119,3,0.49009,2.327,2,1.3113,0,1.4269
7,2,60,120,3,0.48474,2.0957,3,0.96387,0,4.0781
7,3,1,121,3,2.5957,2.8503,2,1.7635,1,2.516
7,3,2,122,1.5,0.71937,1.3083,2,1.0884,1,3.1221
7,3,3,123,3,0.4317,3.1928,3,1.1332,0,1.6292
7,3,4,124,3,0.5304,3.346,3,1.2109,0,1.9775
7,3,5,125,3,0.41676,2.7321,2,1.0729,1,2.5119
7,3,6,126,1.5,0.77407,1.9764,2,0.8997,1,1.6309
7,3,7,127,1.5,0.54012,1.4639,3,0.83857,1,2.8484
7,3,8,128,1.5,0.52391,1.1268,3,0.73957,1,1.7511
7,3,9,129,1.5,0.40963,1.5292,2,0.99943,1,0.66762
7,3,10,130,1.5,0.41857,1.484,3,0.81635,0,0.756
7,3,11,131,1.5,0.41005,1.5046,3,0.67181,1,1.2489
7,3,12,132,3,0.43071,2.767,3,1.2252,1,1.4512
7,3,13,133,3,0.37083,2.0739,2,1.1963,0,2.2755
7,3,14,134,3,0.50541,2.3993,2,1.163,1,0.75028
7,3,15,135,1.5,0.55591,1.1996,3,0.67902,0,0.61469
7,3,16,136,1.5,0.42808,1.6804,2,1.1749,1,0.76355
7,3,17,137,1.5,0.39374,1.9047,2,1.1835,1,0.67936
7,3,18,138,3,0.34208,2.4026,3,1.03,1,0.82636
7,3,19,139,3,0.36353,1.7926,2,1.1498,0,1.2287
7,3,20,140,3,0.52299,1.9386,2,1.2337,0,0.76632
7,3,21,141,1.5,0.4666,1.394,3,0.9358,1,0.78399
7,3,22,142,1.5,0.52078,1.4367,2,1.4819,0,1.2145
7,3,23,143,1.5,0.51803,1.3827,3,0.97853,0,2.0003
7,3,24,144,3,0.43047,2.7915,3,1.4467,0,0.85075
7,3,25,145,1.5,0.44951,1.6188,3,1.0434,0,1.2399
7,3,26,146,1.5,0.46039,1.2923,2,1.0137,1,0.78969
7,3,27,147,1.5,0.42771,1.755,3,1.6093,0,3.0495
7,3,28,148,1.5,0.65658,1.5134,3,0.69991,1,0.61903
7,3,29,149,1.5,0.27004,1.6362,3,2.1192,0,1.542
7,3,30,150,3,0.4067,2.376,2,1.2981,0,0.92724
7,3,31,151,1.5,0.41686,1.5693,3,2.3688,0,1.0922
7,3,32,152,1.5,0.49002,1.5647,2,0.67662,1,0.65246
7,3,33,153,1.5,0.36208,1.2575,2,1.8111,0,1.0894
7,3,34,154,3,0.42991,1.8828,3,1.9524,0,2.8543
7,3,35,155,3,0.60689,2.4267,2,1.7482,1,0.81341
7,3,36,156,1.5,0.56792,1.4717,2,1.1085,0,1.0877
7,3,37,157,1.5,0.49148,1.2271,3,0.63589,0,2.6969
7,3,38,158,3,0.409,2.3529,3,1.1044,0,2.9598
7,3,39,159,3,0.44491,2.2061,3,1.0087,1,0.85064
7,3,40,160,3,0.43397,2.07,2,2.9806,0,0.83843
7,3,41,161,3,0.18108,3.2929,2,1.221,0,4.7584
7,3,42,162,3,0.39344,2.5048,2,1.9177,0,1.4295
7,3,43,163,1.5,0.54894,1.3927,3,0.75119,1,2.1574
7,3,44,164,3,0.45793,2.2275,2,0.912,0,1.7265
7,3,45,165,1.5,0.45225,1.3348,3,2.13,1,0.84002
7,3,46,166,1.5,0.59557,1.782,2,0.92626,1,1.6265
7,3,47,167,3,0.52829,2.3434,2,1.2369,0,0.9831
7,3,48,168,3,0.40693,2.0891,2,0.99595,0,0.7888
7,3,49,169,1.5,0.45114,1.5588,3,1.0002,0,2.3303
7,3,50,170,3,0.40736,2.6281,3,0.98625,1,0.74616
7,3,51,171,3,0.42165,2.2614,3,0.87616,0,2.5274
7,3,52,172,3,0.51017,2.6669,3,1.5011,1,1.4049
7,3,53,173,1.5,0.62423,1.7767,2,0.56235,1,1.1779
7,3,54,174,3,0.86533,2.6665,2,0.93772,1,0.68531
7,3,55,175,3,0.38439,2.2076,3,0.94676,0,2.9154
7,3,56,176,1.5,0.46785,1.6705,2,0.89469,0,1.2054
7,3,57,177,3,0.55453,1.9476,2,1.6761,0,1.0493
7,3,58,178,1.5,0.37405,1.7151,3,0.86452,1,2.2154
7,3,59,179,1.5,0.40627,1.6508,3,0.70467,1,0.82347
7,3,60,180,1.5,0.97742,1.841,2,0.8229,1,2.1502
7,3,61,181,3,0.4934,2.4545,2,0.91765,0,1.4189
7,3,62,182,1.5,0.53039,2.2083,2,1.2466,1,0.68871
7,3,63,183,1.5,0.4404,1.5016,3,0.74288,1,0.70399
7,3,64,184,1.5,0.66741,1.807,2,1.1227,1,0.7988
7,3,65,185,3,0.50943,3.2914,3,0.88223,0,1.2038
7,3,66,186,3,0.48171,2.6306,2,1.1002,1,1.6938
7,3,67,187,3,0.4963,2.7319,2,1.1038,1,0.77095
7,3,68,188,1.5,0.37364,2.139,2,1.7333,0,3.2406
7,3,69,189,3,0.49479,2.1683,2,0.95321,0,1.034
7,3,70,190,3,0.39697,2.4459,3,1.7753,0,0.98729
7,3,71,191,1.5,0.50619,1.476,3,0.85141,0,1.2443
7,3,72,192,3,0.46405,2.9173,2,1.5749,0,2.5615
7,3,73,193,1.5,0.42759,1.3925,2,1.8391,0,0.98344
7,3,74,194,1.5,0.46486,1.9804,3,0.63723,0,2.1735
7,3,75,195,1.5,0.55074,1.6703,3,0.93228,1,0.70365
7,3,76,196,3,0.40955,2.065,3,0.63949,1,0.8126
7,3,77,197,3,0.34994,2.3698,2,0.96696,0,0.81823
7,3,78,198,1.5,0.43428,1.7586,3,1.4987,0,0.63975
7,3,79,199,3,0.50381,3.0364,2,0.9772,1,0.8787
7,3,80,200,3,0.91233,2.1179,2,0.96559,0,0.67897
7,3,81,201,1.5,0.39581,1.7448,3,0.77242,1,0.68758
7,3,82,202,1.5,0.51797,1.5952,3,0.61077,1,0.85443
7,3,83,203,1.5,0.55559,1.8742,3,0.69795,0,1.1668
7,3,84,204,3,0.43732,1.8494,3,0.73938,0,1.4491
7,3,85,205,3,0.92716,2.7406,2,1.095,0,0.69165
7,3,86,206,3,0.5056,3.1241,2,0.86881,1,1.7453
7,3,87,207,3,0.42157,2.3499,2,0.86348,0,2.6528
7,3,88,208,3,0.38314,2.1939,3,0.67611,0,0.78996
7,3,89,209,1.5,0.42282,1.3259,3,0.67664,1,1.353
7,3,90,210,3,0.38365,2.2324,2,0.95086,0,0.83134
8,1,1,1,1.5,0.93601,1.4212,3,2.6718,0,3.3796
8,1,2,2,1.5,0.65517,2.048,3,2.4765,0,0.24784
8,1,3,3,1.5,0.77457,1.2503,2,2.7677,1,1.101
8,1,4,4,1.5,0.55033,2.6076,3,0.14547,0,0.16558
8,1,5,5,1.5,0.79168,1.7516,2,1.4554,0,3.0341
8,1,6,6,1.5,0.6182,1.771,3,1.3456,1,0.99062
8,1,7,7,1.5,1.1624,2.33,1,2.5104,1,1.1994
8,1,8,8,1.5,0.79727,1.5583,3,4.1371,0,0.4651
8,1,9,9,1.5,0.80269,0.94733,2,2.1266,0,0.038163
8,1,10,10,1.5,0.69697,1.6448,3,2.0237,1,1.5344
8,1,11,11,1.5,0.60931,1.5521,3,2.0313,1,0.11731
8,1,12,12,1.5,0.50596,1.7874,3,4.5448,0,3.1183
8,1,13,13,1.5,0.6526,1.2102,2,2.0353,0,0.92875
8,1,14,14,1.5,0.99873,1.2088,3,2.951,0,1.2296
8,1,15,15,1.5,0.69529,1.655,2,1.6218,1,1.9823
8,1,16,16,1.5,1.0784,1.5297,3,1.6003,0,0.70412
8,1,17,17,1.5,0.62036,1.4732,3,3.1726,1,2.3802
8,1,18,18,1.5,0.54936,1.6313,2,0.95165,1,0.84474
8,1,19,19,1.5,0.69323,1.3786,3,1.4249,0,1.5744
8,1,20,20,1.5,0.49057,1.4891,3,1.7594,1,1.0247
8,1,21,21,1.5,0.52678,1.5421,3,1.3497,0,0.96577
8,1,22,22,1.5,0.4369,1.8615,3,2.7257,1,0.68447
8,1,23,23,1.5,0.47496,1.7155,2,1.5015,0,0.88096
8,1,24,24,1.5,0.73426,1.695,2,1.0602,1,0.81417
8,1,25,25,1.5,0.67378,1.7014,3,3.0413,0,0.17063
8,1,26,26,1.5,0.81585,1.4801,2,6.9252,1,1.1009
8,1,27,27,1.5,0.84298,1.8265,2,1.251,1,0.62992
8,1,28,28,1.5,0.88197,1.1912,2,1.3001,0,0.77873
8,1,29,29,1.5,0.76005,0.87785,2,1.2006,0,0.63097
8,1,30,30,1.5,0.51497,1.7169,3,0.56569,1,1.956
8,1,31,31,1.5,0.48656,1.2603,2,0.75299,0,0.29627
8,1,32,32,1.5,0.34873,1.1305,2,0.90191,0,0.1964
8,1,33,33,1.5,0.38477,1.6711,2,2.2702,1,0.15472
8,1,34,34,1.5,1.9498,0.99476,1,2.6003,0,1.5001
8,1,35,35,1.5,0.52413,1.7775,1,2.876,1,0.82181
8,1,36,36,1.5,0.57694,1.8424,2,2.2493,1,0.11304
8,1,37,37,1.5,0.55163,1.3459,2,2.2754,0,2.1226
8,1,38,38,1.5,0.82322,1.3624,3,1.3994,1,1.2299
8,1,39,39,1.5,0.56384,1.4834,2,1.5291,0,0.60283
8,1,40,40,1.5,0.60231,1.5852,3,3.9168,0,1.2134
8,1,41,41,1.5,0.61156,1.7313,2,2.2503,1,2.9774
8,1,42,42,1.5,0.15133,1.3214,2,2.5223,0,1.1553
8,1,43,43,1.5,0.54846,2.0184,3,1.3281,1,1.929
8,1,44,44,1.5,0.52692,1.4538,2,1.5326,1,0.1284
8,1,45,45,1.5,1.0357,1.6196,3,2.6321,0,0.86583
8,1,46,46,1.5,0.50385,1.349,2,2.6532,0,0.39102
8,1,47,47,1.5,0.53433,1.2825,1,1.3655,1,0.25394
8,1,48,48,1.5,0.52303,1.4258,2,1.2382,0,0.48508
8,1,49,49,1.5,0.61183,1.5558,3,2.4845,0,1.4896
8,1,50,50,1.5,0.60455,1.7363,3,1.732,1,0.65177
8,1,51,51,1.5,0.3383,1.2992,3,1.2656,0,0.42919
8,1,52,52,1.5,0.56075,1.5172,3,1.1297,1,1.2879
8,1,53,53,1.5,0.39732,1.6806,2,1.5744,1,0.18686
8,1,54,54,1.5,0.84362,1.7158,2,1.715,0,0.38895
8,1,55,55,1.5,0.44438,1.144,2,1.1148,0,0.7654
8,1,56,56,1.5,0.41237,1.4569,2,1.5729,0,0.59799
8,1,57,57,1.5,0.69625,1.7437,1,2.3889,0,1.3441
8,1,58,58,1.5,0.52428,1.7517,3,2.5801,1,1.6634
8,1,59,59,1.5,0.61661,1.5317,2,1.3513,0,1.1931
8,1,60,60,1.5,0.55777,1.3022,2,2.1441,0,0.42575
8,2,1,61,3,0.45368,3.3742,2,1.2924,1,0.13848
8,2,2,62,3,0.57841,2.6933,3,1.4858,1,0.29276
8,2,3,63,3,0.6847,4.3327,1,1.2867,1,0.79526
8,2,4,64,3,0.36619,3.5947,2,1.7343,1,0.32876
8,2,5,65,3,0.46802,2.8203,2,1.1161,1,0.15456
8,2,6,66,3,0.40739,2.8904,3,1.5058,1,0.28476
8,2,7,67,3,0.61143,2.6812,2,0.80258,1,0.8701
8,2,8,68,3,1.0365,2.9577,2,1.0831,1,0.36732
8,2,9,69,3,0.35357,2.9237,2,0.83076,0,1.1667
8,2,10,70,3,0.63111,3.3925,2,1.0563,1,0.1626
8,2,11,71,3,0.55018,2.8818,2,2.2365,1,0.1414
8,2,12,72,3,0.51722,3.2197,2,1.1398,1,0.18633
8,2,13,73,3,0.47082,2.4743,2,1.0578,1,0.23889
8,2,14,74,3,0.5365,2.6605,2,1.6609,0,0.15038
8,2,15,75,3,0.43505,2.7223,2,2.1561,1,0.16927
8,2,16,76,3,0.4671,2.2944,2,2.5128,0,0.10176
8,2,17,77,3,0.68531,2.7964,3,0.76201,0,2.5894
8,2,18,78,3,0.54667,2.8709,2,1.2412,1,0.23784
8,2,19,79,3,0.36905,3.1973,3,1.2621,1,0.24212
8,2,20,80,3,0.35544,3.2874,3,1.1399,1,0.32484
8,2,21,81,3,0.57812,3.7799,2,0.9107,1,0.15362
8,2,22,82,3,0.40511,3.3624,1,2.7229,0,0.23208
8,2,23,83,3,0.49388,2.1924,3,1.7988,0,4.076
8,2,24,84,3,0.58151,2.5046,2,0.91808,0,0.8569
8,2,25,85,3,0.47657,2.2662,1,1.6268,0,0.63947
8,2,26,86,3,0.45199,3.0462,3,0.71257,1,0.73929
8,2,27,87,3,0.49684,2.5571,2,1.4959,0,0.19135
8,2,28,88,3,0.37523,2.9656,1,1.6739,0,0.26124
8,2,29,89,3,0.29526,3.6448,2,1.8217,1,0.40788
8,2,30,90,3,0.32922,2.2456,2,1.8136,0,1.4667
8,2,31,91,3,0.30557,3.2888,3,1.0171,1,0.27989
8,2,32,92,3,0.43547,2.1838,2,3.9148,0,0.29949
8,2,33,93,3,0.61895,3.0089,3,3.3082,1,0.99335
8,2,34,94,3,3.0716,2.8424,3,1.3457,1,1.1165
8,2,35,95,3,1.1204,3.2958,2,2.4356,1,0.21625
8,2,36,96,3,0.28871,2.8511,3,0.49986,1,0.15752
8,2,37,97,3,0.30684,2.9018,3,1.1019,1,0.16886
8,2,38,98,3,1.2137,3.4188,2,1.4875,1,0.59604
8,2,39,99,3,0.77022,1.7474,1,1.3761,0,1.1003
8,2,40,100,3,0.32051,3.0612,2,0.8234,1,0.24981
8,2,41,101,3,0.43762,1.9363,3,1.4941,1,0.43875
8,2,42,102,3,0.36814,2.8959,2,1.4869,0,0.26974
8,2,43,103,3,0.71748,2.9567,2,2.1312,1,0.51589
8,2,44,104,3,0.41245,2.2066,2,0.85861,0,0.1506
8,2,45,105,3,0.37863,3.757,2,1.4418,1,0.21166
8,2,46,106,3,0.31435,3.1427,1,5.8201,1,1.6872
8,2,47,107,3,0.64533,1.9556,2,0.98322,0,0.67997
8,2,48,108,3,1.8969,4.428,2,0.40686,1,0.15146
8,2,49,109,3,0.40791,2.5029,3,3.0538,0,0.20373
8,2,50,110,3,0.8206,2.3847,3,0.85302,1,0.20922
8,2,51,111,3,0.29714,3.2172,2,1.3867,0,0.21984
8,2,52,112,3,0.92576,2.9643,1,0.15135,1,0.1716
8,2,53,113,3,0.47787,3.3557,2,1.304,1,0.39533
8,2,54,114,3,0.40958,2.7538,2,0.96773,1,0.10595
8,2,55,115,3,0.33122,3.4552,2,1.2282,0,0.61658
8,2,56,116,3,1.0713,2.9475,3,0.52625,1,0.29099
8,2,57,117,3,1.4556,2.3968,1,0.7775,0,0.92515
8,2,58,118,3,0.57944,3.5446,1,1.3715,0,0.49657
8,2,59,119,3,0.56461,3.5799,2,1.5481,1,1.1028
8,2,60,120,3,0.63278,5.056,2,3.6123,1,1.2722
8,3,1,121,1.5,0.7098,1.5029,1,0.88185,0,0.31643
8,3,2,122,3,0.39275,3.5916,2,1.494,1,0.41375
8,3,3,123,3,0.27026,2.7608,2,0.8118,1,0.13819
8,3,4,124,3,0.31632,3.4445,2,0.59731,1,0.166
8,3,5,125,1.5,0.71798,1.3316,3,0.853,0,0.12124
8,3,6,126,1.5,0.76508,1.0675,1,1.6432,0,0.63769
8,3,7,127,1.5,0.40252,1.4335,3,1.5428,1,1.0995
8,3,8,128,1.5,0.40801,1.7408,3,0.87237,1,0.1742
8,3,9,129,3,0.34299,2.6168,2,1.1999,1,0.15488
8,3,10,130,3,0.25137,3.5847,2,0.86187,1,0.81216
8,3,11,131,3,0.60784,2.4141,1,1.0615,0,0.66623
8,3,12,132,3,0.34746,3.1557,2,1.3786,0,0.59116
8,3,13,133,1.5,0.56567,1.3428,3,0.93883,0,0.1862
8,3,14,134,1.5,0.5645,1.18,3,1.0766,0,0.23956
8,3,15,135,1.5,0.44342,1.6418,2,1.3365,0,0.40856
8,3,16,136,1.5,0.52549,2.0035,3,0.93053,1,0.97712
8,3,17,137,1.5,0.90114,2.1822,2,0.96349,0,0.32766
8,3,18,138,3,0.3357,2.7723,2,0.18078,1,0.31676
8,3,19,139,3,0.28764,3.7751,2,0.93041,0,0.46507
8,3,20,140,3,0.85762,3.4016,2,0.487,1,1.1096
8,3,21,141,1.5,0.63045,1.495,3,0.93598,1,0.74698
8,3,22,142,3,1.2704,3.2465,3,0.83651,0,0.80895
8,3,23,143,1.5,0.88252,2.1164,3,0.52697,1,0.44266
8,3,24,144,1.5,0.60604,1.9495,2,1.7528,0,0.31759
8,3,25,145,3,0.43479,2.2832,2,1.6509,1,0.77964
8,3,26,146,1.5,0.47981,1.2198,1,1.8958,0,0.15024
8,3,27,147,1.5,0.39923,2.3814,2,1.1001,1,0.2166
8,3,28,148,1.5,0.44302,1.3923,2,0.72508,0,0.17664
8,3,29,149,1.5,0.37076,2.2864,2,1.8181,0,0.29138
8,3,30,150,1.5,0.92343,1.7999,3,1.2405,0,2.036
8,3,31,151,1.5,0.47317,1.1875,2,1.5217,0,0.4211
8,3,32,152,1.5,0.60223,1.2325,3,0.66708,0,0.382
8,3,33,153,3,0.42742,2.5058,3,0.23136,1,0.21832
8,3,34,154,3,0.28681,2.9605,1,1.1359,0,0.30698
8,3,35,155,3,0.25628,3.5767,2,1.2827,1,0.14121
8,3,36,156,3,0.49354,2.4795,2,3.5132,1,0.18642
8,3,37,157,1.5,0.46042,0.97994,3,1.9395,0,0.097069
8,3,38,158,3,0.29529,3.0701,2,0.22684,1,1.8762
8,3,39,159,1.5,0.78134,1.4835,2,3.2543,0,0.54095
8,3,40,160,1.5,0.51153,1.4434,3,2.3877,0,1.3195
8,3,41,161,3,0.33785,2.7618,3,1.9126,1,0.48928
8,3,42,162,1.5,0.44364,1.6051,3,2.5211,0,0.30581
8,3,43,163,1.5,2.0716,2.4322,2,2.9375,1,1.3907
8,3,44,164,3,0.50587,2.3631,3,4.1645,1,0.43479
8,3,45,165,1.5,0.65357,0.95957,3,2.4775,0,0.19977
8,3,46,166,3,0.33472,2.7333,2,1.4749,0,0.21272
8,3,47,167,1.5,0.79826,1.3299,2,2.3635,1,0.15075
8,3,48,168,1.5,0.54586,1.6199,3,3.3188,1,0.68015
8,3,49,169,1.5,0.48804,1.637,3,1.5325,0,1.2268
8,3,50,170,3,0.24589,2.8577,2,3.4699,1,0.72591
8,3,51,171,3,0.70821,3.7896,2,0.17933,1,1.8035
8,3,52,172,1.5,0.80525,2.7862,3,1.2651,1,0.68998
8,3,53,173,3,0.28403,2.4207,1,1.6921,0,1.4366
8,3,54,174,3,0.63275,2.6799,2,9.051,0,0.52926
8,3,55,175,1.5,0.44554,1.8069,2,2.6351,1,1.1901
8,3,56,176,1.5,4.6385,2.7529,1,0.49173,0,1.1153
8,3,57,177,1.5,0.62651,1.4414,3,0.48767,0,1.6352
8,3,58,178,1.5,0.58889,2.0872,3,1.256,1,0.32293
8,3,59,179,3,0.24472,0.25735,1,4.2604,0,2.593
8,3,60,180,3,1.2467,3.067,2,1.8382,0,1.0069
8,3,61,181,3,0.44646,2.8824,3,1.6032,1,0.33124
8,3,62,182,3,0.35344,3.1483,2,0.82541,1,0.94038
8,3,63,183,3,0.55234,1.7463,3,1.4003,0,2.0411
8,3,64,184,1.5,0.6965,2.0197,3,1.5065,1,1.1341
8,3,65,185,3,0.81244,2.2442,3,4.7496,1,0.92252
8,3,66,186,1.5,0.59628,1.7456,3,1.3144,1,1.1657
8,3,67,187,3,0.28101,1.8799,2,1.3753,1,0.94993
8,3,68,188,3,1.0585,2.3888,2,2.2687,0,3.091
8,3,69,189,1.5,0.57263,1.7504,3,1.8658,1,2.3772
8,3,70,190,3,0.51171,2.9559,2,2.3057,0,1.5827
8,3,71,191,3,0.48452,2.4201,3,1.9922,1,0.76153
8,3,72,192,3,0.29447,2.5193,3,1.153,0,0.68361
8,3,73,193,3,0.35849,2.3036,1,2.2927,0,0.76065
8,3,74,194,3,0.52955,2.9821,2,1.3728,1,0.62217
8,3,75,195,3,0.49486,3.9306,1,1.798,0,0.62668
8,3,76,196,1.5,0.6474,1.0449,3,1.3378,1,0.65948
8,3,77,197,1.5,0.47629,1.7902,2,1.4232,0,0.56076
8,3,78,198,3,0.27067,1.7494,2,2.5152,0,0.54036
8,3,79,199,3,0.29232,2.6782,3,1.4749,1,0.67415
8,3,80,200,1.5,0.6257,2.439,2,1.4079,1,0.9996
8,3,81,201,1.5,0.6197,2.1852,1,3.9155,0,0.92429
8,3,82,202,3,0.4007,2.1701,3,0.86806,1,1.0809
8,3,83,203,3,0.28654,2.8111,3,0.31136,1,1.0022
8,3,84,204,1.5,0.54005,2.7504,1,0.85135,1,0.50656
8,3,85,205,3,0.29142,1.9786,2,1.0971,0,0.78946
8,3,86,206,3,1.1682,0.19373,1,0.18941,0,0.18889
8,3,87,207,1.5,0.52467,1.8524,3,0.15582,1,0.13795
8,3,88,208,1.5,0.53968,1.4753,3,1.0378,1,0.37182
8,3,89,209,3,0.29402,2.4808,1,2.2608,1,0.21306
8,3,90,210,1.5,1.3729,2.1365,3,1.1048,1,0.18396
9,1,1,1,1.5,0.47064,1.8732,2,1.2213,0,2.4479
9,1,2,2,1.5,0.51611,1.8679,2,1.2921,0,0.67596
9,1,3,3,1.5,0.52109,1.3736,3,2.9243,0,1.5439
9,1,4,4,1.5,1.6577,2.3372,1,2.38,1,1.489
9,1,5,5,1.5,1.2365,1.7703,2,2.7696,0,0.81456
9,1,6,6,1.5,0.59764,1.8051,2,1.6696,0,0.70708
9,1,7,7,1.5,0.80138,2.2828,2,3.7509,0,1.1394
9,1,8,8,1.5,0.60668,1.5875,2,1.2575,0,2.4004
9,1,9,9,1.5,1.4793,1.4659,2,2.1417,1,0.72234
9,1,10,10,1.5,1.0258,1.5902,2,4.4481,1,1.1213
9,1,11,11,1.5,0.72107,1.0731,2,1.7107,1,1.651
9,1,12,12,1.5,0.45274,1.4602,2,2.7998,0,0.82999
9,1,13,13,1.5,1.0679,1.4194,2,1.9807,1,1.3915
9,1,14,14,1.5,1.7147,0.99243,2,1.1982,1,0.49026
9,1,15,15,1.5,0.86875,1.032,2,1.6298,0,2.0409
9,1,16,16,1.5,0.57688,2.3039,2,1.9561,1,2.2449
9,1,17,17,1.5,0.91466,1.8453,2,1.1859,1,0.69435
9,1,18,18,1.5,0.36796,0.67148,2,1.2234,0,0.59833
9,1,19,19,1.5,0.82027,1.1335,2,1.1181,0,0.64453
9,1,20,20,1.5,0.68943,1.1749,2,1.463,0,0.75135
9,1,21,21,1.5,1.7111,1.0144,2,0.90383,0,0.57155
9,1,22,22,1.5,0.29715,1.242,2,1.0018,0,0.79417
9,1,23,23,1.5,1.7398,2.0341,2,2.415,1,1.1785
9,1,24,24,1.5,1.301,4.8421,1,2.4284,1,0.56217
9,1,25,25,1.5,1.1031,1.4085,2,1.5628,1,0.56633
9,1,26,26,1.5,0.65022,2.3314,2,3.0753,1,0.96979
9,1,27,27,1.5,0.55927,0.87895,3,4.3383,0,1.6174
9,1,28,28,1.5,0.67504,1.8389,2,3.0342,1,1.0789
9,1,29,29,1.5,1.2022,1.4436,2,0.94892,0,0.77876
9,1,30,30,1.5,1.6767,0.63786,1,1.4985,0,0.66429
9,1,31,31,1.5,0.81517,0.87983,2,1.2778,0,1.3155
9,1,32,32,1.5,0.56897,1.1085,2,2.3513,0,0.85293
9,1,33,33,1.5,0.57714,1.0055,3,1.9723,1,0.60845
9,1,34,34,1.5,0.6302,1.3209,2,1.2453,0,0.70457
9,1,35,35,1.5,1.0758,1.8386,2,1.1713,0,0.62177
9,1,36,36,1.5,0.77081,1.4856,2,1.5061,1,4.8233
9,1,37,37,1.5,0.54461,1.7179,2,1.342,0,0.96343
9,1,38,38,1.5,0.61835,1.1716,2,1.1834,0,0.50622
9,1,39,39,1.5,0.59345,2.1424,2,1.0737,1,0.54886
9,1,40,40,1.5,0.53701,1.5982,2,1.1018,1,1.5567
9,1,41,41,1.5,0.75821,1.0647,2,1.1534,1,0.64523
9,1,42,42,1.5,0.63351,1.1939,2,0.86172,1,0.72526
9,1,43,43,1.5,1.5996,1.6573,2,0.7486,0,0.75508
9,1,44,44,1.5,0.51189,1.7319,2,0.72669,0,0.665
9,1,45,45,1.5,0.67449,1.8643,2,0.72519,0,0.65258
9,1,46,46,1.5,0.93369,1.4822,2,0.86517,0,0.49058
9,1,47,47,1.5,0.38024,1.5033,2,1.282,1,1.0913
9,1,48,48,1.5,0.57736,1.0919,2,0.98832,1,0.38653
9,1,49,49,1.5,0.98734,0.59661,2,0.90285,0,0.73362
9,1,50,50,1.5,1.8904,1.3484,1,2.4778,0,0.76049
9,1,51,51,1.5,0.57357,1.8626,2,1.1986,1,0.6156
9,1,52,52,1.5,0.53251,1.9932,2,0.96173,0,0.53867
9,1,53,53,1.5,0.45974,1.5167,2,1.091,0,0.62472
9,1,54,54,1.5,0.48677,1.7114,2,0.95088,0,0.4326
9,1,55,55,1.5,0.64849,1.4295,2,0.78713,0,0.7354
9,1,56,56,1.5,0.66056,1.6274,2,1.0117,0,0.49178
9,1,57,57,1.5,0.76026,1.7789,2,3.2734,0,1.8685
9,1,58,58,1.5,0.43208,3.0921,2,0.89672,1,1.8887
9,1,59,59,1.5,1.6442,2.4653,2,1.3111,0,0.51673
9,1,60,60,1.5,5.3774,3.0572,1,2.2574,0,1.1327
9,2,1,61,3,3.4726,1.5079,2,2.3493,0,1.9004
9,2,2,62,3,2.3791,3.3764,2,1.7214,1,0.5815
9,2,3,63,3,0.44415,2.4936,2,1.7117,1,0.7752
9,2,4,64,3,0.48011,5.3835,2,1.0589,1,0.49011
9,2,5,65,3,1.0103,3.7039,2,1.1511,1,0.64312
9,2,6,66,3,0.74423,3.2549,2,1.1905,1,0.64978
9,2,7,67,3,0.46562,3.0553,2,1.6179,0,2.192
9,2,8,68,3,0.47055,2.5349,2,0.88998,1,0.53744
9,2,9,69,3,0.56167,3.4945,2,0.82057,1,0.37283
9,2,10,70,3,0.59545,2.1317,2,0.5756,1,0.37709
9,2,11,71,3,0.42216,2.4,2,0.8003,0,0.49434
9,2,12,72,3,0.81166,3.1309,2,1.0632,0,0.50034
9,2,13,73,3,0.94272,4.5278,1,0.8432,1,0.43991
9,2,14,74,3,0.60588,3.7751,2,1.9813,0,1.1544
9,2,15,75,3,0.95289,3.2702,2,1.3775,1,1.6522
9,2,16,76,3,0.96082,2.9918,2,0.596,1,0.43979
9,2,17,77,3,0.94934,2.9048,2,0.84118,0,0.62647
9,2,18,78,3,0.59243,3.1777,2,0.84835,1,0.39101
9,2,19,79,3,0.38552,2.5096,2,0.7721,1,0.41247
9,2,20,80,3,0.571,3.5476,2,1.9249,1,1.1864
9,2,21,81,3,0.4094,3.5033,2,0.96469,0,1.8158
9,2,22,82,3,1.0362,5.4455,1,6.1796,1,0.76515
9,2,23,83,3,1.1339,3.0184,2,0.58724,1,2.5866
9,2,24,84,3,0.6853,3.4956,2,1.0978,1,0.51512
9,2,25,85,3,0.50855,2.252,2,0.65361,1,0.56016
9,2,26,86,3,0.47103,2.9612,2,0.91143,1,0.55458
9,2,27,87,3,0.32984,2.8465,2,0.81276,0,0.48949
9,2,28,88,3,0.55889,3.4157,2,0.81291,1,0.49134
9,2,29,89,3,0.52002,2.6848,2,0.9644,0,0.86545
9,2,30,90,3,0.56412,4.3664,2,1.1628,0,1.6876
9,2,31,91,3,0.45067,4.9453,2,0.70569,1,1.124
9,2,32,92,3,0.36012,2.6928,2,0.77112,0,0.49899
9,2,33,93,3,0.056277,4.2658,2,1.0725,0,0.4367
9,2,34,94,3,0.78872,1.9621,2,0.88894,0,1.1871
9,2,35,95,3,1.19,4.2608,2,0.75713,1,0.58773
9,2,36,96,3,1.2601,3.6653,2,1.0745,0,0.47639
9,2,37,97,3,0.50308,3.9341,2,0.90104,1,1.3571
9,2,38,98,3,0.78483,3.3819,2,0.78882,0,0.84925
9,2,39,99,3,0.95616,3.324,2,2.1315,0,0.41666
9,2,40,100,3,0.64986,2.4934,2,1.1983,0,0.87801
9,2,41,101,3,0.86893,4.9837,3,0.97244,0,1.3357
9,2,42,102,3,0.72961,3.495,2,0.95934,1,1.9518
9,2,43,103,3,0.33586,3.0343,2,0.76354,0,0.68994
9,2,44,104,3,0.71964,4.183,2,0.62545,1,0.77708
9,2,45,105,3,0.48096,5.7799,1,1.1547,1,0.75946
9,2,46,106,3,0.37578,2.7409,2,1.1329,0,1.4798
9,2,47,107,3,0.43519,3.8724,2,1.5024,0,0.65562
9,2,48,108,3,0.40524,2.6004,2,1.8507,0,1.3663
9,2,49,109,3,0.5714,2.4988,2,2.4008,0,0.63855
9,2,50,110,3,0.52701,3.9677,2,1.1258,0,1.2016
9,2,51,111,3,0.38704,2.9606,2,1.2236,0,1.0488
9,2,52,112,3,0.52767,6.4548,2,0.9233,1,0.59869
9,2,53,113,3,0.72353,3.4384,2,1.2412,0,0.59872
9,2,54,114,3,0.36111,4.5193,2,0.87425,1,0.51497
9,2,55,115,3,0.61621,5.2187,2,0.9117,1,0.6123
9,2,56,116,3,0.83438,4.358,2,2.4523,0,2.1658
9,2,57,117,3,0.45161,5.733,2,1.8822,1,1.84
9,2,58,118,3,0.44489,2.919,2,0.90256,0,0.73196
9,2,59,119,3,0.42884,0.30719,1,1.8349,0,1.2544
9,2,60,120,3,1.7474,2.4182,2,1.2397,0,0.52371
9,3,1,121,1.5,0.59564,1.5821,2,4.0391,0,0.23949
9,3,2,122,1.5,0.3579,2.2037,2,0.94233,0,1.539
9,3,3,123,3,0.48421,2.4951,2,0.9877,0,0.62266
9,3,4,124,1.5,1.1599,4.1145,2,1.1355,1,0.60711
9,3,5,125,1.5,2.225,5.047,2,3.5074,1,0.82985
9,3,6,126,1.5,0.51331,1.795,2,0.78967,1,0.33809
9,3,7,127,3,0.95144,3.2195,2,1.0262,1,0.67675
9,3,8,128,1.5,0.50148,2.9204,2,1.4043,0,0.42094
9,3,9,129,1.5,0.55491,1.124,2,0.80029,0,0.30596
9,3,10,130,3,0.34532,2.2685,2,0.89102,0,0.56329
9,3,11,131,1.5,0.69254,1.2907,2,0.76162,0,0.25071
9,3,12,132,1.5,0.39504,1.832,2,1.1019,0,0.28125
9,3,13,133,3,0.60667,2.9623,2,0.96176,0,0.69252
9,3,14,134,1.5,0.40634,2.1878,2,0.68192,1,0.36737
9,3,15,135,3,0.73358,2.1323,2,1.0135,0,0.48867
9,3,16,136,1.5,0.78108,3.0203,2,2.2033,0,1.2685
9,3,17,137,3,0.55775,3.3523,2,0.9753,1,0.66316
9,3,18,138,3,0.44523,4.4059,2,0.62614,1,0.61624
9,3,19,139,3,0.4172,2.5949,2,1.2246,0,0.80054
9,3,20,140,3,0.38636,4.5726,2,0.66346,1,0.51589
9,3,21,141,3,0.97476,2.9014,2,0.82665,0,0.69079
9,3,22,142,3,0.38371,5.8585,1,0.5988,1,0.44294
9,3,23,143,3,0.60244,3.7593,2,0.8683,1,1.095
9,3,24,144,3,0.86881,3.5073,2,0.71825,0,0.31963
9,3,25,145,1.5,1.233,4.4665,2,0.87388,1,0.50008
9,3,26,146,3,0.59907,3.8938,2,0.55749,1,0.31351
9,3,27,147,3,0.37225,3,2,0.69939,1,0.46766
9,3,28,148,1.5,0.56387,3.5713,2,0.9023,1,0.32021
9,3,29,149,3,1.499,0.89487,2,0.51176,0,0.45278
9,3,30,150,1.5,0.94607,2.006,2,0.83289,0,0.91815
9,3,31,151,1.5,1.7966,2.3669,2,0.48894,1,0.58703
9,3,32,152,1.5,0.48384,1.5075,2,0.62369,0,0.45098
9,3,33,153,3,3.4049,4.1079,2,2.103,0,2.2803
9,3,34,154,1.5,1.3123,2.0534,1,2.5063,0,0.69606
9,3,35,155,1.5,0.73667,2.2969,2,1.4986,0,0.66587
9,3,36,156,3,0.40562,4.2762,2,0.77945,1,0.75229
9,3,37,157,3,1.3605,4.9153,2,0.83308,1,0.50638
9,3,38,158,1.5,1.9717,1.1208,2,1.3211,0,1.3342
9,3,39,159,3,1.039,6.6988,2,0.72799,1,1.6261
9,3,40,160,3,0.58781,4.2724,2,0.55128,0,1.3333
9,3,41,161,3,3.3332,3.8645,2,1.2619,0,0.27871
9,3,42,162,3,0.33776,2.7369,2,0.44108,0,0.46428
9,3,43,163,1.5,1.0315,4.5704,2,0.87309,1,0.62516
9,3,44,164,1.5,0.50207,1.7078,2,1.3119,0,0.49094
9,3,45,165,3,0.3137,3.2181,2,1.9246,0,0.52261
9,3,46,166,3,1.0706,2.6583,1,0.78437,0,0.54502
9,3,47,167,3,1.7416,3.5615,2,0.50963,0,0.31613
9,3,48,168,3,1.4692,3.4811,2,1.3624,0,1.2678
9,3,49,169,1.5,0.43998,1.8255,2,0.62465,1,0.46428
9,3,50,170,3,1.2429,4.3525,2,0.61319,1,0.59094
9,3,51,171,1.5,0.87159,3.2727,2,0.59158,0,1.014
9,3,52,172,3,0.3572,3.601,2,2.5748,0,0.88262
9,3,53,173,3,0.36366,2.4039,2,1.3293,0,0.57971
9,3,54,174,1.5,0.43415,1.9323,2,2.4649,0,0.52765
9,3,55,175,1.5,0.49348,1.7427,2,0.69943,1,0.38032
9,3,56,176,3,0.42095,2.0989,2,1.0882,0,0.51031
9,3,57,177,1.5,0.47763,1.5794,2,0.65065,0,0.50576
9,3,58,178,1.5,0.57584,1.5149,2,0.96507,0,0.42973
9,3,59,179,1.5,0.37446,1.3643,2,0.53958,0,0.28715
9,3,60,180,3,0.29494,7.4321,1,1.1391,1,1.011
9,3,61,181,3,0.33004,2.9795,2,0.41193,0,0.94014
9,3,62,182,1.5,1.2784,2.0529,2,0.51756,0,0.60788
9,3,63,183,3,0.64557,4.0059,2,2.0777,0,0.56382
9,3,64,184,1.5,0.44666,1.8215,2,3.3068,0,0.41863
9,3,65,185,3,0.46855,4.0351,3,0.72716,1,2.0535
9,3,66,186,3,0.43686,4.2105,2,0.7812,0,1.3909
9,3,67,187,3,0.31227,2.3944,2,0.88757,0,0.59741
9,3,68,188,1.5,0.42266,1.2131,2,0.4637,0,0.99091
9,3,69,189,3,0.30327,3.9859,2,1.7738,0,1.2221
9,3,70,190,3,0.45793,4.8399,2,0.41188,1,0.3898
9,3,71,191,1.5,0.46634,1.5691,2,0.84445,0,0.3538
9,3,72,192,1.5,0.37595,2.191,2,0.79672,0,0.39016
9,3,73,193,1.5,0.14953,0.74509,1,2.4395,0,1.3955
9,3,74,194,1.5,0.44258,1.79,1,0.59789,0,0.49204
9,3,75,195,3,0.70422,3.5478,1,0.87453,1,0.76312
9,3,76,196,3,0.94545,4.9932,2,0.75373,1,0.84744
9,3,77,197,3,0.29878,2.6189,2,0.91509,0,1.9159
9,3,78,198,1.5,0.81994,7.9099,1,2.1491,1,0.38892
9,3,79,199,1.5,0.47742,1.4679,2,0.96746,0,0.69421
9,3,80,200,1.5,0.75741,1.6635,2,0.8994,0,0.50558
9,3,81,201,1.5,0.50141,1.4835,2,0.8666,0,0.50491
9,3,82,202,1.5,0.17659,2.5805,2,2.4611,0,0.32416
9,3,83,203,1.5,0.46603,7.4437,1,1.1888,1,0.6354
9,3,84,204,1.5,0.61833,2.0209,2,1.1196,0,0.283
9,3,85,205,1.5,0.5262,3.5273,2,0.52177,1,0.33641
9,3,86,206,3,0.14553,4.2698,2,0.70309,1,0.51035
9,3,87,207,3,0.52222,4.0628,2,1.0339,1,0.69231
9,3,88,208,1.5,0.90181,2.1077,2,2.9852,0,0.57527
9,3,89,209,3,1.0063,2.2746,2,0.95854,0,0.96388
9,3,90,210,1.5,0.65386,2.3861,2,0.55385,0,0.48527
10,1,1,1,1.5,0.91277,1.0678,3,2.4935,1,3.8745
10,1,2,2,1.5,1.4849,1.5055,2,2.4838,1,0.93936
10,1,3,3,1.5,0.61346,0.84437,2,1.6625,0,1.604
10,1,4,4,1.5,0.78362,1.0935,2,3.5028,0,1.2428
10,1,5,5,1.5,0.39561,0.99446,3,3.8749,0,2.0545
10,1,6,6,1.5,0.95939,0.87735,2,4.8754,1,2.7029
10,1,7,7,1.5,1.2359,0.83321,2,5.3551,1,1.6399
10,1,8,8,1.5,1.6979,0.65496,1,2.9,0,0.74109
10,1,9,9,1.5,1.5628,0.90335,3,3.8093,0,0.60721
10,1,10,10,1.5,1.4487,0.78106,2,3.7161,0,1.6886
10,1,11,11,1.5,1.8621,1.0027,2,4.5073,0,0.36461
10,1,12,12,1.5,2.0201,0.46825,1,1.7827,0,0.37799
10,1,13,13,1.5,1.3,0.59197,2,4.3108,0,0.51808
10,1,14,14,1.5,1.052,1.0571,3,3.2875,0,0.52681
10,1,15,15,1.5,1.3897,1.0978,3,2.7038,0,1.6036
10,1,16,16,1.5,1.5563,0.79776,1,3.3903,0,0.15563
10,1,17,17,1.5,1.2282,0.70224,1,2.4474,0,1.6522
10,1,18,18,1.5,1.1455,1.1676,3,2.0311,1,1.4781
10,1,19,19,1.5,2.6513,2.2054,1,2.2949,1,0.41342
10,1,20,20,1.5,2.1283,1.1006,3,3.1931,0,2.0081
10,1,21,21,1.5,2.099,1.106,2,1.6479,1,1.2511
10,1,22,22,1.5,1.3109,1.0646,3,1.8663,0,2.0654
10,1,23,23,1.5,0.87957,1.3439,2,1.9397,0,1.5467
10,1,24,24,1.5,1.0627,1.3056,3,2.9977,0,0.71359
10,1,25,25,1.5,0.95449,1.0223,3,2.5481,0,0.97827
10,1,26,26,1.5,0.74806,1.654,3,2.5075,0,1.2581
10,1,27,27,1.5,0.70219,1.6206,2,1.4576,0,1.7744
10,1,28,28,1.5,1.2575,1.6114,2,1.0777,1,1.4544
10,1,29,29,1.5,1.0963,1.2309,2,4.5395,0,1.2504
10,1,30,30,1.5,0.78365,1.3682,3,1.4559,0,1.0728
10,1,31,31,1.5,0.50071,1.9199,2,4.4318,0,1.9348
10,1,32,32,1.5,1.6948,1.9148,1,2.5507,1,0.61332
10,1,33,33,1.5,0.75818,2.0146,2,2.0374,1,0.59374
10,1,34,34,1.5,0.73901,1.1365,3,3.5966,0,0.88448
10,1,35,35,1.5,1.0632,1.5566,2,1.2105,0,0.60217
10,1,36,36,1.5,0.61825,1.5213,2,1.2325,0,1.2551
10,1,37,37,1.5,0.41046,1.4928,3,1.4013,1,0.84273
10,1,38,38,1.5,0.52483,1.3771,3,0.95136,0,1.3451
10,1,39,39,1.5,0.59821,1.58,2,1.4378,0,1.3825
10,1,40,40,1.5,0.6429,1.578,3,1.6869,0,1.3326
10,1,41,41,1.5,0.62675,1.5916,3,1.5606,1,0.35162
10,1,42,42,1.5,0.43639,1.4094,3,0.86381,0,0.92766
10,1,43,43,1.5,0.4868,1.2101,3,1.852,0,1.6681
10,1,44,44,1.5,0.47816,1.6059,3,1.3586,0,1.4625
10,1,45,45,1.5,0.38226,1.0553,3,1.9736,0,0.40848
10,1,46,46,1.5,0.35263,2.0847,3,2.379,1,0.26276
10,1,47,47,1.5,1.1368,1.3579,2,1.2623,0,0.80358
10,1,48,48,1.5,0.50727,1.2398,3,1.5857,1,0.84335
10,1,49,49,1.5,1.4597,1.5383,2,2.8091,1,1.3085
10,1,50,50,1.5,0.5444,1.6808,3,1.5257,1,1.1122
10,1,51,51,1.5,0.58776,1.935,3,1.2421,1,0.51338
10,1,52,52,1.5,0.45896,2.2278,2,1.9762,1,0.42371
10,1,53,53,1.5,0.77218,1.588,2,2.2319,0,0.59213
10,1,54,54,1.5,0.67994,1.7071,3,1.3614,0,0.88938
10,1,55,55,1.5,0.53603,1.1848,2,1.4184,0,0.41777
10,1,56,56,1.5,0.73224,1.155,3,2.7105,0,1.0233
10,1,57,57,1.5,0.67541,1.7659,3,1.2269,1,0.33914
10,1,58,58,1.5,0.65967,1.7912,2,1.3363,1,0.54504
10,1,59,59,1.5,0.70836,1.3268,3,1.4106,0,0.9262
10,1,60,60,1.5,0.62751,1.6546,2,1.4082,1,0.96199
10,2,1,61,3,5.7914,2.565,1,3.3501,0,0.62651
10,2,2,62,3,1.2009,2.8436,2,1.2347,1,0.74401
10,2,3,63,3,2.1462,3.9525,2,1.598,1,1.4895
10,2,4,64,3,1.282,3.3072,2,2.481,1,0.70044
10,2,5,65,3,1.1969,3.356,3,2.2918,1,0.29724
10,2,6,66,3,0.95278,3.2699,3,1.4896,1,0.39724
10,2,7,67,3,1.1271,2.9779,3,1.0856,1,0.30639
10,2,8,68,3,0.57095,2.3485,2,2.1131,0,0.66402
10,2,9,69,3,0.76793,1.8697,2,1.4671,0,0.30447
10,2,10,70,3,0.83,2.5059,3,1.2568,0,0.73635
10,2,11,71,3,0.46119,2.2801,2,1.3646,1,1.1394
10,2,12,72,3,0.65271,2.2843,3,2.1279,0,0.51355
10,2,13,73,3,1.4078,3.0111,2,3.2981,0,0.60085
10,2,14,74,3,2.56,2.7349,2,4.5897,1,4.851
10,2,15,75,3,0.60768,3.2019,3,1.6387,0,0.28425
10,2,16,76,3,0.61089,3.1287,3,2.5613,1,1.1875
10,2,17,77,3,0.71435,2.6833,2,0.88791,0,1.0849
10,2,18,78,3,0.90051,2.8314,2,1.6133,0,1.1507
10,2,19,79,3,0.77186,2.5229,3,2.0071,0,0.64754
10,2,20,80,3,1.0566,2.7372,2,1.4289,0,0.56628
10,2,21,81,3,1.2387,3.5589,2,6.5079,1,1.7747
10,2,22,82,3,0.68114,2.3543,3,2.7052,0,0.69366
10,2,23,83,3,0.73972,2.2006,3,1.7516,1,1.0551
10,2,24,84,3,0.56014,1.8662,2,2.4779,0,0.78681
10,2,25,85,3,0.68948,2.4372,1,1.6671,1,0.36758
10,2,26,86,3,0.74533,2.5555,2,1.782,0,1.4637
10,2,27,87,3,0.46041,1.8303,2,1.4128,0,1.4538
10,2,28,88,3,0.80448,2.7611,3,1.3477,1,0.94034
10,2,29,89,3,0.79761,2.7077,2,1.8081,0,1.1105
10,2,30,90,3,0.78436,2.3451,2,1.9251,0,1.1114
10,2,31,91,3,0.7377,2.4596,1,1.5366,0,0.46977
10,2,32,92,3,1.4239,3.2981,2,1.4885,0,1.3223
10,2,33,93,3,0.54298,2.6908,3,1.5461,1,0.65425
10,2,34,94,3,1.0433,2.4275,2,1.1998,0,0.81641
10,2,35,95,3,0.64358,3.0289,2,1.2119,0,0.51738
10,2,36,96,3,0.63026,2.869,3,2.1649,1,1.0794
10,2,37,97,3,0.58689,3.1103,2,1.7341,0,1.1032
10,2,38,98,3,0.76011,3.6029,3,1.489,1,1.585
10,2,39,99,3,0.63575,2.046,3,1.2232,1,0.24978
10,2,40,100,3,0.78093,2.7325,2,1.1501,0,0.67885
10,2,41,101,3,1.0079,3.1258,3,1.3703,1,1.6449
10,2,42,102,3,0.87595,4.314,1,1.5725,1,0.78472
10,2,43,103,3,0.72616,2.64,2,0.90745,0,1.363
10,2,44,104,3,0.7109,4.1293,2,1.4468,1,0.41259
10,2,45,105,3,1.1394,2.8605,2,1.7482,1,0.67649
10,2,46,106,3,0.99726,2.7067,3,2.27,0,0.69226
10,2,47,107,3,0.89459,3.7671,2,2.0022,0,1.2171
10,2,48,108,3,1.3306,3.3187,3,2.7755,0,1.2834
10,2,49,109,3,0.50929,2.4145,3,1.6743,0,0.31166
10,2,50,110,3,0.79637,3.507,3,0.8801,0,0.72723
10,2,51,111,3,1.3106,2.8029,3,2.3271,0,0.54969
10,2,52,112,3,0.6934,3.1777,2,0.97402,0,0.96243
10,2,53,113,3,0.76059,3.0168,3,1.7501,0,0.39048
10,2,54,114,3,0.78255,2.9917,2,1.5209,0,0.95725
10,2,55,115,3,0.38108,3.1551,3,0.92854,1,0.80071
10,2,56,116,3,0.99202,2.8015,2,1.6642,0,1.0253
10,2,57,117,3,0.92642,2.6657,3,1.525,0,1.6117
10,2,58,118,3,0.83261,2.8557,3,1.605,0,1.3586
10,2,59,119,3,2.3814,2.2029,3,2.0928,0,0.79857
10,2,60,120,3,0.99521,3.4544,3,1.9648,1,0.69204
10,3,1,121,3,0.56514,2.5806,2,1.9891,0,0.48404
10,3,2,122,1.5,1.414,1.031,3,0.68958,1,1.3256
10,3,3,123,1.5,0.60639,0.90081,3,0.88067,0,1.0164
10,3,4,124,1.5,0.71176,1.4055,3,1.4963,0,1.7175
10,3,5,125,1.5,1.1747,1.413,3,0.93872,1,1.0737
10,3,6,126,3,1.0637,2.1688,2,1.4794,0,0.7783
10,3,7,127,3,0.60838,3.2395,2,1.0422,0,1.114
10,3,8,128,1.5,1.0348,2.5573,3,0.85698,1,0.77562
10,3,9,129,3,0.6923,2.0901,3,1.7465,0,1.0787
10,3,10,130,1.5,0.89704,1.7435,2,2.1383,0,0.60763
10,3,11,131,1.5,0.8314,1.5466,3,1.4243,1,0.71214
10,3,12,132,3,0.55985,4.0921,3,1.293,1,0.42608
10,3,13,133,1.5,0.80271,3.0841,1,2.8751,1,1.5704
10,3,14,134,1.5,0.52069,1.4102,2,1.3395,1,0.38615
10,3,15,135,1.5,0.45254,1.6473,3,0.77634,1,0.60188
10,3,16,136,1.5,0.61243,0.99408,3,1.4993,0,1.1153
10,3,17,137,1.5,0.40234,1.4222,3,1.9836,0,0.42725
10,3,18,138,3,0.57433,3.0894,1,1.5554,0,0.85858
10,3,19,139,1.5,1.6419,1.7862,2,0.84366,0,0.7281
10,3,20,140,3,0.93376,3.4938,1,2.0581,0,0.2222
10,3,21,141,1.5,0.563,1.607,2,1.8105,0,0.23852
10,3,22,142,1.5,0.50956,2.0405,2,1.2231,1,0.73485
10,3,23,143,1.5,0.43076,1.8539,3,1.0073,0,0.43694
10,3,24,144,3,0.72832,2.2677,3,1.5529,0,0.46871
10,3,25,145,3,0.46851,2.9842,2,2.3625,0,1.5764
10,3,26,146,3,0.509,1.9901,3,1.1347,1,0.83175
10,3,27,147,1.5,0.51071,1.0555,3,0.9478,0,0.49108
10,3,28,148,1.5,0.3957,1.1578,2,3.1497,0,1.2281
10,3,29,149,3,1.2783,2.9659,1,1.2745,0,0.61282
10,3,30,150,1.5,0.8553,2.1986,2,1.4878,1,0.87057
10,3,31,151,3,0.45877,2.6145,3,1.662,0,0.66429
10,3,32,152,1.5,0.63639,1.5475,2,1.7753,1,0.93721
10,3,33,153,1.5,0.90006,1.2931,3,2.289,0,1.2451
10,3,34,154,3,1.0635,2.607,3,2.2193,1,1.4166
10,3,35,155,1.5,0.636,1.3466,3,1.7767,0,1.0374
10,3,36,156,1.5,0.42949,1.544,3,1.1138,0,0.69071
10,3,37,157,1.5,0.46497,1.4303,3,1.4646,0,0.52653
10,3,38,158,3,0.73866,2.6866,3,1.7653,1,0.61508
10,3,39,159,3,0.84866,3.3036,1,1.315,1,0.67816
10,3,40,160,1.5,0.67708,1.0662,3,1.1057,0,0.72286
10,3,41,161,3,0.79505,2.5301,2,1.4142,0,0.52682
10,3,42,162,3,0.78439,3.2323,3,1.3772,0,0.78939
10,3,43,163,1.5,0.45153,1.7586,2,0.92349,0,0.57515
10,3,44,164,3,0.89216,3.8139,3,1.1369,1,0.65824
10,3,45,165,1.5,0.64227,1.639,2,0.90945,1,0.75242
10,3,46,166,1.5,0.47989,1.5825,2,1.4274,1,0.80277
10,3,47,167,3,0.75281,3.0341,2,1.4628,0,0.704
10,3,48,168,3,0.38344,2.983,3,1.1484,1,0.57888
10,3,49,169,3,0.50384,3.2226,3,1.1546,1,1.3726
10,3,50,170,3,0.36068,2.7549,3,1.0922,0,0.62688
10,3,51,171,3,0.32686,2.8173,2,1.2499,1,0.88002
10,3,52,172,3,0.25084,2.9707,2,0.97779,0,1.0424
10,3,53,173,3,0.37733,3.0798,3,1.2254,0,0.9377
10,3,54,174,3,0.3089,2.7146,3,1.3621,1,0.81656
10,3,55,175,1.5,0.43908,1.5127,2,0.75025,0,0.61764
10,3,56,176,3,0.67357,3.1124,3,1.8742,1,1.1597
10,3,57,177,1.5,0.42537,1.9034,1,1.1182,0,0.6935
10,3,58,178,1.5,0.59039,1.4129,2,0.80056,0,1.4942
10,3,59,179,3,0.34479,2.7443,3,1.1114,0,0.75344
10,3,60,180,1.5,0.33328,1.7577,3,1.2486,1,0.66539
10,3,61,181,1.5,0.48179,1.7305,2,0.82524,0,0.67712
10,3,62,182,3,0.39426,2.6053,3,1.5431,0,0.51314
10,3,63,183,3,0.48514,2.4588,1,1.0345,0,0.66937
10,3,64,184,3,0.62237,3.5121,1,0.8104,1,0.45366
10,3,65,185,3,0.51805,3.246,3,1.0862,1,0.29535
10,3,66,186,1.5,0.71248,1.1193,2,0.90694,0,0.96317
10,3,67,187,1.5,0.83661,1.7713,3,1.5833,1,0.9654
10,3,68,188,1.5,0.50184,1.5078,3,1.2241,0,0.36216
10,3,69,189,3,0.82828,3.5295,2,1.124,1,0.61207
10,3,70,190,3,0.60228,3.4718,2,0.92871,1,0.22543
10,3,71,191,3,0.54745,2.7451,3,0.91287,0,0.50161
10,3,72,192,3,0.67231,2.6498,1,1.1503,1,1.168
10,3,73,193,3,0.62126,2.0861,3,1.0174,1,0.5184
10,3,74,194,3,0.37298,2.9886,2,1.5928,1,0.26241
10,3,75,195,1.5,0.48489,1.1335,2,1.8291,0,1.002
10,3,76,196,3,0.34817,2.8173,3,1.4257,0,1.3
10,3,77,197,3,0.29415,3.5938,2,0.36936,1,0.47298
10,3,78,198,3,0.37446,2.6522,2,1.1278,1,0.41542
10,3,79,199,1.5,0.47542,1.3786,3,1.2234,0,0.68758
10,3,80,200,1.5,0.38262,1.3062,3,1.2724,0,0.51135
10,3,81,201,1.5,0.3074,1.1145,3,1.0909,1,0.42445
10,3,82,202,3,0.50548,2.5744,3,1.3713,0,0.5463
10,3,83,203,1.5,0.41386,1.3664,3,1.2283,0,0.5166
10,3,84,204,1.5,0.35861,1.3662,2,1.1795,0,0.67473
10,3,85,205,3,0.44613,2.4958,3,0.68809,1,0.57359
10,3,86,206,1.5,0.29993,1.1075,2,1.449,0,0.76637
10,3,87,207,1.5,0.52504,1.6412,3,1.2977,1,0.5898
10,3,88,208,3,0.47187,4.1748,1,0.82892,1,0.38788
10,3,89,209,3,0.46723,2.8464,3,1.3254,1,0.57521
10,3,90,210,1.5,0.55033,2.0561,3,1.2335,0,0.8054
11,1,1,1,1.5,1.5264,1.5258,3,1.6637,0,2.9002
11,1,2,2,1.5,1.8009,1.9956,3,2.5393,1,1.507
11,1,3,3,1.5,2.341,2.196,2,2.2888,1,1.1204
11,1,4,4,1.5,1.7664,1.1694,2,3.2579,0,0.98122
11,1,5,5,1.5,1.6496,1.4696,2,3.9569,1,2.341
11,1,6,6,1.5,0.97981,2.3312,1,2.6366,1,0.94094
11,1,7,7,1.5,1.0726,1.3985,1,1.4403,1,0.80979
11,1,8,8,1.5,0.79365,1.9539,3,1.8197,1,1.5798
11,1,9,9,1.5,0.78826,2.2364,3,3.4665,0,1.1031
11,1,10,10,1.5,0.59333,1.9021,2,1.269,0,0.8809
11,1,11,11,1.5,0.49261,1.9914,2,1.1853,0,0.6447
11,1,12,12,1.5,1.2169,1.3794,2,1.0377,0,0.90921
11,1,13,13,1.5,1.6025,2.2549,1,1.3197,1,1.1327
11,1,14,14,1.5,2.4363,1.6046,3,0.97031,0,1.2343
11,1,15,15,1.5,0.91429,1.8209,3,0.86914,1,0.83258
11,1,16,16,1.5,0.69915,1.893,1,0.99935,0,1.3676
11,1,17,17,1.5,0.54932,1.6186,3,1.9305,1,2.2155
11,1,18,18,1.5,1.0607,1.0399,3,1.338,0,1.0087
11,1,19,19,1.5,1.3831,2.3443,2,2.4627,0,3.1013
11,1,20,20,1.5,1.015,1.8197,1,0.93159,0,0.99087
11,1,21,21,1.5,0.51979,1.3976,1,1.5022,1,2.1054
11,1,22,22,1.5,0.48832,1.9127,3,1.4777,1,1.4136
11,1,23,23,1.5,0.95411,1.7972,3,1.0998,1,3.0417
11,1,24,24,1.5,0.8712,1.11,3,0.79856,1,0.80434
11,1,25,25,1.5,0.55448,1.4984,2,2.064,0,1.5163
11,1,26,26,1.5,0.8023,1.2451,2,2.313,0,0.56391
11,1,27,27,1.5,0.54348,1.6157,3,1.0414,1,2.5127
11,1,28,28,1.5,0.4664,1.6071,3,0.83569,0,2.8327
11,1,29,29,1.5,0.46791,1.6336,3,0.72797,1,5.7643
11,1,30,30,1.5,0.5859,1.6844,1,1.278,1,1.5164
11,1,31,31,1.5,0.6088,1.8157,2,2.039,1,4.608
