Subj_idx,Trial,Block,Stimulus,Response,Error,Confidence,ErrorDirectionJudgment,RT_conf,RT_directionJudgment,trialFilter,madFilter
1,1,1,669.7674419,365.3276956,-304.4397463,2,-1,2.940391889,3.59682685,1,1
1,2,1,669.7674419,487.1035941,-182.6638478,2,1,0.788137816,2.979673323,1,1
1,3,1,466.807611,345.0317125,-121.7758985,2,-1,0.556176834,0.632765279,1,1
1,4,1,304.4397463,284.1437632,-20.29598309,1,-1,0.360214153,0.324220387,1,1
1,5,1,304.4397463,284.1437632,-20.29598309,3,-1,0.925512108,0.63967133,1,1
1,6,1,669.7674419,324.7357294,-345.0317125,2,-1,0.413684011,0.332422304,1,1
1,7,1,304.4397463,263.8477801,-40.59196617,3,1,0.297755334,1.536028737,1,1
1,8,1,304.4397463,263.8477801,-40.59196617,2,1,0.207549053,0.63315624,1,1
1,9,1,466.807611,284.1437632,-182.6638478,3,1,0.295364653,0.882997985,1,1
1,10,1,669.7674419,446.5116279,-223.255814,3,-1,1.051900606,0.69952617,1,1
1,11,1,304.4397463,182.6638478,-121.7758985,1,-1,1.542354145,0.45538457,1,1
1,12,1,466.807611,365.3276956,-101.4799154,2,1,3.215170435,0.397156843,1,1
1,13,1,466.807611,385.6236786,-81.18393235,2,1,0.417808108,0.572908045,1,1
1,14,1,466.807611,365.3276956,-101.4799154,1,1,0.673314623,0.97550413,1,1
1,15,1,669.7674419,405.9196617,-263.8477801,1,1,0.296646344,0.557145744,1,1
1,16,1,669.7674419,487.1035941,-182.6638478,3,-1,0.404744771,0.470575809,1,1
1,17,1,466.807611,466.807611,-6.25E-13,3,1,1.380032672,1.471658694,1,1
1,18,1,466.807611,446.5116279,-20.29598309,2,-1,0.244864472,0.524629893,1,1
1,19,1,466.807611,345.0317125,-121.7758985,2,-1,0.242162882,0.535497,1,1
1,20,1,304.4397463,385.6236786,81.18393235,3,1,0.247356781,0.313459724,1,1
1,21,1,669.7674419,487.1035941,-182.6638478,2,-1,1.303126066,0.695118279,1,1
1,22,1,304.4397463,284.1437632,-20.29598309,2,-1,3.496745254,1.396139526,1,1
1,23,1,669.7674419,426.2156448,-243.551797,3,-1,0.509094573,0.436018404,1,1
1,24,1,669.7674419,466.807611,-202.9598309,2,-1,0.826310931,0.484346934,1,1
1,25,1,669.7674419,588.5835095,-81.18393235,2,1,0.73533964,1.378310944,1,1
1,26,1,466.807611,507.3995772,40.59196617,2,1,1.742926407,1.115818927,1,1
1,27,1,304.4397463,304.4397463,-3.98E-13,2,1,0.279661562,0.586234962,1,1
1,28,1,669.7674419,487.1035941,-182.6638478,2,-1,0.833449954,0.235392598,1,1
1,29,1,669.7674419,263.8477801,-405.9196617,1,-1,0.316355584,1.257536021,1,1
1,30,1,466.807611,426.2156448,-40.59196617,2,-1,4.883929068,0.867354677,1,1
1,31,1,669.7674419,568.2875264,-101.4799154,3,-1,0.769651421,0.599789075,1,1
1,32,1,669.7674419,588.5835095,-81.18393235,3,-1,0.932284511,0.416974866,1,1
1,33,1,669.7674419,568.2875264,-101.4799154,3,-1,0.388514033,0.3268062,1,1
1,34,1,466.807611,385.6236786,-81.18393235,2,1,0.88334671,0.462605876,1,1
1,35,1,304.4397463,324.7357294,20.29598309,3,-1,0.77871633,14.63413821,1,1
1,36,1,466.807611,507.3995772,40.59196617,2,1,1.955757186,1.180580723,1,1
1,37,1,466.807611,446.5116279,-20.29598309,1,1,1.266804689,1.654947611,1,1
1,38,1,466.807611,202.9598309,-263.8477801,1,-1,0.352935527,0.285625498,1,1
1,39,1,304.4397463,385.6236786,81.18393235,2,1,0.690103684,0.935851076,1,1
1,40,1,669.7674419,405.9196617,-263.8477801,2,-1,0.362790713,0.736024415,1,1
1,41,1,304.4397463,324.7357294,20.29598309,2,-1,0.346550601,1.125150771,1,1
1,42,1,304.4397463,324.7357294,20.29598309,3,1,0.851195241,1.254576979,1,1
1,43,1,304.4397463,345.0317125,40.59196617,2,1,0.922843162,0.754220523,1,1
1,44,1,466.807611,20.29598309,-446.5116279,1,-1,2.995665069,1.749690365,0,1
1,45,1,669.7674419,466.807611,-202.9598309,1,-1,0.474434948,9.75146898,1,1
1,46,1,304.4397463,365.3276956,60.88794926,2,-1,0.454243605,0.54472034,1,1
1,47,1,304.4397463,284.1437632,-20.29598309,2,-1,4.120327723,0.553194635,1,1
1,48,1,466.807611,446.5116279,-20.29598309,2,1,0.596506823,1.148429695,1,1
1,49,1,304.4397463,385.6236786,81.18393235,1,1,1.91366516,2.692213184,1,1
1,50,1,466.807611,324.7357294,-142.0718816,2,-1,5.215168597,1.223568178,1,1
1,51,1,304.4397463,365.3276956,60.88794926,3,-1,3.38771459,17.35975959,1,1
1,52,1,466.807611,466.807611,-6.25E-13,3,1,0.362870135,1.206933278,1,1
1,53,1,466.807611,527.6955603,60.88794926,2,1,2.302646033,1.936134395,1,1
1,54,1,466.807611,345.0317125,-121.7758985,1,1,1.32679623,0.842298962,1,1
1,55,1,466.807611,466.807611,-6.25E-13,2,1,1.679935546,1.06955887,1,1
1,56,1,304.4397463,345.0317125,40.59196617,3,1,0.320349794,1.258722597,1,1
1,57,1,466.807611,507.3995772,40.59196617,2,1,0.440969445,0.62181657,1,1
1,58,1,304.4397463,426.2156448,121.7758985,2,1,1.007037188,0.416096783,1,1
1,59,1,466.807611,487.1035941,20.29598309,3,-1,0.400496196,0.523814951,1,1
1,60,1,669.7674419,588.5835095,-81.18393235,2,1,1.232492009,0.644601699,1,1
1,61,1,304.4397463,345.0317125,40.59196617,2,-1,1.301970149,1.315755062,1,1
1,62,1,466.807611,446.5116279,-20.29598309,2,-1,1.546788746,1.564284525,1,1
1,63,1,466.807611,426.2156448,-40.59196617,3,1,1.396550061,0.621794864,1,1
1,64,1,304.4397463,446.5116279,142.0718816,2,1,1.652189332,0.684099651,1,0
1,65,1,669.7674419,446.5116279,-223.255814,2,-1,1.265302234,0.790877265,1,1
1,66,1,466.807611,446.5116279,-20.29598309,2,-1,0.626850415,0.514188767,1,1
1,67,1,304.4397463,385.6236786,81.18393235,2,1,1.600900916,0.345880143,1,1
1,68,1,304.4397463,365.3276956,60.88794926,2,1,1.3605675,0.508244279,1,1
1,69,1,669.7674419,547.9915433,-121.7758985,2,-1,0.341270352,0.249025686,1,1
1,70,1,669.7674419,527.6955603,-142.0718816,2,-1,0.354767106,0.340071637,1,1
1,71,1,669.7674419,608.8794926,-60.88794926,2,1,3.37554373,0.92856433,1,1
1,72,1,466.807611,629.1754757,162.3678647,3,-1,0.927621135,0.270952807,1,0
1,73,1,669.7674419,385.6236786,-284.1437632,1,-1,0.497367786,0.467958695,1,1
1,74,1,669.7674419,487.1035941,-182.6638478,2,-1,0.252335136,1.069284325,1,1
1,75,1,669.7674419,649.4714588,-20.29598309,3,-1,1.057810572,0.947420929,1,1
1,76,1,466.807611,568.2875264,101.4799154,3,-1,0.431408358,0.719697828,1,1
1,77,1,304.4397463,324.7357294,20.29598309,2,1,0.377549408,0.29456334,1,1
1,78,1,669.7674419,487.1035941,-182.6638478,2,1,0.327829348,0.246107547,1,1
1,79,1,466.807611,466.807611,-6.25E-13,3,-1,0.202881453,0.562147345,1,1
1,80,1,466.807611,446.5116279,-20.29598309,3,-1,0.720783582,0.284497298,1,1
1,81,1,669.7674419,507.3995772,-162.3678647,3,1,0.340738981,1.20210104,1,1
1,82,1,466.807611,426.2156448,-40.59196617,3,-1,0.67333424,0.572488413,1,1
1,83,1,466.807611,446.5116279,-20.29598309,2,1,1.407497401,0.715159445,1,1
1,84,1,304.4397463,284.1437632,-20.29598309,3,1,0.600805691,0.281767251,1,1
1,85,1,669.7674419,365.3276956,-304.4397463,3,-1,0.280909178,0.589965282,1,1
1,86,1,466.807611,284.1437632,-182.6638478,2,-1,0.270922574,0.58470651,1,1
1,87,1,304.4397463,345.0317125,40.59196617,2,-1,0.729742457,0.485613913,1,1
1,88,1,466.807611,405.9196617,-60.88794926,2,-1,39.88582983,1.217116522,1,1
1,89,1,304.4397463,182.6638478,-121.7758985,3,-1,0.344440327,0.582392188,1,1
1,90,1,466.807611,466.807611,-6.25E-13,3,-1,0.28844742,0.533435766,1,1
1,91,1,669.7674419,568.2875264,-101.4799154,3,1,0.830596216,1.275768694,1,1
1,92,1,669.7674419,547.9915433,-121.7758985,3,-1,0.337839083,0.28864387,1,1
1,93,1,466.807611,223.255814,-243.551797,2,-1,0.221982296,0.282870367,1,1
1,94,1,304.4397463,243.551797,-60.88794926,2,-1,0.23006557,0.280287277,1,1
1,95,1,669.7674419,547.9915433,-121.7758985,2,-1,0.839427936,0.275814089,1,1
1,96,1,304.4397463,263.8477801,-40.59196617,2,-1,0.255578661,0.292546552,1,1
1,97,1,669.7674419,527.6955603,-142.0718816,3,-1,0.484948444,1.403699454,1,1
1,98,1,669.7674419,568.2875264,-101.4799154,2,-1,1.272368043,0.301491152,1,1
1,99,1,466.807611,20.29598309,-446.5116279,1,-1,4.447684499,0.78549613,0,1
1,100,1,304.4397463,385.6236786,81.18393235,2,1,3.30251116,0.591724521,1,1
1,101,1,669.7674419,365.3276956,-304.4397463,1,-1,0.66655594,0.460485685,1,1
1,102,1,669.7674419,487.1035941,-182.6638478,3,-1,0.254852961,1.200753497,1,1
1,103,1,466.807611,365.3276956,-101.4799154,2,-1,1.215013905,0.330133195,1,1
1,104,1,669.7674419,345.0317125,-324.7357294,2,-1,0.895274529,0.311070246,1,1
1,105,1,466.807611,223.255814,-243.551797,1,-1,0.422076633,0.263055602,1,1
1,106,1,669.7674419,405.9196617,-263.8477801,3,-1,0.544318685,0.245532421,1,1
1,107,1,669.7674419,426.2156448,-243.551797,2,-1,0.247935952,0.607022427,1,1
1,108,1,304.4397463,304.4397463,-3.98E-13,3,-1,0.484123466,0.267673827,1,1
1,109,1,669.7674419,466.807611,-202.9598309,2,-1,1.009096408,0.240827417,1,1
1,110,1,304.4397463,345.0317125,40.59196617,2,-1,1.060091063,0.211465547,1,1
1,111,1,669.7674419,527.6955603,-142.0718816,2,-1,0.805721175,0.655195588,1,1
1,112,1,466.807611,507.3995772,40.59196617,3,-1,0.587111286,0.265411618,1,1
1,113,1,466.807611,324.7357294,-142.0718816,2,1,1.633321953,1.057483509,1,1
1,114,1,669.7674419,385.6236786,-284.1437632,2,-1,1.568475369,0.976485273,1,1
1,115,1,669.7674419,20.29598309,-649.4714588,1,-1,2.214383739,0.53084467,0,1
1,116,1,669.7674419,527.6955603,-142.0718816,2,-1,0.698659803,0.199272741,1,1
1,117,1,669.7674419,345.0317125,-324.7357294,3,-1,0.33444845,0.252705721,1,1
1,118,1,304.4397463,223.255814,-81.18393235,3,-1,0.254422549,0.287816123,1,1
1,119,1,466.807611,263.8477801,-202.9598309,1,1,0.300152099,0.267725201,1,1
1,120,1,304.4397463,284.1437632,-20.29598309,2,-1,1.294002775,0.59253914,1,1
1,121,2,669.7674419,345.0317125,-324.7357294,2,-1,0.298011829,0.324144564,1,1
1,122,2,669.7674419,466.807611,-202.9598309,2,-1,1.132896851,0.241085947,1,1
1,123,2,466.807611,446.5116279,-20.29598309,2,-1,0.340596457,0.251717624,1,1
1,124,2,304.4397463,284.1437632,-20.29598309,3,-1,0.814985913,0.39007433,1,1
1,125,2,669.7674419,345.0317125,-324.7357294,2,-1,0.43814438,2.026610475,1,1
1,126,2,304.4397463,345.0317125,40.59196617,3,-1,0.327513393,0.353541562,1,1
1,127,2,304.4397463,284.1437632,-20.29598309,3,-1,0.259271127,1.308869427,1,1
1,128,2,669.7674419,466.807611,-202.9598309,3,-1,0.819135008,2.62849113,1,1
1,129,2,466.807611,385.6236786,-81.18393235,3,-1,2.296259373,0.953477322,1,1
1,130,2,304.4397463,385.6236786,81.18393235,3,-1,0.346871288,0.53210702,1,1
1,131,2,669.7674419,487.1035941,-182.6638478,2,-1,0.360288979,0.330903485,1,1
1,132,2,669.7674419,385.6236786,-284.1437632,2,1,0.389600987,0.233509052,1,1
1,133,2,304.4397463,324.7357294,20.29598309,3,1,0.299755886,0.3064252,1,1
1,134,2,466.807611,365.3276956,-101.4799154,3,-1,0.257721079,0.548932946,1,1
1,135,2,304.4397463,365.3276956,60.88794926,3,-1,0.26846745,0.610285983,1,1
1,136,2,466.807611,405.9196617,-60.88794926,3,-1,0.44801493,0.271221821,1,1
1,137,2,304.4397463,304.4397463,-3.98E-13,2,1,1.021998518,0.690566934,1,1
1,138,2,669.7674419,487.1035941,-182.6638478,2,1,1.163221541,0.47508861,1,1
1,139,2,304.4397463,324.7357294,20.29598309,3,1,0.913634405,0.335018507,1,1
1,140,2,304.4397463,263.8477801,-40.59196617,2,1,0.921283775,0.476247542,1,1
1,141,2,669.7674419,487.1035941,-182.6638478,3,1,0.326918773,0.248465728,1,1
1,142,2,304.4397463,324.7357294,20.29598309,3,1,1.336719417,0.846947408,1,1
1,143,2,669.7674419,365.3276956,-304.4397463,1,-1,0.332585782,0.345535653,1,1
1,144,2,466.807611,426.2156448,-40.59196617,2,-1,3.336587035,1.041464192,1,1
1,145,2,466.807611,365.3276956,-101.4799154,3,-1,0.520358065,1.013253858,1,1
1,146,2,669.7674419,487.1035941,-182.6638478,3,1,0.430542132,1.223379108,1,1
1,147,2,669.7674419,527.6955603,-142.0718816,3,1,1.20455681,0.977885224,1,1
1,148,2,466.807611,345.0317125,-121.7758985,3,1,0.866897902,0.295651387,1,1
1,149,2,466.807611,405.9196617,-60.88794926,2,-1,0.29150055,0.522167607,1,1
1,150,2,304.4397463,202.9598309,-101.4799154,3,1,0.313648159,0.228524065,1,1
1,151,2,304.4397463,263.8477801,-40.59196617,3,-1,0.324123214,0.474655841,1,1
1,152,2,466.807611,223.255814,-243.551797,2,-1,0.372880192,0.442299176,1,1
1,153,2,304.4397463,243.551797,-60.88794926,3,-1,0.799276425,0.845917858,1,1
1,154,2,304.4397463,304.4397463,-3.98E-13,3,-1,0.357587148,0.262459581,1,1
1,155,2,304.4397463,304.4397463,-3.98E-13,3,1,0.273535604,0.233889532,1,1
1,156,2,466.807611,243.551797,-223.255814,1,-1,0.634660687,0.388614623,1,1
1,157,2,669.7674419,446.5116279,-223.255814,2,1,0.439846095,0.551020284,1,1
1,158,2,466.807611,365.3276956,-101.4799154,2,1,1.320731329,0.306370259,1,1
1,159,2,304.4397463,324.7357294,20.29598309,3,-1,0.923656938,1.172850723,1,1
1,160,2,669.7674419,345.0317125,-324.7357294,1,-1,0.910724985,0.312977695,1,1
1,161,2,466.807611,365.3276956,-101.4799154,2,-1,1.290924303,0.308821352,1,1
1,162,2,669.7674419,527.6955603,-142.0718816,2,1,1.722826234,1.344317211,1,1
1,163,2,669.7674419,527.6955603,-142.0718816,3,-1,1.648741915,0.522449271,1,1
1,164,2,466.807611,466.807611,-6.25E-13,2,1,1.303680743,1.014829299,1,1
1,165,2,669.7674419,304.4397463,-365.3276956,1,-1,0.371296622,0.230579613,1,1
1,166,2,669.7674419,405.9196617,-263.8477801,2,1,0.885896988,0.652863787,1,1
1,167,2,669.7674419,568.2875264,-101.4799154,2,-1,0.551948298,0.343443799,1,1
1,168,2,466.807611,385.6236786,-81.18393235,1,-1,0.905659413,0.693154437,1,1
1,169,2,669.7674419,608.8794926,-60.88794926,3,1,0.883821698,0.415022721,1,1
1,170,2,304.4397463,324.7357294,20.29598309,3,1,0.327738794,0.463047457,1,1
1,171,2,466.807611,263.8477801,-202.9598309,2,-1,0.567384624,0.276050416,1,1
1,172,2,669.7674419,446.5116279,-223.255814,2,-1,0.468713731,0.423818621,1,1
1,173,2,466.807611,345.0317125,-121.7758985,3,1,0.887265352,0.359143821,1,1
1,174,2,304.4397463,284.1437632,-20.29598309,1,-1,1.242430531,0.646521732,1,1
1,175,2,669.7674419,182.6638478,-487.1035941,2,-1,0.371836237,0.372867845,1,0
1,176,2,304.4397463,223.255814,-81.18393235,2,-1,0.406744262,0.507724337,1,1
1,177,2,466.807611,243.551797,-223.255814,2,-1,0.270079212,0.261221542,1,1
1,178,2,466.807611,405.9196617,-60.88794926,3,-1,0.983262972,1.022249848,1,1
1,179,2,669.7674419,365.3276956,-304.4397463,2,-1,0.359663426,0.543260643,1,1
1,180,2,466.807611,324.7357294,-142.0718816,2,-1,0.314914928,0.499265665,1,1
1,181,2,669.7674419,345.0317125,-324.7357294,1,-1,0.363824048,0.279228998,1,1
1,182,2,466.807611,385.6236786,-81.18393235,2,-1,0.129721552,0.598970758,1,1
1,183,2,304.4397463,324.7357294,20.29598309,3,-1,0.871245245,1.114493882,1,1
1,184,2,669.7674419,365.3276956,-304.4397463,2,-1,2.104744238,0.193813244,1,1
1,185,2,466.807611,385.6236786,-81.18393235,2,-1,0.761326596,0.504345275,1,1
1,186,2,669.7674419,345.0317125,-324.7357294,1,-1,0.435475126,0.333127387,1,1
1,187,2,304.4397463,263.8477801,-40.59196617,2,-1,0.868785424,0.382625697,1,1
1,188,2,304.4397463,345.0317125,40.59196617,3,-1,0.74618308,0.204143562,1,1
1,189,2,669.7674419,345.0317125,-324.7357294,1,-1,0.512052256,0.206940723,1,1
1,190,2,304.4397463,284.1437632,-20.29598309,2,-1,1.432450847,0.270669835,1,1
1,191,2,669.7674419,405.9196617,-263.8477801,1,-1,0.809014813,0.258536399,1,1
1,192,2,304.4397463,263.8477801,-40.59196617,3,-1,0.576345327,0.130710236,1,1
1,193,2,304.4397463,243.551797,-60.88794926,3,-1,2.56882606,0.175332583,1,1
1,194,2,466.807611,304.4397463,-162.3678647,1,-1,0.59234507,0.326883619,1,1
1,195,2,466.807611,385.6236786,-81.18393235,1,-1,0.736194328,0.307127627,1,1
1,196,2,304.4397463,304.4397463,-3.98E-13,2,-1,0.303129699,0.318842161,1,1
1,197,2,466.807611,324.7357294,-142.0718816,2,-1,0.290353479,0.275630068,1,1
1,198,2,304.4397463,304.4397463,-3.98E-13,2,-1,0.378502168,1.452951939,1,1
1,199,2,466.807611,263.8477801,-202.9598309,3,-1,0.894525875,0.661728152,1,1
1,200,2,304.4397463,304.4397463,-3.98E-13,2,-1,1.100684161,0.468741894,1,1
1,201,2,466.807611,263.8477801,-202.9598309,2,-1,0.439701187,0.326888108,1,1
1,202,2,466.807611,284.1437632,-182.6638478,2,-1,0.191822794,0.286654678,1,1
1,203,2,466.807611,345.0317125,-121.7758985,2,-1,0.534165025,0.23695307,1,1
1,204,2,304.4397463,223.255814,-81.18393235,3,-1,0.548842635,0.35066961,1,1
1,205,2,304.4397463,223.255814,-81.18393235,2,-1,0.335126871,0.193889805,1,1
1,206,2,466.807611,284.1437632,-182.6638478,2,-1,0.774928439,0.815812138,1,1
1,207,2,304.4397463,202.9598309,-101.4799154,1,-1,0.386983743,0.31464862,1,1
1,208,2,304.4397463,304.4397463,-3.98E-13,2,-1,0.839674106,0.426869531,1,1
1,209,2,466.807611,405.9196617,-60.88794926,2,-1,0.475444415,0.259740358,1,1
1,210,2,304.4397463,223.255814,-81.18393235,2,-1,0.32261274,0.315354269,1,1
1,211,2,466.807611,385.6236786,-81.18393235,3,-1,0.837450708,0.322303916,1,1
1,212,2,304.4397463,284.1437632,-20.29598309,2,-1,0.520055539,0.294977365,1,1
1,213,2,304.4397463,263.8477801,-40.59196617,3,1,1.26496176,0.339341353,1,1
1,214,2,466.807611,304.4397463,-162.3678647,1,-1,0.433663309,0.502413058,1,1
1,215,2,304.4397463,243.551797,-60.88794926,1,-1,0.38097784,0.272099562,1,1
1,216,2,304.4397463,263.8477801,-40.59196617,3,-1,0.719853374,0.482812751,1,1
1,217,2,304.4397463,263.8477801,-40.59196617,2,1,0.333167409,0.246212323,1,1
1,218,2,466.807611,345.0317125,-121.7758985,2,-1,0.377576644,0.633501936,1,1
1,219,2,304.4397463,162.3678647,-142.0718816,1,-1,0.279597241,0.288585849,1,1
1,220,2,304.4397463,223.255814,-81.18393235,2,-1,0.842969923,0.322886362,1,1
1,221,2,466.807611,345.0317125,-121.7758985,2,-1,0.340425572,0.29087222,1,1
1,222,2,466.807611,385.6236786,-81.18393235,2,-1,0.327226466,0.308545951,1,1
1,223,2,304.4397463,243.551797,-60.88794926,1,-1,0.164318836,0.333686647,1,1
1,224,2,466.807611,405.9196617,-60.88794926,3,-1,0.26036067,0.256593428,1,1
1,225,2,304.4397463,182.6638478,-121.7758985,2,-1,0.337547818,0.285649198,1,1
1,226,2,304.4397463,263.8477801,-40.59196617,2,-1,0.283230336,0.680307651,1,1
1,227,2,466.807611,405.9196617,-60.88794926,2,-1,0.341171597,0.647459003,1,1
1,228,2,669.7674419,507.3995772,-162.3678647,2,-1,0.671949585,0.285025321,1,1
1,229,2,304.4397463,20.29598309,-284.1437632,1,-1,2.802341195,0.66906603,0,1
1,230,2,669.7674419,304.4397463,-365.3276956,1,-1,0.511409839,0.364023615,1,1
1,231,2,669.7674419,385.6236786,-284.1437632,3,-1,1.985060279,1.671968462,1,1
1,232,2,466.807611,284.1437632,-182.6638478,2,-1,0.623743593,0.256452457,1,1
1,233,2,304.4397463,263.8477801,-40.59196617,2,-1,1.633138855,0.155264682,1,1
1,234,2,669.7674419,385.6236786,-284.1437632,1,-1,0.272419338,0.580470339,1,1
1,235,2,669.7674419,385.6236786,-284.1437632,1,-1,0.286616566,0.49469846,1,1
1,236,2,304.4397463,223.255814,-81.18393235,3,-1,0.455995943,0.211368577,1,1
1,237,2,669.7674419,385.6236786,-284.1437632,2,-1,0.905178993,0.325674015,1,1
1,238,2,669.7674419,405.9196617,-263.8477801,1,-1,1.540124063,0.15200903,1,1
1,239,2,669.7674419,385.6236786,-284.1437632,2,-1,1.024206847,0.30491918,1,1
1,240,2,669.7674419,426.2156448,-243.551797,2,-1,2.344177839,2.267645103,1,1
2,1,1,669.7674419,405.9196617,-263.8477801,1,-1,2.399340907,2.143818498,1,1
2,2,1,304.4397463,223.255814,-81.18393235,2,-1,2.771299969,1.734534775,1,1
2,3,1,669.7674419,568.2875264,-101.4799154,2,1,0.97408658,1.425819827,1,1
2,4,1,669.7674419,568.2875264,-101.4799154,2,1,1.586159062,1.383668485,1,1
2,5,1,669.7674419,649.4714588,-20.29598309,3,1,0.938884728,1.859668172,1,1
2,6,1,669.7674419,547.9915433,-121.7758985,2,-1,1.405807762,0.477030448,1,1
2,7,1,466.807611,405.9196617,-60.88794926,3,-1,0.827466928,1.692298513,1,1
2,8,1,304.4397463,243.551797,-60.88794926,3,-1,1.358840802,0.918384995,1,1
2,9,1,466.807611,426.2156448,-40.59196617,3,-1,0.799976867,1.02673512,1,1
2,10,1,304.4397463,263.8477801,-40.59196617,3,1,0.585950184,0.674683875,1,1
2,11,1,304.4397463,243.551797,-60.88794926,2,-1,0.279418465,0.972978931,1,1
2,12,1,304.4397463,284.1437632,-20.29598309,3,-1,0.745210516,0.988996749,1,1
2,13,1,466.807611,547.9915433,81.18393235,3,1,0.738900117,0.838879353,1,1
2,14,1,466.807611,446.5116279,-20.29598309,3,-1,0.645097039,0.647684435,1,1
2,15,1,466.807611,426.2156448,-40.59196617,3,-1,0.778320149,0.508693014,1,1
2,16,1,466.807611,487.1035941,20.29598309,2,1,0.92642769,0.972671663,1,1
2,17,1,304.4397463,202.9598309,-101.4799154,2,1,0.692513835,0.689713224,1,1
2,18,1,304.4397463,405.9196617,101.4799154,2,1,1.212469466,0.963614471,1,1
2,19,1,669.7674419,690.0634249,20.29598309,3,1,1.773789101,1.311022541,1,1
2,20,1,669.7674419,588.5835095,-81.18393235,2,-1,1.007078991,1.053501134,1,1
2,21,1,304.4397463,284.1437632,-20.29598309,3,1,0.4261232,0.548528695,1,1
2,22,1,669.7674419,629.1754757,-40.59196617,2,-1,1.090585598,0.904474384,1,1
2,23,1,669.7674419,466.807611,-202.9598309,2,1,0.413275017,0.727319865,1,1
2,24,1,304.4397463,243.551797,-60.88794926,3,-1,0.799474012,0.512565401,1,1
2,25,1,669.7674419,547.9915433,-121.7758985,3,1,0.792890426,0.303776123,1,1
2,26,1,304.4397463,202.9598309,-101.4799154,3,-1,1.06494624,0.20876047,1,1
2,27,1,669.7674419,568.2875264,-101.4799154,3,-1,0.959553907,0.367404766,1,1
2,28,1,669.7674419,568.2875264,-101.4799154,2,1,1.024307341,0.749716979,1,1
2,29,1,669.7674419,649.4714588,-20.29598309,3,1,0.810740216,1.06297852,1,1
2,30,1,669.7674419,690.0634249,20.29598309,2,-1,0.726654684,0.84495383,1,1
2,31,1,466.807611,466.807611,-6.25E-13,3,-1,1.071918103,0.476638073,1,1
2,32,1,304.4397463,284.1437632,-20.29598309,3,1,1.14890426,0.887642567,1,1
2,33,1,466.807611,466.807611,-6.25E-13,3,1,1.347055498,0.442146679,1,1
2,34,1,669.7674419,547.9915433,-121.7758985,1,1,0.858521082,0.830771991,1,1
2,35,1,669.7674419,568.2875264,-101.4799154,2,1,0.840749918,0.972465258,1,1
2,36,1,466.807611,385.6236786,-81.18393235,2,1,0.564856738,0.866181792,1,1
2,37,1,669.7674419,629.1754757,-40.59196617,2,-1,0.685219142,1.055746378,1,1
2,38,1,304.4397463,324.7357294,20.29598309,3,1,0.754544813,0.549748572,1,1
2,39,1,304.4397463,202.9598309,-101.4799154,2,-1,1.884796759,0.373381132,1,1
2,40,1,304.4397463,263.8477801,-40.59196617,3,1,0.435093618,0.73090941,1,1
2,41,1,304.4397463,284.1437632,-20.29598309,3,-1,0.715930297,0.801829266,1,1
2,42,1,304.4397463,263.8477801,-40.59196617,3,-1,0.906722924,0.393702737,1,1
2,43,1,669.7674419,527.6955603,-142.0718816,2,-1,0.645806896,0.4945137,1,1
2,44,1,304.4397463,365.3276956,60.88794926,3,-1,0.835257385,0.284227794,1,1
2,45,1,466.807611,365.3276956,-101.4799154,2,-1,0.6328456,0.394155801,1,1
2,46,1,304.4397463,223.255814,-81.18393235,1,1,0.730027098,0.781048871,1,1
2,47,1,669.7674419,649.4714588,-20.29598309,2,-1,0.703731154,0.624963909,1,1
2,48,1,669.7674419,487.1035941,-182.6638478,2,1,2.927250925,1.825983031,1,1
2,49,1,466.807611,507.3995772,40.59196617,2,-1,1.04477184,0.970901363,1,1
2,50,1,669.7674419,527.6955603,-142.0718816,3,1,0.717554364,0.926090422,1,1
2,51,1,466.807611,426.2156448,-40.59196617,3,-1,0.764528476,0.560098016,1,1
2,52,1,304.4397463,263.8477801,-40.59196617,3,1,0.65236327,0.586602573,1,1
2,53,1,669.7674419,669.7674419,-9.09E-13,2,-1,3.136047094,0.918331117,1,1
2,54,1,304.4397463,243.551797,-60.88794926,3,-1,0.828548417,0.321111391,1,1
2,55,1,466.807611,263.8477801,-202.9598309,2,-1,1.327483448,0.914069633,1,1
2,56,1,466.807611,507.3995772,40.59196617,1,-1,0.223279964,0.780407131,1,1
2,57,1,669.7674419,649.4714588,-20.29598309,2,-1,0.173193306,1.092413141,1,1
2,58,1,466.807611,466.807611,-6.25E-13,2,-1,0.70577564,0.671476589,1,1
2,59,1,304.4397463,243.551797,-60.88794926,3,-1,0.648003264,1.303039791,1,1
2,60,1,669.7674419,588.5835095,-81.18393235,2,1,1.112977133,0.836872307,1,1
2,61,1,669.7674419,547.9915433,-121.7758985,3,1,0.601435927,2.21807586,1,1
2,62,1,304.4397463,345.0317125,40.59196617,3,1,0.891870253,1.134612157,1,1
2,63,1,669.7674419,730.6553911,60.88794926,1,1,0.704422515,0.56376384,1,1
2,64,1,304.4397463,284.1437632,-20.29598309,2,1,0.639316717,0.708409801,1,1
2,65,1,466.807611,608.8794926,142.0718816,2,1,2.9224658,0.993323985,1,1
2,66,1,466.807611,446.5116279,-20.29598309,3,-1,0.357657385,0.875733144,1,1
2,67,1,304.4397463,202.9598309,-101.4799154,3,-1,0.76968215,0.32210328,1,1
2,68,1,669.7674419,710.359408,40.59196617,1,-1,0.345014217,0.64254738,1,1
2,69,1,466.807611,588.5835095,121.7758985,2,1,1.523439046,0.503223364,1,1
2,70,1,304.4397463,345.0317125,40.59196617,1,-1,0.602051447,0.598044203,1,1
2,71,1,304.4397463,324.7357294,20.29598309,2,-1,0.902411418,0.630267792,1,1
2,72,1,466.807611,466.807611,-6.25E-13,2,-1,1.532712859,0.868335506,1,1
2,73,1,304.4397463,324.7357294,20.29598309,3,1,0.882327883,1.404811538,1,1
2,74,1,669.7674419,649.4714588,-20.29598309,2,-1,0.503700632,0.476879787,1,1
2,75,1,304.4397463,385.6236786,81.18393235,2,1,1.148053609,0.462683866,1,1
2,76,1,669.7674419,629.1754757,-40.59196617,2,-1,0.627830832,0.946890183,1,1
2,77,1,466.807611,446.5116279,-20.29598309,1,-1,1.562495788,1.35052252,1,1
2,78,1,304.4397463,345.0317125,40.59196617,3,-1,1.496508385,0.469294403,1,1
2,79,1,304.4397463,324.7357294,20.29598309,2,-1,0.877491925,0.325062033,1,1
2,80,1,669.7674419,750.9513742,81.18393235,2,-1,0.826391776,0.389401463,1,1
2,81,1,669.7674419,608.8794926,-60.88794926,3,-1,1.373585317,0.657457325,1,1
2,82,1,304.4397463,284.1437632,-20.29598309,2,-1,1.075781315,0.216780553,1,1
2,83,1,304.4397463,324.7357294,20.29598309,3,-1,0.793775675,0.628188125,1,1
2,84,1,304.4397463,304.4397463,-3.98E-13,3,-1,0.726927945,0.432167777,1,1
2,85,1,466.807611,588.5835095,121.7758985,2,1,0.347082271,0.717178713,1,1
2,86,1,669.7674419,629.1754757,-40.59196617,2,1,0.942310165,0.306503087,1,1
2,87,1,466.807611,487.1035941,20.29598309,1,1,0.457560681,0.933713244,1,1
2,88,1,304.4397463,304.4397463,-3.98E-13,3,-1,0.725957962,0.281540608,1,1
2,89,1,669.7674419,629.1754757,-40.59196617,3,1,0.938373744,0.348992869,1,1
2,90,1,304.4397463,243.551797,-60.88794926,2,-1,0.776632471,0.458913867,1,1
2,91,1,669.7674419,20.29598309,-649.4714588,1,-1,3.671657031,0.783390095,0,1
2,92,1,466.807611,487.1035941,20.29598309,2,-1,1.172700359,0.80418442,1,1
2,93,1,304.4397463,345.0317125,40.59196617,2,1,1.173908663,0.472587071,1,1
2,94,1,669.7674419,690.0634249,20.29598309,2,-1,4.93881673,0.760294781,1,1
2,95,1,466.807611,385.6236786,-81.18393235,2,-1,0.651772648,0.585803965,1,1
2,96,1,669.7674419,588.5835095,-81.18393235,3,-1,0.278162136,0.400673518,1,1
2,97,1,669.7674419,690.0634249,20.29598309,3,-1,1.043286763,0.71667566,1,1
2,98,1,466.807611,426.2156448,-40.59196617,3,-1,1.933193239,0.428541896,1,1
2,99,1,304.4397463,304.4397463,-3.98E-13,3,-1,0.783202629,0.238771294,1,1
2,100,1,669.7674419,669.7674419,-9.09E-13,2,-1,0.591162882,0.347327789,1,1
2,101,1,669.7674419,588.5835095,-81.18393235,2,-1,1.077240531,0.772579192,1,1
2,102,1,304.4397463,284.1437632,-20.29598309,3,-1,0.676302393,0.239850542,1,1
2,103,1,669.7674419,588.5835095,-81.18393235,3,-1,2.090922324,0.359791922,1,1
2,104,1,304.4397463,243.551797,-60.88794926,2,-1,0.55630173,0.590130968,1,1
2,105,1,304.4397463,324.7357294,20.29598309,3,-1,0.656332673,0.35621041,1,1
2,106,1,466.807611,487.1035941,20.29598309,2,-1,0.585505066,0.599064554,1,1
2,107,1,669.7674419,568.2875264,-101.4799154,3,-1,0.792860328,0.76546265,1,1
2,108,1,466.807611,365.3276956,-101.4799154,3,1,1.300341855,0.309140061,1,1
2,109,1,466.807611,365.3276956,-101.4799154,2,-1,0.631481203,0.625084582,1,1
2,110,1,304.4397463,263.8477801,-40.59196617,3,1,0.860744626,0.747429907,1,1
2,111,1,669.7674419,669.7674419,-9.09E-13,2,1,1.453156016,0.408801781,1,1
2,112,1,466.807611,20.29598309,-446.5116279,1,-1,2.074480991,0.629688478,0,1
2,113,1,466.807611,568.2875264,101.4799154,2,-1,0.981480249,0.977107812,1,1
2,114,1,466.807611,527.6955603,60.88794926,2,-1,0.729496477,0.784271143,1,1
2,115,1,304.4397463,263.8477801,-40.59196617,3,-1,0.608895061,0.263209464,1,1
2,116,1,466.807611,385.6236786,-81.18393235,3,-1,0.858057729,0.266374145,1,1
2,117,1,304.4397463,263.8477801,-40.59196617,3,1,0.543632694,0.516007816,1,1
2,118,1,304.4397463,243.551797,-60.88794926,3,1,0.342297443,0.582229343,1,1
2,119,1,304.4397463,304.4397463,-3.98E-13,3,1,0.230362481,0.37149955,1,1
2,120,1,669.7674419,608.8794926,-60.88794926,2,1,0.980972241,0.203506857,1,1
2,121,2,669.7674419,730.6553911,60.88794926,2,1,0.844820136,0.500185618,1,1
2,122,2,466.807611,527.6955603,60.88794926,1,1,1.323469369,0.739309723,1,1
2,123,2,466.807611,426.2156448,-40.59196617,2,1,0.730472318,0.345119589,1,1
2,124,2,466.807611,446.5116279,-20.29598309,3,1,0.884959054,0.85241307,1,1
2,125,2,669.7674419,811.8393235,142.0718816,3,1,1.132352866,0.658170474,1,1
2,126,2,304.4397463,365.3276956,60.88794926,3,1,1.38414935,0.357464634,1,1
2,127,2,466.807611,426.2156448,-40.59196617,2,1,0.894258253,0.198835185,1,1
2,128,2,669.7674419,629.1754757,-40.59196617,3,-1,0.566331797,0.932664912,1,1
2,129,2,466.807611,446.5116279,-20.29598309,2,-1,0.313315749,0.286763467,1,1
2,130,2,669.7674419,730.6553911,60.88794926,3,-1,0.573631445,0.250608447,1,1
2,131,2,466.807611,507.3995772,40.59196617,3,-1,0.242767178,0.330700027,1,1
2,132,2,466.807611,568.2875264,101.4799154,3,1,0.428046882,0.472383791,1,1
2,133,2,669.7674419,608.8794926,-60.88794926,3,-1,0.235431405,0.442173341,1,1
2,134,2,304.4397463,263.8477801,-40.59196617,3,1,0.750439947,0.319149181,1,1
2,135,2,304.4397463,324.7357294,20.29598309,3,1,0.817370497,1.249695355,1,1
2,136,2,466.807611,385.6236786,-81.18393235,2,-1,0.67871464,0.493274958,1,1
2,137,2,669.7674419,608.8794926,-60.88794926,3,-1,0.152525123,0.859589493,1,1
2,138,2,466.807611,629.1754757,162.3678647,2,-1,0.793881346,0.906459552,1,1
2,139,2,669.7674419,649.4714588,-20.29598309,3,1,0.469428734,0.663990965,1,1
2,140,2,466.807611,507.3995772,40.59196617,3,1,0.411293793,0.684621149,1,1
2,141,2,466.807611,608.8794926,142.0718816,2,-1,0.363334651,0.47669003,1,1
2,142,2,304.4397463,649.4714588,345.0317125,2,1,0.853510884,0.439098667,1,0
2,143,2,669.7674419,710.359408,40.59196617,2,1,0.805310763,0.398554916,1,1
2,144,2,669.7674419,690.0634249,20.29598309,3,-1,0.255506905,1.234558066,1,1
2,145,2,669.7674419,20.29598309,-649.4714588,1,-1,1.974019841,0.282991472,0,1
2,146,2,304.4397463,263.8477801,-40.59196617,3,1,0.696981258,0.250126982,1,1
2,147,2,466.807611,669.7674419,202.9598309,3,1,0.317398107,0.295699716,1,1
2,148,2,304.4397463,263.8477801,-40.59196617,1,-1,0.908485777,0.287464997,1,1
2,149,2,669.7674419,527.6955603,-142.0718816,2,-1,0.313325829,0.359274797,1,1
2,150,2,669.7674419,243.551797,-426.2156448,1,-1,0.159955024,0.531956606,1,0
2,151,2,304.4397463,243.551797,-60.88794926,2,-1,0.251201467,0.279981953,1,1
2,152,2,304.4397463,304.4397463,-3.98E-13,3,-1,0.810918828,0.351614278,1,1
2,153,2,669.7674419,669.7674419,-9.09E-13,3,1,0.459129129,0.343120999,1,1
2,154,2,466.807611,446.5116279,-20.29598309,2,-1,5.075773239,0.65016667,1,1
2,155,2,304.4397463,365.3276956,60.88794926,3,-1,0.642754086,0.543128434,1,1
2,156,2,304.4397463,345.0317125,40.59196617,3,-1,0.811737428,0.969215994,1,1
2,157,2,669.7674419,710.359408,40.59196617,3,-1,0.638295695,0.658239044,1,1
2,158,2,466.807611,487.1035941,20.29598309,2,1,1.223714929,1.348673011,1,1
2,159,2,466.807611,466.807611,-6.25E-13,1,1,1.61124542,0.979188621,1,1
2,160,2,466.807611,20.29598309,-446.5116279,1,-1,1.608922779,0.414390039,0,1
2,161,2,466.807611,142.0718816,-324.7357294,1,-1,0.368052215,0.575699729,1,0
2,162,2,304.4397463,202.9598309,-101.4799154,2,-1,0.188330106,0.91704874,1,1
2,163,2,466.807611,487.1035941,20.29598309,3,-1,0.472430669,0.257468957,1,1
2,164,2,466.807611,507.3995772,40.59196617,3,-1,0.463590826,0.39132534,1,1
2,165,2,669.7674419,527.6955603,-142.0718816,2,-1,1.330993923,0.937067367,1,1
2,166,2,466.807611,365.3276956,-101.4799154,3,-1,1.972262602,2.485783412,1,1
2,167,2,304.4397463,263.8477801,-40.59196617,2,-1,0.731438771,0.623335598,1,1
2,168,2,304.4397463,669.7674419,365.3276956,1,-1,1.057821985,0.324805691,1,0
2,169,2,466.807611,527.6955603,60.88794926,2,1,2.131616449,0.435414724,1,1
2,170,2,466.807611,669.7674419,202.9598309,2,1,0.94682471,0.751886134,1,1
2,171,2,304.4397463,304.4397463,-3.98E-13,3,1,0.201019391,0.361633097,1,1
2,172,2,466.807611,547.9915433,81.18393235,3,1,0.233644361,0.299058074,1,1
2,173,2,304.4397463,345.0317125,40.59196617,3,1,1.207476534,1.674070483,1,1
2,174,2,669.7674419,629.1754757,-40.59196617,3,1,0.668105764,0.685233393,1,1
2,175,2,466.807611,487.1035941,20.29598309,3,1,0.755340595,0.870973629,1,1
2,176,2,466.807611,304.4397463,-162.3678647,1,-1,1.320255425,1.056447458,1,1
2,177,2,304.4397463,263.8477801,-40.59196617,1,-1,0.386798585,1.060705315,1,1
2,178,2,669.7674419,588.5835095,-81.18393235,1,1,1.366982801,0.464004781,1,1
2,179,2,304.4397463,345.0317125,40.59196617,2,-1,0.962345804,0.455751844,1,1
2,180,2,466.807611,527.6955603,60.88794926,2,1,1.270903187,0.940100678,1,1
2,181,2,466.807611,547.9915433,81.18393235,2,-1,0.958361103,0.847144671,1,1
2,182,2,304.4397463,405.9196617,101.4799154,3,1,3.720942639,1.023985997,1,1
2,183,2,466.807611,223.255814,-243.551797,1,-1,1.49892299,0.748165805,1,0
2,184,2,466.807611,385.6236786,-81.18393235,2,-1,1.856272292,1.000507097,1,1
2,185,2,304.4397463,304.4397463,-3.98E-13,1,-1,0.805623585,0.619010872,1,1
2,186,2,669.7674419,669.7674419,-9.09E-13,3,1,0.791187042,0.940895882,1,1
2,187,2,669.7674419,507.3995772,-162.3678647,2,1,0.871006221,0.901205856,1,1
2,188,2,669.7674419,568.2875264,-101.4799154,3,1,0.809679401,0.716098545,1,1
2,189,2,669.7674419,629.1754757,-40.59196617,2,-1,0.737485842,0.665797177,1,1
2,190,2,466.807611,588.5835095,121.7758985,3,-1,0.657373503,0.696267684,1,1
2,191,2,466.807611,487.1035941,20.29598309,3,1,0.85361089,1.075399884,1,1
2,192,2,466.807611,385.6236786,-81.18393235,2,-1,0.64682617,0.83216881,1,1
2,193,2,466.807611,405.9196617,-60.88794926,3,-1,0.174115867,0.412744828,1,1
2,194,2,669.7674419,649.4714588,-20.29598309,3,1,0.653426025,0.462919206,1,1
2,195,2,304.4397463,20.29598309,-284.1437632,1,-1,0.98211213,0.430223129,0,1
2,196,2,669.7674419,182.6638478,-487.1035941,2,-1,0.248508471,0.325587382,1,0
2,197,2,669.7674419,527.6955603,-142.0718816,3,-1,0.532758485,0.360416915,1,1
2,198,2,466.807611,608.8794926,142.0718816,3,1,0.365292022,1.381889826,1,1
2,199,2,304.4397463,223.255814,-81.18393235,2,-1,0.205889922,0.263067682,1,1
2,200,2,466.807611,324.7357294,-142.0718816,2,1,0.227548429,0.226491141,1,1
2,201,2,466.807611,223.255814,-243.551797,3,1,0.144164005,0.281427359,1,0
2,202,2,466.807611,345.0317125,-121.7758985,3,1,0.378141433,0.367342002,1,1
2,203,2,466.807611,507.3995772,40.59196617,1,-1,0.476252175,0.795172633,1,1
2,204,2,669.7674419,588.5835095,-81.18393235,3,-1,0.311598783,0.265711767,1,1
2,205,2,466.807611,466.807611,-6.25E-13,3,-1,0.539682118,0.267111763,1,1
2,206,2,669.7674419,487.1035941,-182.6638478,2,1,0.59198696,0.653814864,1,1
2,207,2,304.4397463,487.1035941,182.6638478,2,-1,0.268607099,0.285254608,1,1
2,208,2,669.7674419,629.1754757,-40.59196617,3,1,1.350708519,1.531349853,1,1
2,209,2,304.4397463,20.29598309,-284.1437632,1,-1,0.914964529,0.365957173,0,1
2,210,2,466.807611,20.29598309,-446.5116279,1,-1,0.720879154,0.46303373,0,1
2,211,2,304.4397463,304.4397463,-3.98E-13,3,-1,0.761600578,0.23167229,1,1
2,212,2,669.7674419,994.5031712,324.7357294,3,1,0.462233347,0.44100994,1,0
2,213,2,669.7674419,284.1437632,-385.6236786,2,-1,0.369704465,0.288794305,1,0
2,214,2,304.4397463,223.255814,-81.18393235,3,-1,0.231275086,0.198467585,1,1
2,215,2,304.4397463,365.3276956,60.88794926,3,-1,0.424136484,0.262994377,1,1
2,216,2,304.4397463,324.7357294,20.29598309,2,-1,0.283994168,0.478733318,1,1
2,217,2,669.7674419,893.0232558,223.255814,3,1,0.30353883,0.621190563,1,0
2,218,2,669.7674419,324.7357294,-345.0317125,1,-1,0.147870314,0.223352908,1,0
2,219,2,304.4397463,243.551797,-60.88794926,2,-1,0.158714587,0.175889978,1,1
2,220,2,466.807611,507.3995772,40.59196617,2,-1,0.181497242,0.411433972,1,1
2,221,2,304.4397463,304.4397463,-3.98E-13,3,-1,0.500344965,0.231661637,1,1
2,222,2,304.4397463,202.9598309,-101.4799154,3,-1,0.17080148,0.187678939,1,1
2,223,2,466.807611,405.9196617,-60.88794926,1,-1,0.157330948,0.270458217,1,1
2,224,2,466.807611,385.6236786,-81.18393235,1,-1,0.624324551,0.318149466,1,1
2,225,2,669.7674419,527.6955603,-142.0718816,2,-1,0.631417858,0.321287159,1,1
2,226,2,466.807611,446.5116279,-20.29598309,3,-1,0.548056709,0.939063498,1,1
2,227,2,669.7674419,608.8794926,-60.88794926,2,1,0.199751269,1.50243567,1,1
2,228,2,466.807611,649.4714588,182.6638478,3,-1,0.496998551,0.44019858,1,1
2,229,2,304.4397463,284.1437632,-20.29598309,3,-1,0.310988795,0.234827295,1,1
2,230,2,304.4397463,345.0317125,40.59196617,2,-1,0.760148843,0.37059826,1,1
2,231,2,669.7674419,649.4714588,-20.29598309,2,-1,0.640656337,0.513324746,1,1
2,232,2,669.7674419,791.5433404,121.7758985,3,-1,0.862710531,0.203679188,1,1
2,233,2,466.807611,568.2875264,101.4799154,3,-1,0.363220629,0.284969302,1,1
2,234,2,466.807611,426.2156448,-40.59196617,3,-1,0.536137032,0.350452864,1,1
2,235,2,669.7674419,568.2875264,-101.4799154,2,-1,0.326959591,0.246263574,1,1
2,236,2,304.4397463,832.1353066,527.6955603,2,-1,0.346631666,0.25563933,1,0
2,237,2,304.4397463,345.0317125,40.59196617,2,-1,0.210980709,0.215992119,1,1
2,238,2,466.807611,446.5116279,-20.29598309,3,-1,0.203894821,0.340580274,1,1
2,239,2,669.7674419,1035.095137,365.3276956,3,1,0.295331338,0.550906156,1,0
2,240,2,304.4397463,324.7357294,20.29598309,3,-1,0.21452309,0.243734751,1,1
3,1,1,669.7674419,426.2156448,-243.551797,2,-1,3.423227782,2.556024664,1,1
3,2,1,669.7674419,426.2156448,-243.551797,2,-1,2.095312003,3.530006971,1,1
3,3,1,669.7674419,385.6236786,-284.1437632,2,-1,2.253542289,3.016449383,1,1
3,4,1,466.807611,20.29598309,-446.5116279,1,-1,4.887398345,1.830863913,0,1
3,5,1,304.4397463,284.1437632,-20.29598309,2,1,2.900351139,1.050333202,1,1
3,6,1,304.4397463,243.551797,-60.88794926,2,-1,2.85249995,2.003337862,1,1
3,7,1,304.4397463,202.9598309,-101.4799154,2,1,1.493317583,2.499960022,1,1
3,8,1,304.4397463,243.551797,-60.88794926,2,-1,1.035757833,4.894817479,1,1
3,9,1,466.807611,426.2156448,-40.59196617,2,1,1.582241859,0.932615079,1,1
3,10,1,466.807611,466.807611,-6.25E-13,2,-1,1.354462882,2.590656397,1,1
3,11,1,466.807611,446.5116279,-20.29598309,2,1,1.239933702,0.918760871,1,1
3,12,1,304.4397463,243.551797,-60.88794926,2,1,1.211976618,4.100897589,1,1
3,13,1,466.807611,304.4397463,-162.3678647,1,-1,2.048120134,2.805773678,1,1
3,14,1,466.807611,365.3276956,-101.4799154,1,1,1.797681647,1.321101999,1,1
3,15,1,304.4397463,263.8477801,-40.59196617,3,1,1.419183675,6.639429916,1,1
3,16,1,304.4397463,202.9598309,-101.4799154,2,1,1.908232885,3.051349889,1,1
3,17,1,304.4397463,243.551797,-60.88794926,2,1,0.682672524,1.340751226,1,1
3,18,1,669.7674419,608.8794926,-60.88794926,1,1,1.369006749,0.781758696,1,1
3,19,1,466.807611,405.9196617,-60.88794926,2,-1,1.161786687,0.70921529,1,1
3,20,1,669.7674419,446.5116279,-223.255814,1,1,1.379041351,1.146495674,1,1
3,21,1,304.4397463,182.6638478,-121.7758985,3,1,1.002497577,2.11942699,1,1
3,22,1,669.7674419,426.2156448,-243.551797,2,-1,1.226344614,0.708786171,1,1
3,23,1,304.4397463,263.8477801,-40.59196617,1,-1,1.43313646,1.319313897,1,1
3,24,1,466.807611,304.4397463,-162.3678647,2,-1,1.814102352,2.099193111,1,1
3,25,1,304.4397463,243.551797,-60.88794926,2,1,1.399792337,0.702650933,1,1
3,26,1,304.4397463,263.8477801,-40.59196617,2,1,0.657725375,0.68676031,1,1
3,27,1,669.7674419,466.807611,-202.9598309,2,1,1.509307609,0.278767851,1,1
3,28,1,669.7674419,426.2156448,-243.551797,1,-1,4.420572344,1.612987838,1,1
3,29,1,304.4397463,243.551797,-60.88794926,3,1,2.172868539,3.075401541,1,1
3,30,1,304.4397463,202.9598309,-101.4799154,2,-1,1.04486184,1.080155606,1,1
3,31,1,466.807611,324.7357294,-142.0718816,1,-1,0.931112523,2.139296335,1,1
3,32,1,304.4397463,223.255814,-81.18393235,2,-1,0.856924749,1.32553458,1,1
3,33,1,466.807611,345.0317125,-121.7758985,2,-1,1.294075621,0.477550755,1,1
3,34,1,669.7674419,243.551797,-426.2156448,1,-1,1.060684668,2.359123595,1,1
3,35,1,669.7674419,527.6955603,-142.0718816,2,-1,1.173080595,0.928382213,1,1
3,36,1,304.4397463,243.551797,-60.88794926,2,-1,0.677582016,0.644466597,1,1
3,37,1,466.807611,304.4397463,-162.3678647,2,1,1.43549691,0.485080545,1,1
3,38,1,466.807611,324.7357294,-142.0718816,2,-1,0.957772941,0.729212804,1,1
3,39,1,669.7674419,405.9196617,-263.8477801,2,1,1.021393836,0.770065735,1,1
3,40,1,669.7674419,20.29598309,-649.4714588,1,-1,2.93184644,1.438522438,0,1
3,41,1,466.807611,324.7357294,-142.0718816,1,-1,0.691763341,1.391580493,1,1
3,42,1,466.807611,345.0317125,-121.7758985,2,1,1.064362782,0.740562108,1,1
3,43,1,669.7674419,385.6236786,-284.1437632,2,1,0.933320915,0.391353395,1,1
3,44,1,304.4397463,263.8477801,-40.59196617,1,-1,2.850016689,0.80937229,1,1
3,45,1,669.7674419,426.2156448,-243.551797,2,-1,0.983031522,0.575096992,1,1
3,46,1,466.807611,385.6236786,-81.18393235,1,-1,3.463936905,1.914211946,1,1
3,47,1,466.807611,324.7357294,-142.0718816,2,1,0.987802276,0.748778,1,1
3,48,1,669.7674419,405.9196617,-263.8477801,2,1,1.180375071,0.71260164,1,1
3,49,1,304.4397463,345.0317125,40.59196617,1,-1,1.502514545,0.691250194,1,1
3,50,1,669.7674419,446.5116279,-223.255814,1,-1,0.785871753,0.83984336,1,1
3,51,1,466.807611,365.3276956,-101.4799154,2,-1,2.752209009,0.621899704,1,1
3,52,1,304.4397463,243.551797,-60.88794926,3,1,1.231303125,2.411244491,1,1
3,53,1,304.4397463,243.551797,-60.88794926,2,1,1.331725952,0.845813061,1,1
3,54,1,669.7674419,466.807611,-202.9598309,2,1,1.169833655,0.44426981,1,1
3,55,1,304.4397463,202.9598309,-101.4799154,2,1,0.923237206,0.270859827,1,1
3,56,1,669.7674419,385.6236786,-284.1437632,1,1,1.427223316,1.534526704,1,1
3,57,1,466.807611,345.0317125,-121.7758985,2,-1,1.019477519,0.42906552,1,1
3,58,1,304.4397463,263.8477801,-40.59196617,2,-1,0.921963431,0.447228835,1,1
3,59,1,669.7674419,426.2156448,-243.551797,1,1,1.780846031,0.916925585,1,1
3,60,1,669.7674419,568.2875264,-101.4799154,1,1,1.466938291,0.579176497,1,1
3,61,1,669.7674419,588.5835095,-81.18393235,2,1,1.088927946,0.479540446,1,1
3,62,1,304.4397463,223.255814,-81.18393235,2,-1,1.522890533,0.83378446,1,1
3,63,1,466.807611,365.3276956,-101.4799154,3,-1,1.955436937,1.114871316,1,1
3,64,1,669.7674419,385.6236786,-284.1437632,1,1,1.695811665,0.745587471,1,1
3,65,1,669.7674419,426.2156448,-243.551797,2,1,0.984902784,0.237798048,1,1
3,66,1,466.807611,385.6236786,-81.18393235,2,1,1.165754739,2.149561399,1,1
3,67,1,304.4397463,20.29598309,-284.1437632,1,-1,3.700538169,1.05518993,0,1
3,68,1,304.4397463,223.255814,-81.18393235,3,1,1.073286375,3.244255891,1,1
3,69,1,669.7674419,446.5116279,-223.255814,1,-1,1.926116249,0.504165047,1,1
3,70,1,304.4397463,20.29598309,-284.1437632,1,-1,2.35481758,1.187034168,0,1
3,71,1,466.807611,426.2156448,-40.59196617,1,1,1.065433734,0.72614283,1,1
3,72,1,466.807611,365.3276956,-101.4799154,2,-1,0.739926896,2.07747269,1,1
3,73,1,669.7674419,649.4714588,-20.29598309,2,-1,2.071904622,1.314241519,1,1
3,74,1,669.7674419,487.1035941,-182.6638478,1,-1,1.10967686,1.049488589,1,1
3,75,1,304.4397463,284.1437632,-20.29598309,2,-1,1.049238328,0.719334187,1,1
3,76,1,466.807611,345.0317125,-121.7758985,1,1,1.260532832,0.315063677,1,1
3,77,1,466.807611,324.7357294,-142.0718816,2,1,0.972141825,1.47309213,1,1
3,78,1,669.7674419,466.807611,-202.9598309,1,-1,1.286816368,0.680684204,1,1
3,79,1,466.807611,365.3276956,-101.4799154,2,-1,1.093080751,1.397647938,1,1
3,80,1,304.4397463,243.551797,-60.88794926,3,-1,1.011709981,1.057431125,1,1
3,81,1,466.807611,284.1437632,-182.6638478,2,-1,2.047713147,0.974432987,1,1
3,82,1,304.4397463,223.255814,-81.18393235,2,-1,1.192488691,1.46272562,1,1
3,83,1,466.807611,284.1437632,-182.6638478,2,1,1.387311418,1.016638526,1,1
3,84,1,304.4397463,365.3276956,60.88794926,1,1,2.278734228,1.779106472,1,1
3,85,1,304.4397463,284.1437632,-20.29598309,1,-1,0.751804186,1.097744413,1,1
3,86,1,304.4397463,263.8477801,-40.59196617,2,1,1.800169687,0.996475035,1,1
3,87,1,304.4397463,223.255814,-81.18393235,2,1,0.949603689,0.631596846,1,1
3,88,1,304.4397463,243.551797,-60.88794926,2,1,1.03539095,1.15482384,1,1
3,89,1,304.4397463,182.6638478,-121.7758985,2,-1,0.698804356,0.535662367,1,1
3,90,1,466.807611,243.551797,-223.255814,2,-1,0.906150057,0.430009841,1,1
3,91,1,669.7674419,405.9196617,-263.8477801,1,-1,0.855726954,0.844553041,1,1
3,92,1,304.4397463,304.4397463,-3.98E-13,1,1,1.228146331,0.715181807,1,1
3,93,1,304.4397463,223.255814,-81.18393235,2,-1,0.83498454,1.048458548,1,1
3,94,1,669.7674419,446.5116279,-223.255814,1,-1,0.850902269,1.416262631,1,1
3,95,1,304.4397463,365.3276956,60.88794926,1,-1,0.989033194,1.025422431,1,1
3,96,1,466.807611,405.9196617,-60.88794926,1,-1,2.47883535,0.767811051,1,1
3,97,1,669.7674419,629.1754757,-40.59196617,2,-1,1.37536637,0.499143453,1,1
3,98,1,669.7674419,568.2875264,-101.4799154,1,1,1.607647111,2.498386074,1,1
3,99,1,669.7674419,284.1437632,-385.6236786,1,-1,1.101600824,1.07335464,1,1
3,100,1,466.807611,365.3276956,-101.4799154,2,-1,2.293780905,1.353094315,1,1
3,101,1,669.7674419,507.3995772,-162.3678647,1,1,1.248132943,0.541820356,1,1
3,102,1,669.7674419,466.807611,-202.9598309,1,1,1.451810003,1.752897332,1,1
3,103,1,466.807611,365.3276956,-101.4799154,2,-1,1.235117029,1.283243974,1,1
3,104,1,304.4397463,243.551797,-60.88794926,3,-1,0.948170614,1.711869061,1,1
3,105,1,669.7674419,405.9196617,-263.8477801,1,-1,0.907757812,0.883273334,1,1
3,106,1,669.7674419,913.3192389,243.551797,2,1,0.952095855,0.650989721,1,0
3,107,1,669.7674419,507.3995772,-162.3678647,1,1,1.759763985,0.304003399,1,1
3,108,1,669.7674419,547.9915433,-121.7758985,1,1,1.162119945,0.409105975,1,1
3,109,1,304.4397463,345.0317125,40.59196617,2,1,1.641410961,0.821197805,1,1
3,110,1,466.807611,345.0317125,-121.7758985,2,-1,1.258514206,0.348285087,1,1
3,111,1,466.807611,405.9196617,-60.88794926,2,1,1.683211341,0.361857347,1,1
3,112,1,466.807611,304.4397463,-162.3678647,2,1,1.134552987,0.505217805,1,1
3,113,1,304.4397463,243.551797,-60.88794926,3,1,0.943447426,0.65560754,1,1
3,114,1,466.807611,405.9196617,-60.88794926,2,1,0.941904252,0.2727087,1,1
3,115,1,669.7674419,588.5835095,-81.18393235,2,1,0.83978862,0.227253995,1,1
3,116,1,466.807611,446.5116279,-20.29598309,2,1,0.80293948,0.214365851,1,1
3,117,1,466.807611,324.7357294,-142.0718816,2,-1,0.781282785,0.294990518,1,1
3,118,1,304.4397463,243.551797,-60.88794926,2,1,0.799849716,1.029553785,1,1
3,119,1,466.807611,284.1437632,-182.6638478,2,-1,2.319073305,0.763995226,1,1
3,120,1,466.807611,405.9196617,-60.88794926,2,1,0.871374557,0.200091074,1,1
3,121,2,466.807611,365.3276956,-101.4799154,2,-1,0.776447376,0.841835068,1,1
3,122,2,466.807611,304.4397463,-162.3678647,2,1,0.815921572,0.381540747,1,1
3,123,2,304.4397463,243.551797,-60.88794926,2,1,0.78229446,0.562674038,1,1
3,124,2,466.807611,324.7357294,-142.0718816,2,1,1.29857639,0.268908744,1,1
3,125,2,669.7674419,507.3995772,-162.3678647,2,-1,1.030483512,0.325755561,1,1
3,126,2,466.807611,426.2156448,-40.59196617,1,1,1.949578374,0.635625493,1,1
3,127,2,669.7674419,466.807611,-202.9598309,1,1,1.070467526,0.513111815,1,1
3,128,2,669.7674419,507.3995772,-162.3678647,2,1,1.255402944,0.278148453,1,1
3,129,2,304.4397463,223.255814,-81.18393235,2,-1,1.419588392,0.428392262,1,1
3,130,2,304.4397463,223.255814,-81.18393235,2,-1,0.966522667,0.920952117,1,1
3,131,2,466.807611,304.4397463,-162.3678647,1,1,0.638452101,1.269493836,1,1
3,132,2,669.7674419,426.2156448,-243.551797,1,1,0.620381909,0.780655923,1,1
3,133,2,466.807611,284.1437632,-182.6638478,2,-1,1.354998884,0.950182011,1,1
3,134,2,304.4397463,263.8477801,-40.59196617,2,1,0.994770947,1.113419761,1,1
3,135,2,669.7674419,426.2156448,-243.551797,2,-1,1.005917442,0.453259398,1,1
3,136,2,669.7674419,690.0634249,20.29598309,2,1,0.969778173,0.315335565,1,1
3,137,2,466.807611,446.5116279,-20.29598309,2,-1,1.090101699,0.607788941,1,1
3,138,2,304.4397463,324.7357294,20.29598309,2,-1,1.15473559,0.992289753,1,1
3,139,2,466.807611,263.8477801,-202.9598309,2,-1,1.269044232,0.616880684,1,1
3,140,2,304.4397463,223.255814,-81.18393235,2,-1,1.186386109,1.133139426,1,1
3,141,2,466.807611,243.551797,-223.255814,1,-1,1.237818023,1.186011025,1,1
3,142,2,304.4397463,20.29598309,-284.1437632,1,-1,2.369061148,3.079512052,0,1
3,143,2,466.807611,304.4397463,-162.3678647,2,1,0.60788508,1.501809179,1,1
3,144,2,304.4397463,223.255814,-81.18393235,2,-1,1.018198208,0.782205237,1,1
3,145,2,304.4397463,202.9598309,-101.4799154,1,-1,2.496526652,0.392907108,1,1
3,146,2,669.7674419,547.9915433,-121.7758985,2,-1,0.82474968,2.100888648,1,1
3,147,2,304.4397463,243.551797,-60.88794926,2,1,1.30234753,0.336180969,1,1
3,148,2,669.7674419,690.0634249,20.29598309,2,1,1.074081119,0.423403426,1,1
3,149,2,669.7674419,202.9598309,-466.807611,1,1,0.61028649,0.446014622,1,0
3,150,2,304.4397463,202.9598309,-101.4799154,2,1,0.885075554,0.393135586,1,1
3,151,2,304.4397463,223.255814,-81.18393235,2,1,1.007150382,0.685059105,1,1
3,152,2,466.807611,263.8477801,-202.9598309,2,-1,0.76905933,1.143294144,1,1
3,153,2,669.7674419,527.6955603,-142.0718816,2,1,1.269429207,0.537993083,1,1
3,154,2,669.7674419,426.2156448,-243.551797,2,-1,1.102841119,0.618072105,1,1
3,155,2,466.807611,182.6638478,-284.1437632,1,-1,1.232856604,0.403845296,1,0
3,156,2,466.807611,324.7357294,-142.0718816,2,-1,1.102472131,0.566985464,1,1
3,157,2,304.4397463,243.551797,-60.88794926,2,1,0.634700009,2.179658488,1,1
3,158,2,304.4397463,243.551797,-60.88794926,2,1,0.710155095,0.358761993,1,1
3,159,2,669.7674419,669.7674419,-9.09E-13,2,1,0.785736882,0.371661009,1,1
3,160,2,466.807611,365.3276956,-101.4799154,2,1,1.007835819,0.388473748,1,1
3,161,2,669.7674419,507.3995772,-162.3678647,1,-1,0.551272489,0.695278161,1,1
3,162,2,466.807611,405.9196617,-60.88794926,2,-1,0.950037134,0.672198847,1,1
3,163,2,466.807611,365.3276956,-101.4799154,2,-1,1.139912912,0.345368507,1,1
3,164,2,304.4397463,324.7357294,20.29598309,2,-1,1.30840053,0.625544174,1,1
3,165,2,466.807611,20.29598309,-446.5116279,1,-1,3.977116521,1.316560734,0,1
3,166,2,466.807611,446.5116279,-20.29598309,2,-1,1.04725606,0.862260547,1,1
3,167,2,669.7674419,527.6955603,-142.0718816,2,1,1.2076225,0.86755548,1,1
3,168,2,466.807611,365.3276956,-101.4799154,2,1,0.967826823,0.507108952,1,1
3,169,2,466.807611,304.4397463,-162.3678647,2,-1,0.65597328,0.4167282,1,1
3,170,2,669.7674419,324.7357294,-345.0317125,2,-1,1.167400872,0.539362083,1,1
3,171,2,304.4397463,324.7357294,20.29598309,2,-1,1.173648352,1.16051292,1,1
3,172,2,304.4397463,263.8477801,-40.59196617,2,1,0.822530895,0.335378415,1,1
3,173,2,466.807611,324.7357294,-142.0718816,2,1,0.836553185,0.33345862,1,1
3,174,2,466.807611,284.1437632,-182.6638478,1,1,0.408010181,0.71009023,1,1
3,175,2,304.4397463,263.8477801,-40.59196617,1,-1,1.913318724,0.86511852,1,1
3,176,2,304.4397463,243.551797,-60.88794926,2,-1,1.232235398,0.714061701,1,1
3,177,2,669.7674419,284.1437632,-385.6236786,1,-1,1.59970186,0.481895653,1,1
3,178,2,304.4397463,304.4397463,-3.98E-13,1,-1,0.85638041,0.964558868,1,1
3,179,2,466.807611,568.2875264,101.4799154,2,-1,0.907114634,0.501699136,1,0
3,180,2,466.807611,243.551797,-223.255814,2,-1,0.751457686,1.903655502,1,1
3,181,2,304.4397463,345.0317125,40.59196617,1,-1,1.335532255,0.491158782,1,1
3,182,2,466.807611,162.3678647,-304.4397463,1,-1,0.826783536,0.433144755,1,0
3,183,2,304.4397463,263.8477801,-40.59196617,2,1,1.219587319,1.398630821,1,1
3,184,2,304.4397463,263.8477801,-40.59196617,2,1,0.96323215,0.428586101,1,1
3,185,2,466.807611,365.3276956,-101.4799154,2,-1,1.172840068,0.400218555,1,1
3,186,2,304.4397463,345.0317125,40.59196617,2,1,0.91042311,0.405545175,1,1
3,187,2,669.7674419,568.2875264,-101.4799154,2,1,0.864070892,0.411418449,1,1
3,188,2,466.807611,487.1035941,20.29598309,2,1,0.838744884,0.389718953,1,1
3,189,2,669.7674419,547.9915433,-121.7758985,2,-1,0.98241432,0.350370025,1,1
3,190,2,304.4397463,263.8477801,-40.59196617,2,1,1.095916056,0.392069472,1,1
3,191,2,466.807611,466.807611,-6.25E-13,2,1,1.698452922,1.519775253,1,1
3,192,2,466.807611,284.1437632,-182.6638478,2,1,0.444998039,0.738928007,1,1
3,193,2,669.7674419,629.1754757,-40.59196617,2,1,0.875507171,0.359542134,1,1
3,194,2,669.7674419,446.5116279,-223.255814,2,1,0.604122147,0.375133938,1,1
3,195,2,669.7674419,608.8794926,-60.88794926,1,1,0.63007597,0.534932759,1,1
3,196,2,669.7674419,710.359408,40.59196617,1,-1,1.378868412,1.12896078,1,1
3,197,2,466.807611,547.9915433,81.18393235,2,-1,0.828086255,0.290637952,1,0
3,198,2,669.7674419,568.2875264,-101.4799154,2,-1,1.90175453,0.43525627,1,1
3,199,2,669.7674419,669.7674419,-9.09E-13,1,-1,0.784164323,0.699154757,1,1
3,200,2,669.7674419,487.1035941,-182.6638478,2,1,0.799637655,0.346334837,1,1
3,201,2,466.807611,385.6236786,-81.18393235,2,1,0.924917919,0.329419139,1,1
3,202,2,669.7674419,385.6236786,-284.1437632,2,1,0.405143797,0.348251218,1,1
3,203,2,304.4397463,263.8477801,-40.59196617,2,-1,0.599885304,1.304101009,1,1
3,204,2,669.7674419,568.2875264,-101.4799154,2,1,0.78197436,0.998788074,1,1
3,205,2,466.807611,365.3276956,-101.4799154,2,1,0.739149637,0.784586473,1,1
3,206,2,466.807611,446.5116279,-20.29598309,2,1,0.700889545,0.457327621,1,1
3,207,2,669.7674419,547.9915433,-121.7758985,2,1,0.728873001,0.253012876,1,1
3,208,2,466.807611,385.6236786,-81.18393235,2,1,1.444065634,0.71341776,1,1
3,209,2,304.4397463,243.551797,-60.88794926,2,-1,0.447949456,0.31516212,1,1
3,210,2,669.7674419,487.1035941,-182.6638478,2,1,0.94856376,0.26693492,1,1
3,211,2,304.4397463,284.1437632,-20.29598309,3,1,1.177285112,0.332993256,1,1
3,212,2,669.7674419,649.4714588,-20.29598309,2,1,0.705351652,0.396905336,1,1
3,213,2,466.807611,446.5116279,-20.29598309,2,-1,0.689218384,0.30288269,1,1
3,214,2,466.807611,385.6236786,-81.18393235,2,-1,0.653890519,0.649591585,1,1
3,215,2,669.7674419,608.8794926,-60.88794926,2,1,0.932051557,0.303423908,1,1
3,216,2,669.7674419,385.6236786,-284.1437632,2,-1,0.919010618,0.326712296,1,1
3,217,2,304.4397463,446.5116279,142.0718816,2,1,0.939751283,0.428027545,1,0
3,218,2,466.807611,385.6236786,-81.18393235,2,-1,1.099641875,0.379014156,1,1
3,219,2,304.4397463,324.7357294,20.29598309,2,-1,0.767764177,0.368931731,1,1
3,220,2,669.7674419,629.1754757,-40.59196617,2,-1,0.393035876,0.47815067,1,1
3,221,2,304.4397463,243.551797,-60.88794926,2,-1,1.13943759,0.336354804,1,1
3,222,2,669.7674419,466.807611,-202.9598309,2,-1,0.639494401,0.468396355,1,1
3,223,2,304.4397463,284.1437632,-20.29598309,2,-1,0.625071012,0.283164617,1,1
3,224,2,466.807611,20.29598309,-446.5116279,1,-1,1.585257134,1.251424023,0,1
3,225,2,669.7674419,426.2156448,-243.551797,2,-1,0.885594675,0.284256937,1,1
3,226,2,669.7674419,527.6955603,-142.0718816,2,-1,0.819538888,0.47550863,1,1
3,227,2,669.7674419,669.7674419,-9.09E-13,2,1,0.446239476,0.374611192,1,1
3,228,2,304.4397463,20.29598309,-284.1437632,1,-1,1.53030894,0.505096781,0,1
3,229,2,669.7674419,284.1437632,-385.6236786,2,-1,0.409347696,0.289508104,1,1
3,230,2,466.807611,487.1035941,20.29598309,2,1,0.337784775,0.30881841,1,1
3,231,2,304.4397463,284.1437632,-20.29598309,2,1,0.540323677,0.251873592,1,1
3,232,2,304.4397463,223.255814,-81.18393235,2,-1,0.501747815,0.258424237,1,1
3,233,2,304.4397463,263.8477801,-40.59196617,2,-1,0.59838441,0.230171748,1,1
3,234,2,304.4397463,345.0317125,40.59196617,2,1,0.543578987,0.253446107,1,1
3,235,2,466.807611,405.9196617,-60.88794926,1,1,0.595292435,0.334047083,1,1
3,236,2,669.7674419,487.1035941,-182.6638478,2,1,0.396541586,0.3472147,1,1
3,237,2,669.7674419,649.4714588,-20.29598309,2,1,0.266943986,0.251192134,1,1
3,238,2,669.7674419,487.1035941,-182.6638478,2,-1,0.564203525,0.837151238,1,1
3,239,2,304.4397463,223.255814,-81.18393235,2,-1,0.641625214,0.237858513,1,1
3,240,2,466.807611,263.8477801,-202.9598309,1,1,0.752852242,0.800568873,1,1
4,1,1,304.4397463,121.7758985,-182.6638478,3,1,2.901955181,4.682627125,1,1
4,2,1,466.807611,365.3276956,-101.4799154,2,1,1.3646763,1.423323168,1,1
4,3,1,304.4397463,202.9598309,-101.4799154,2,-1,1.14673848,1.146421643,1,1
4,4,1,304.4397463,223.255814,-81.18393235,2,-1,1.890955216,1.359177484,1,1
4,5,1,669.7674419,487.1035941,-182.6638478,2,1,1.594338346,1.167537116,1,1
4,6,1,304.4397463,243.551797,-60.88794926,1,-1,0.56521207,0.988455305,1,1
4,7,1,466.807611,223.255814,-243.551797,1,-1,0.624511822,1.095734397,1,1
4,8,1,669.7674419,426.2156448,-243.551797,1,1,1.260193004,1.276438978,1,1
4,9,1,466.807611,81.18393235,-385.6236786,1,-1,0.791611037,0.972591006,1,0
4,10,1,669.7674419,426.2156448,-243.551797,3,1,0.722303792,0.85943969,1,1
4,11,1,466.807611,345.0317125,-121.7758985,2,1,1.250485404,1.272023535,1,1
4,12,1,304.4397463,243.551797,-60.88794926,2,-1,0.525549455,1.111465581,1,1
4,13,1,669.7674419,446.5116279,-223.255814,1,1,0.45044907,1.248322125,1,1
4,14,1,466.807611,345.0317125,-121.7758985,3,-1,0.681689566,0.537073833,1,1
4,15,1,466.807611,142.0718816,-324.7357294,1,-1,0.627583693,0.917401413,1,1
4,16,1,466.807611,385.6236786,-81.18393235,3,1,0.634442356,0.838285314,1,1
4,17,1,304.4397463,223.255814,-81.18393235,2,-1,0.570924057,1.073635406,1,1
4,18,1,466.807611,365.3276956,-101.4799154,2,1,0.90661677,0.805361865,1,1
4,19,1,466.807611,263.8477801,-202.9598309,2,1,0.372374435,0.945710123,1,1
4,20,1,466.807611,365.3276956,-101.4799154,3,1,1.15487036,0.790748718,1,1
4,21,1,304.4397463,81.18393235,-223.255814,1,-1,1.624955337,0.3826625,1,1
4,22,1,466.807611,324.7357294,-142.0718816,2,-1,0.651330308,1.110906841,1,1
4,23,1,669.7674419,588.5835095,-81.18393235,2,1,0.791355675,0.813124632,1,1
4,24,1,669.7674419,527.6955603,-142.0718816,2,1,0.620588137,0.800943433,1,1
4,25,1,304.4397463,263.8477801,-40.59196617,2,-1,1.623628134,0.818646726,1,1
4,26,1,669.7674419,487.1035941,-182.6638478,3,1,0.993162682,0.728868073,1,1
4,27,1,669.7674419,568.2875264,-101.4799154,3,1,0.971747378,0.91365546,1,1
4,28,1,669.7674419,547.9915433,-121.7758985,2,-1,0.657919094,0.453965653,1,1
4,29,1,669.7674419,121.7758985,-547.9915433,1,-1,0.562992444,0.776306334,1,1
4,30,1,466.807611,345.0317125,-121.7758985,3,-1,1.336279058,1.040256857,1,1
4,31,1,466.807611,365.3276956,-101.4799154,2,-1,0.700420408,1.306402462,1,1
4,32,1,669.7674419,60.88794926,-608.8794926,1,-1,0.721326373,0.606190835,1,1
4,33,1,304.4397463,81.18393235,-223.255814,1,-1,1.16880742,1.039121295,1,1
4,34,1,466.807611,324.7357294,-142.0718816,2,-1,0.932205225,0.994202447,1,1
4,35,1,466.807611,304.4397463,-162.3678647,3,-1,0.864922507,1.234697568,1,1
4,36,1,466.807611,365.3276956,-101.4799154,3,1,0.309581429,0.937451813,1,1
4,37,1,466.807611,466.807611,-6.25E-13,2,1,0.759477867,0.594431505,1,1
4,38,1,304.4397463,345.0317125,40.59196617,1,-1,2.278599949,0.934208978,1,1
4,39,1,304.4397463,345.0317125,40.59196617,2,-1,0.512253431,0.610115865,1,1
4,40,1,669.7674419,487.1035941,-182.6638478,3,1,0.165281808,0.715136856,1,1
4,41,1,304.4397463,223.255814,-81.18393235,2,1,0.785250367,0.660732788,1,1
4,42,1,304.4397463,263.8477801,-40.59196617,2,1,0.333847308,0.835690087,1,1
4,43,1,669.7674419,446.5116279,-223.255814,2,-1,0.860053782,0.354038342,1,1
4,44,1,466.807611,365.3276956,-101.4799154,2,-1,0.551836179,0.519795531,1,1
4,45,1,466.807611,101.4799154,-365.3276956,1,-1,0.99809039,0.256115287,1,1
4,46,1,669.7674419,527.6955603,-142.0718816,3,1,0.213545277,0.237673258,1,1
4,47,1,669.7674419,527.6955603,-142.0718816,3,1,0.173756357,0.22777575,1,1
4,48,1,304.4397463,263.8477801,-40.59196617,2,-1,1.371872817,0.317848765,1,1
4,49,1,466.807611,40.59196617,-426.2156448,1,-1,0.814930892,0.519797413,1,0
4,50,1,304.4397463,345.0317125,40.59196617,1,-1,0.939012108,0.590166676,1,1
4,51,1,466.807611,365.3276956,-101.4799154,2,-1,0.29749157,1.017587405,1,1
4,52,1,466.807611,405.9196617,-60.88794926,2,1,0.503621127,0.405764688,1,1
4,53,1,304.4397463,223.255814,-81.18393235,2,-1,0.593641917,0.763783425,1,1
4,54,1,669.7674419,527.6955603,-142.0718816,2,1,0.925442626,0.776880938,1,1
4,55,1,669.7674419,487.1035941,-182.6638478,3,1,0.820719833,0.220883802,1,1
4,56,1,466.807611,345.0317125,-121.7758985,3,1,0.487960662,0.662721835,1,1
4,57,1,304.4397463,304.4397463,-3.98E-13,1,-1,0.780319927,0.244552289,1,1
4,58,1,304.4397463,202.9598309,-101.4799154,2,1,0.233837616,0.645085604,1,1
4,59,1,669.7674419,405.9196617,-263.8477801,2,1,0.833227866,0.226955139,1,1
4,60,1,304.4397463,60.88794926,-243.551797,1,-1,0.26346778,0.405133793,1,1
4,61,1,466.807611,20.29598309,-446.5116279,1,-1,0.282186605,0.841990121,0,1
4,62,1,669.7674419,487.1035941,-182.6638478,3,1,0.839263817,0.642090684,1,1
4,63,1,304.4397463,223.255814,-81.18393235,1,-1,0.18725878,0.300883263,1,1
4,64,1,466.807611,81.18393235,-385.6236786,1,-1,0.215368088,0.256470589,1,0
4,65,1,466.807611,324.7357294,-142.0718816,2,1,0.71249553,0.228148781,1,1
4,66,1,669.7674419,426.2156448,-243.551797,2,1,0.630598452,0.382873586,1,1
4,67,1,304.4397463,324.7357294,20.29598309,2,1,0.643313743,0.291652942,1,1
4,68,1,466.807611,507.3995772,40.59196617,2,1,0.643281614,0.535814196,1,1
4,69,1,304.4397463,365.3276956,60.88794926,2,-1,0.777866475,0.631632712,1,1
4,70,1,669.7674419,649.4714588,-20.29598309,3,1,0.63407668,0.533724405,1,1
4,71,1,304.4397463,324.7357294,20.29598309,3,-1,0.672988424,0.555202688,1,1
4,72,1,304.4397463,284.1437632,-20.29598309,2,-1,0.705757788,0.458312048,1,1
4,73,1,304.4397463,60.88794926,-243.551797,1,-1,0.670675862,0.280793708,1,1
4,74,1,669.7674419,568.2875264,-101.4799154,2,-1,0.729893421,0.611886986,1,1
4,75,1,466.807611,405.9196617,-60.88794926,2,1,0.79706632,0.820726684,1,1
4,76,1,304.4397463,20.29598309,-284.1437632,1,-1,0.492622232,0.363391557,0,1
4,77,1,466.807611,20.29598309,-446.5116279,1,-1,0.235982339,0.283338209,0,1
4,78,1,304.4397463,20.29598309,-284.1437632,2,1,0.243999942,0.866739325,0,1
4,79,1,669.7674419,345.0317125,-324.7357294,3,-1,0.737500729,0.90907987,1,1
4,80,1,304.4397463,223.255814,-81.18393235,1,-1,0.29757809,0.57264557,1,1
4,81,1,669.7674419,324.7357294,-345.0317125,2,1,0.235569127,0.5570401,1,1
4,82,1,466.807611,385.6236786,-81.18393235,2,1,0.740907999,1.207108767,1,1
4,83,1,304.4397463,304.4397463,-3.98E-13,2,-1,0.60069982,1.569048569,1,1
4,84,1,304.4397463,243.551797,-60.88794926,2,1,0.673723391,0.631424257,1,1
4,85,1,304.4397463,284.1437632,-20.29598309,2,-1,0.646855099,0.371853045,1,1
4,86,1,466.807611,324.7357294,-142.0718816,2,-1,0.527484459,0.476300038,1,1
4,87,1,466.807611,345.0317125,-121.7758985,3,-1,0.422719974,0.974643508,1,1
4,88,1,304.4397463,263.8477801,-40.59196617,3,-1,0.352493707,0.327299555,1,1
4,89,1,466.807611,345.0317125,-121.7758985,3,-1,0.291803699,0.298508321,1,1
4,90,1,669.7674419,507.3995772,-162.3678647,3,1,0.769819337,0.352582719,1,1
4,91,1,466.807611,426.2156448,-40.59196617,3,1,0.58655424,0.201767605,1,1
4,92,1,669.7674419,629.1754757,-40.59196617,3,1,0.309890932,0.268329659,1,1
4,93,1,669.7674419,547.9915433,-121.7758985,3,1,0.206045,0.210992564,1,1
4,94,1,304.4397463,81.18393235,-223.255814,2,-1,0.68627132,0.775099322,1,1
4,95,1,304.4397463,304.4397463,-3.98E-13,3,-1,0.611096997,0.506620385,1,1
4,96,1,466.807611,385.6236786,-81.18393235,3,-1,0.23682935,0.318598558,1,1
4,97,1,466.807611,487.1035941,20.29598309,3,1,0.218294469,0.702614394,1,1
4,98,1,304.4397463,324.7357294,20.29598309,2,-1,0.917321794,1.194309948,1,1
4,99,1,304.4397463,263.8477801,-40.59196617,2,-1,0.198089503,0.28032312,1,1
4,100,1,466.807611,365.3276956,-101.4799154,1,-1,1.05089856,0.274434379,1,1
4,101,1,304.4397463,284.1437632,-20.29598309,3,-1,0.682965565,0.296609194,1,1
4,102,1,466.807611,324.7357294,-142.0718816,2,-1,0.235563852,0.267428871,1,1
4,103,1,304.4397463,284.1437632,-20.29598309,3,-1,0.408149711,0.336952431,1,1
4,104,1,466.807611,405.9196617,-60.88794926,2,1,1.024284814,0.986756596,1,1
4,105,1,466.807611,60.88794926,-405.9196617,1,-1,0.762481886,0.535921125,1,0
4,106,1,304.4397463,263.8477801,-40.59196617,1,-1,0.445525477,0.462266383,1,1
4,107,1,304.4397463,40.59196617,-263.8477801,1,-1,0.441780563,0.354737571,1,0
4,108,1,669.7674419,547.9915433,-121.7758985,1,1,0.24808241,0.945406568,1,1
4,109,1,466.807611,426.2156448,-40.59196617,2,1,0.233943019,1.066093262,1,1
4,110,1,304.4397463,60.88794926,-243.551797,1,-1,0.252941116,0.329106321,1,1
4,111,1,669.7674419,81.18393235,-588.5835095,1,-1,0.875485556,0.263038662,1,1
4,112,1,669.7674419,608.8794926,-60.88794926,3,1,0.285327621,0.430117545,1,1
4,113,1,466.807611,426.2156448,-40.59196617,2,1,0.730578099,0.90556728,1,1
4,114,1,669.7674419,426.2156448,-243.551797,3,-1,0.262901227,0.306443459,1,1
4,115,1,669.7674419,162.3678647,-507.3995772,2,1,0.566510229,0.330414678,1,1
4,116,1,669.7674419,345.0317125,-324.7357294,2,1,0.292160926,0.416330149,1,1
4,117,1,466.807611,243.551797,-223.255814,1,-1,0.544139503,0.331680454,1,1
4,118,1,304.4397463,385.6236786,81.18393235,2,-1,0.522044811,0.452227163,1,1
4,119,1,466.807611,405.9196617,-60.88794926,2,-1,0.681558512,0.67086996,1,1
4,120,1,669.7674419,487.1035941,-182.6638478,2,1,0.436972049,0.817299365,1,1
4,121,2,669.7674419,487.1035941,-182.6638478,2,1,0.403592324,0.62620645,1,1
4,122,2,669.7674419,507.3995772,-162.3678647,3,1,0.303420633,4.833804613,1,1
4,123,2,466.807611,385.6236786,-81.18393235,2,1,0.610027765,0.722801888,1,1
4,124,2,304.4397463,60.88794926,-243.551797,2,-1,0.644083894,0.904702008,1,1
4,125,2,466.807611,385.6236786,-81.18393235,1,-1,0.285448792,0.396522423,1,1
4,126,2,466.807611,365.3276956,-101.4799154,2,-1,0.420008679,0.421339193,1,1
4,127,2,466.807611,142.0718816,-324.7357294,2,-1,0.271644033,0.452471479,1,1
4,128,2,466.807611,446.5116279,-20.29598309,1,-1,0.294521231,0.382653135,1,1
4,129,2,304.4397463,263.8477801,-40.59196617,2,-1,0.23736922,0.300422542,1,1
4,130,2,669.7674419,446.5116279,-223.255814,3,-1,0.273679044,0.350300333,1,1
4,131,2,466.807611,446.5116279,-20.29598309,3,1,0.249278218,0.692256148,1,1
4,132,2,669.7674419,40.59196617,-629.1754757,2,-1,0.303032924,0.333989112,1,0
4,133,2,304.4397463,284.1437632,-20.29598309,3,-1,0.234104689,0.259753758,1,1
4,134,2,304.4397463,40.59196617,-263.8477801,1,-1,0.486081983,0.351716063,1,0
4,135,2,466.807611,405.9196617,-60.88794926,2,1,0.230816799,0.262901848,1,1
4,136,2,304.4397463,243.551797,-60.88794926,3,-1,0.232684592,0.282917218,1,1
4,137,2,304.4397463,284.1437632,-20.29598309,3,-1,0.21774621,0.235380756,1,1
4,138,2,669.7674419,527.6955603,-142.0718816,3,1,0.190069947,0.221905065,1,1
4,139,2,304.4397463,365.3276956,60.88794926,2,-1,0.205404819,0.268052334,1,1
4,140,2,466.807611,365.3276956,-101.4799154,3,-1,0.290019839,0.88590684,1,1
4,141,2,304.4397463,243.551797,-60.88794926,2,-1,0.526619765,0.304695483,1,1
4,142,2,466.807611,446.5116279,-20.29598309,3,1,0.225996872,0.306335546,1,1
4,143,2,669.7674419,608.8794926,-60.88794926,3,1,0.192421046,0.205198699,1,1
4,144,2,466.807611,405.9196617,-60.88794926,3,1,0.575894098,0.708546229,1,1
4,145,2,466.807611,60.88794926,-405.9196617,1,-1,0.335630354,0.526137821,1,0
4,146,2,669.7674419,568.2875264,-101.4799154,3,1,0.572541764,0.359123466,1,1
4,147,2,304.4397463,304.4397463,-3.98E-13,2,-1,0.338642294,0.665993997,1,1
4,148,2,669.7674419,547.9915433,-121.7758985,3,1,0.2790093,0.701510414,1,1
4,149,2,304.4397463,304.4397463,-3.98E-13,2,1,0.204274946,0.598473404,1,1
4,150,2,466.807611,426.2156448,-40.59196617,3,-1,0.235666351,0.273724705,1,1
4,151,2,669.7674419,81.18393235,-588.5835095,1,-1,0.506878547,0.265921778,1,1
4,152,2,304.4397463,20.29598309,-284.1437632,1,-1,1.352157887,0.365209228,0,1
4,153,2,304.4397463,20.29598309,-284.1437632,2,-1,0.22544872,0.364847568,0,1
4,154,2,669.7674419,20.29598309,-649.4714588,1,-1,0.822924839,0.685419342,0,1
4,155,2,669.7674419,385.6236786,-284.1437632,2,1,0.230777925,0.24716035,1,1
4,156,2,466.807611,365.3276956,-101.4799154,2,1,0.377353153,1.042606777,1,1
4,157,2,304.4397463,345.0317125,40.59196617,2,1,0.467202927,0.727764859,1,1
4,158,2,466.807611,385.6236786,-81.18393235,3,1,0.280943077,0.69949433,1,1
4,159,2,669.7674419,446.5116279,-223.255814,2,-1,0.534165745,0.47365568,1,1
4,160,2,304.4397463,284.1437632,-20.29598309,2,-1,0.566927528,0.48144233,1,1
4,161,2,304.4397463,284.1437632,-20.29598309,1,-1,0.633799228,0.457106593,1,1
4,162,2,669.7674419,629.1754757,-40.59196617,3,1,0.803050275,0.440591454,1,1
4,163,2,466.807611,345.0317125,-121.7758985,3,-1,0.262278547,0.329981508,1,1
4,164,2,466.807611,385.6236786,-81.18393235,2,-1,0.303092504,0.37161464,1,1
4,165,2,304.4397463,324.7357294,20.29598309,3,1,0.261724962,0.673201968,1,1
4,166,2,669.7674419,507.3995772,-162.3678647,3,1,0.328692541,0.298414462,1,1
4,167,2,669.7674419,446.5116279,-223.255814,3,1,0.385308452,0.629012873,1,1
4,168,2,466.807611,365.3276956,-101.4799154,3,1,0.267204775,0.432791556,1,1
4,169,2,669.7674419,527.6955603,-142.0718816,3,-1,0.287062596,0.56424942,1,1
4,170,2,304.4397463,304.4397463,-3.98E-13,1,-1,0.60396019,0.412806804,1,1
4,171,2,669.7674419,568.2875264,-101.4799154,3,-1,0.291074421,0.410715915,1,1
4,172,2,304.4397463,284.1437632,-20.29598309,3,1,0.67349608,0.282095207,1,1
4,173,2,669.7674419,365.3276956,-304.4397463,2,-1,0.243307003,0.558131694,1,1
4,174,2,669.7674419,426.2156448,-243.551797,3,1,0.285624064,0.757022315,1,1
4,175,2,669.7674419,568.2875264,-101.4799154,3,1,0.411555402,0.276582085,1,1
4,176,2,304.4397463,304.4397463,-3.98E-13,3,1,0.241192474,0.245934522,1,1
4,177,2,466.807611,365.3276956,-101.4799154,3,-1,0.276520476,0.829579712,1,1
4,178,2,304.4397463,263.8477801,-40.59196617,2,-1,0.358629286,0.384774583,1,1
4,179,2,304.4397463,304.4397463,-3.98E-13,1,-1,0.563736811,0.676675965,1,1
4,180,2,669.7674419,547.9915433,-121.7758985,3,1,0.215835941,0.238009036,1,1
4,181,2,669.7674419,507.3995772,-162.3678647,3,1,0.231169508,0.24880034,1,1
4,182,2,304.4397463,284.1437632,-20.29598309,3,1,0.201872106,0.255174915,1,1
4,183,2,304.4397463,284.1437632,-20.29598309,3,1,0.478681143,0.30874801,1,1
4,184,2,304.4397463,263.8477801,-40.59196617,2,-1,0.540740826,0.2918838,1,1
4,185,2,669.7674419,385.6236786,-284.1437632,2,-1,0.201825824,0.294802695,1,1
4,186,2,669.7674419,527.6955603,-142.0718816,3,-1,0.551783777,0.256742171,1,1
4,187,2,466.807611,304.4397463,-162.3678647,3,-1,0.20260772,0.257552767,1,1
4,188,2,466.807611,20.29598309,-446.5116279,1,1,0.247295638,0.635225725,0,1
4,189,2,669.7674419,507.3995772,-162.3678647,3,1,0.390280492,0.740534041,1,1
4,190,2,669.7674419,446.5116279,-223.255814,2,1,0.205602739,0.693310221,1,1
4,191,2,304.4397463,40.59196617,-263.8477801,1,-1,0.200968836,0.456129984,1,0
4,192,2,304.4397463,284.1437632,-20.29598309,1,-1,0.634164476,0.527899831,1,1
4,193,2,669.7674419,487.1035941,-182.6638478,3,-1,0.282118869,0.286827614,1,1
4,194,2,304.4397463,284.1437632,-20.29598309,2,-1,0.521261104,0.341670899,1,1
4,195,2,669.7674419,466.807611,-202.9598309,3,1,0.377458337,0.536215014,1,1
4,196,2,466.807611,304.4397463,-162.3678647,2,-1,0.471814029,0.382651682,1,1
4,197,2,466.807611,345.0317125,-121.7758985,1,-1,0.634256287,0.692388513,1,1
4,198,2,669.7674419,507.3995772,-162.3678647,2,1,0.244833375,0.661937948,1,1
4,199,2,304.4397463,202.9598309,-101.4799154,1,-1,0.523366282,0.485717787,1,1
4,200,2,669.7674419,345.0317125,-324.7357294,2,-1,0.282062373,0.411734123,1,1
4,201,2,669.7674419,202.9598309,-466.807611,2,1,0.567503101,0.260247265,1,1
4,202,2,304.4397463,243.551797,-60.88794926,2,-1,0.26549688,0.27257651,1,1
4,203,2,669.7674419,345.0317125,-324.7357294,2,1,0.229185645,0.218364858,1,1
4,204,2,466.807611,60.88794926,-405.9196617,1,-1,0.424517338,0.407290793,1,0
4,205,2,669.7674419,20.29598309,-649.4714588,1,-1,0.476571506,0.372669344,0,1
4,206,2,466.807611,304.4397463,-162.3678647,2,1,0.500094575,0.308615187,1,1
4,207,2,304.4397463,20.29598309,-284.1437632,1,-1,0.731021493,0.296481417,0,1
4,208,2,669.7674419,20.29598309,-649.4714588,1,-1,0.599169715,0.292601851,0,1
4,209,2,466.807611,385.6236786,-81.18393235,2,1,0.231412779,0.484065793,1,1
4,210,2,304.4397463,304.4397463,-3.98E-13,2,-1,0.182918807,0.321790357,1,1
4,211,2,304.4397463,263.8477801,-40.59196617,1,1,0.222489777,0.362782033,1,1
4,212,2,466.807611,304.4397463,-162.3678647,1,-1,0.39401837,0.7592756,1,1
4,213,2,466.807611,263.8477801,-202.9598309,2,1,0.276134874,0.498623536,1,1
4,214,2,669.7674419,223.255814,-446.5116279,1,-1,0.303420815,0.325841928,1,1
4,215,2,466.807611,20.29598309,-446.5116279,1,-1,0.451109506,0.388488069,0,1
4,216,2,466.807611,20.29598309,-446.5116279,1,-1,0.277012736,0.544537085,0,1
4,217,2,466.807611,324.7357294,-142.0718816,2,1,0.27999515,0.696981277,1,1
4,218,2,466.807611,304.4397463,-162.3678647,1,-1,0.202567781,0.295200867,1,1
4,219,2,669.7674419,284.1437632,-385.6236786,2,-1,0.187841462,0.738922095,1,1
4,220,2,669.7674419,182.6638478,-487.1035941,2,1,0.611349978,0.217005259,1,1
4,221,2,466.807611,304.4397463,-162.3678647,2,1,0.248497348,0.236178784,1,1
4,222,2,669.7674419,324.7357294,-345.0317125,1,-1,0.530661619,0.286804612,1,1
4,223,2,466.807611,284.1437632,-182.6638478,2,-1,0.285455854,0.32212613,1,1
4,224,2,669.7674419,405.9196617,-263.8477801,2,1,0.23317058,0.20284059,1,1
4,225,2,304.4397463,324.7357294,20.29598309,1,-1,0.254032611,0.256596994,1,1
4,226,2,669.7674419,345.0317125,-324.7357294,2,-1,0.298516187,0.994191334,1,1
4,227,2,466.807611,304.4397463,-162.3678647,2,-1,0.520451769,0.44254242,1,1
4,228,2,669.7674419,20.29598309,-649.4714588,1,-1,0.26603037,0.317272424,0,1
4,229,2,466.807611,121.7758985,-345.0317125,2,1,0.259976712,0.622931294,1,1
4,230,2,304.4397463,324.7357294,20.29598309,1,-1,0.202214201,0.309629635,1,1
4,231,2,669.7674419,40.59196617,-629.1754757,2,1,0.559252133,0.481167197,1,0
4,232,2,304.4397463,101.4799154,-202.9598309,2,-1,0.413296329,0.7392281,1,1
4,233,2,669.7674419,243.551797,-426.2156448,3,-1,0.222446365,0.326118743,1,1
4,234,2,669.7674419,40.59196617,-629.1754757,1,1,0.261333237,0.243153376,1,0
4,235,2,669.7674419,20.29598309,-649.4714588,1,1,0.211819227,0.226743951,0,1
4,236,2,304.4397463,20.29598309,-284.1437632,1,-1,0.727216306,0.205589009,0,1
4,237,2,466.807611,202.9598309,-263.8477801,2,-1,0.280711883,0.269291733,1,1
4,238,2,669.7674419,101.4799154,-568.2875264,2,-1,0.775693453,0.317665711,1,1
4,239,2,304.4397463,202.9598309,-101.4799154,2,-1,0.251767348,0.461529133,1,1
4,240,2,304.4397463,162.3678647,-142.0718816,1,-1,0.592580047,0.309873123,1,1
5,1,1,669.7674419,20.29598309,-649.4714588,1,-1,2.901884238,3.505087895,0,1
5,2,1,466.807611,324.7357294,-142.0718816,2,-1,2.573906066,1.979009635,1,0
5,3,1,669.7674419,385.6236786,-284.1437632,2,-1,1.831221542,3.552304808,1,0
5,4,1,669.7674419,487.1035941,-182.6638478,2,1,1.851200715,3.275998429,1,1
5,5,1,669.7674419,547.9915433,-121.7758985,1,1,1.545179202,1.296965113,1,1
5,6,1,466.807611,446.5116279,-20.29598309,2,-1,1.334916869,1.086530098,1,1
5,7,1,304.4397463,284.1437632,-20.29598309,3,-1,1.106767842,1.014106481,1,1
5,8,1,466.807611,426.2156448,-40.59196617,3,1,1.039650532,2.537858813,1,1
5,9,1,669.7674419,547.9915433,-121.7758985,1,1,1.455779834,0.899928383,1,1
5,10,1,669.7674419,487.1035941,-182.6638478,3,1,1.258506348,1.084231382,1,1
5,11,1,304.4397463,304.4397463,-3.98E-13,2,1,1.032072998,0.771223638,1,1
5,12,1,466.807611,426.2156448,-40.59196617,2,1,6.676825851,2.905342362,1,1
5,13,1,466.807611,405.9196617,-60.88794926,2,1,2.077862409,2.017337353,1,1
5,14,1,466.807611,426.2156448,-40.59196617,3,-1,0.779282214,1.000858061,1,1
5,15,1,304.4397463,263.8477801,-40.59196617,3,-1,0.789659955,0.778046715,1,1
5,16,1,304.4397463,365.3276956,60.88794926,2,1,1.295619111,1.042947095,1,1
5,17,1,466.807611,405.9196617,-60.88794926,2,1,0.995428637,1.008430925,1,1
5,18,1,466.807611,405.9196617,-60.88794926,2,-1,0.806096621,0.964094855,1,1
5,19,1,669.7674419,547.9915433,-121.7758985,2,1,1.599248061,1.362458458,1,1
5,20,1,466.807611,405.9196617,-60.88794926,2,-1,1.342059085,1.299377312,1,1
5,21,1,466.807611,426.2156448,-40.59196617,3,-1,0.685735762,1.131458028,1,1
5,22,1,304.4397463,284.1437632,-20.29598309,3,1,0.756106638,1.273426584,1,1
5,23,1,669.7674419,527.6955603,-142.0718816,2,-1,0.934045971,1.591043946,1,1
5,24,1,466.807611,446.5116279,-20.29598309,2,1,7.079981684,1.665777299,1,1
5,25,1,304.4397463,263.8477801,-40.59196617,3,1,1.060686323,1.081520351,1,1
5,26,1,466.807611,385.6236786,-81.18393235,3,1,2.330048449,1.172901917,1,1
5,27,1,466.807611,385.6236786,-81.18393235,3,-1,0.980674976,1.153364697,1,1
5,28,1,466.807611,405.9196617,-60.88794926,3,-1,4.778023085,4.464953601,1,1
5,29,1,304.4397463,263.8477801,-40.59196617,3,-1,1.37017356,1.28967522,1,1
5,30,1,304.4397463,243.551797,-60.88794926,3,-1,1.032809241,2.358896636,1,1
5,31,1,466.807611,385.6236786,-81.18393235,3,1,0.791311004,1.094332826,1,1
5,32,1,304.4397463,284.1437632,-20.29598309,3,1,0.575197075,1.158322401,1,1
5,33,1,466.807611,426.2156448,-40.59196617,3,1,5.647863769,1.023719986,1,1
5,34,1,466.807611,426.2156448,-40.59196617,2,1,0.403963668,0.731686287,1,1
5,35,1,304.4397463,243.551797,-60.88794926,3,1,0.811212717,1.347788178,1,1
5,36,1,669.7674419,608.8794926,-60.88794926,2,1,0.602286281,0.543828139,1,1
5,37,1,466.807611,446.5116279,-20.29598309,2,1,0.489918169,0.465926024,1,1
5,38,1,304.4397463,324.7357294,20.29598309,2,1,0.607500944,0.525733132,1,1
5,39,1,669.7674419,588.5835095,-81.18393235,2,-1,0.504704825,0.45862954,1,1
5,40,1,304.4397463,304.4397463,-3.98E-13,3,-1,0.802911469,1.846524855,1,1
5,41,1,669.7674419,588.5835095,-81.18393235,2,-1,0.627340068,1.858710576,1,1
5,42,1,669.7674419,629.1754757,-40.59196617,2,-1,0.435725646,0.30313176,1,1
5,43,1,466.807611,507.3995772,40.59196617,2,-1,0.442977123,0.486339727,1,0
5,44,1,466.807611,487.1035941,20.29598309,3,1,0.558171649,0.530054176,1,1
5,45,1,304.4397463,324.7357294,20.29598309,3,-1,1.688280488,0.368454751,1,1
5,46,1,466.807611,385.6236786,-81.18393235,3,-1,0.588496608,0.58094981,1,1
5,47,1,466.807611,365.3276956,-101.4799154,3,-1,0.508122085,0.885579182,1,1
5,48,1,466.807611,405.9196617,-60.88794926,2,-1,0.59500226,0.894770333,1,1
5,49,1,304.4397463,324.7357294,20.29598309,2,1,0.58580032,0.49160002,1,1
5,50,1,304.4397463,284.1437632,-20.29598309,3,1,0.428042564,0.622628801,1,1
5,51,1,466.807611,426.2156448,-40.59196617,2,1,1.433661991,1.172657994,1,1
5,52,1,669.7674419,690.0634249,20.29598309,2,-1,0.544160589,1.974391048,1,1
5,53,1,466.807611,547.9915433,81.18393235,2,1,0.60578911,0.837660271,1,0
5,54,1,304.4397463,263.8477801,-40.59196617,3,-1,0.721423907,0.930249543,1,1
5,55,1,304.4397463,263.8477801,-40.59196617,3,1,0.899059803,0.847991781,1,1
5,56,1,466.807611,405.9196617,-60.88794926,3,-1,0.455745836,0.944997327,1,1
5,57,1,304.4397463,304.4397463,-3.98E-13,3,1,0.507871252,0.545095347,1,1
5,58,1,304.4397463,304.4397463,-3.98E-13,3,-1,0.566716368,0.817004287,1,1
5,59,1,304.4397463,324.7357294,20.29598309,3,1,0.618586029,0.757176758,1,1
5,60,1,669.7674419,507.3995772,-162.3678647,2,-1,0.426182641,0.316120888,1,1
5,61,1,669.7674419,527.6955603,-142.0718816,3,1,0.460004792,1.014669468,1,1
5,62,1,669.7674419,568.2875264,-101.4799154,3,-1,0.462606848,0.406284037,1,1
5,63,1,466.807611,446.5116279,-20.29598309,3,-1,0.407588529,0.514122308,1,1
5,64,1,304.4397463,385.6236786,81.18393235,2,1,0.554809839,0.488280503,1,1
5,65,1,466.807611,446.5116279,-20.29598309,2,1,0.353859158,0.327133755,1,1
5,66,1,669.7674419,547.9915433,-121.7758985,2,1,1.078202833,0.47687241,1,1
5,67,1,304.4397463,304.4397463,-3.98E-13,3,1,0.674402345,9.041913438,1,1
5,68,1,304.4397463,304.4397463,-3.98E-13,3,1,0.462943129,0.720788383,1,1
5,69,1,669.7674419,507.3995772,-162.3678647,3,-1,0.511751267,0.473760565,1,1
5,70,1,304.4397463,284.1437632,-20.29598309,3,-1,0.452099999,0.465020676,1,1
5,71,1,466.807611,385.6236786,-81.18393235,3,-1,0.432154153,0.44550896,1,1
5,72,1,466.807611,466.807611,-6.25E-13,2,1,0.529603087,0.523921131,1,1
5,73,1,466.807611,405.9196617,-60.88794926,2,1,3.108262883,0.999066132,1,1
5,74,1,304.4397463,284.1437632,-20.29598309,3,-1,0.512023771,0.505991761,1,1
5,75,1,466.807611,405.9196617,-60.88794926,2,-1,0.520551143,0.478574276,1,1
5,76,1,304.4397463,304.4397463,-3.98E-13,3,1,0.579065524,0.523436257,1,1
5,77,1,466.807611,385.6236786,-81.18393235,2,-1,0.565477108,1.765901072,1,1
5,78,1,304.4397463,324.7357294,20.29598309,2,-1,0.55297529,0.901147283,1,1
5,79,1,669.7674419,568.2875264,-101.4799154,2,1,2.030119413,1.61408934,1,1
5,80,1,466.807611,405.9196617,-60.88794926,2,-1,0.429770007,0.330330593,1,1
5,81,1,304.4397463,284.1437632,-20.29598309,3,1,1.214331938,0.872249375,1,1
5,82,1,669.7674419,507.3995772,-162.3678647,3,1,1.955407732,1.858137883,1,1
5,83,1,669.7674419,547.9915433,-121.7758985,3,1,0.514996302,0.483550428,1,1
5,84,1,466.807611,466.807611,-6.25E-13,2,1,0.535146115,0.556577917,1,1
5,85,1,304.4397463,365.3276956,60.88794926,3,1,1.151154193,4.614414899,1,1
5,86,1,669.7674419,527.6955603,-142.0718816,3,-1,0.428344485,0.415015606,1,1
5,87,1,466.807611,426.2156448,-40.59196617,3,1,0.498926353,0.465338223,1,1
5,88,1,466.807611,426.2156448,-40.59196617,3,-1,0.579354316,0.515152165,1,1
5,89,1,669.7674419,588.5835095,-81.18393235,2,1,1.037856807,0.352829401,1,1
5,90,1,466.807611,426.2156448,-40.59196617,3,1,0.546244375,0.503673741,1,1
5,91,1,669.7674419,568.2875264,-101.4799154,2,1,0.484148959,0.488200991,1,1
5,92,1,304.4397463,263.8477801,-40.59196617,3,-1,0.465626108,1.076793117,1,1
5,93,1,304.4397463,365.3276956,60.88794926,2,1,0.497886187,0.478339716,1,1
5,94,1,669.7674419,568.2875264,-101.4799154,2,1,0.6122436,0.539515121,1,1
5,95,1,669.7674419,568.2875264,-101.4799154,2,-1,0.404506058,0.44084205,1,1
5,96,1,304.4397463,365.3276956,60.88794926,3,-1,0.532514876,0.504345959,1,1
5,97,1,466.807611,385.6236786,-81.18393235,3,-1,0.506317813,0.474621417,1,1
5,98,1,304.4397463,243.551797,-60.88794926,3,-1,0.509941444,0.536199952,1,1
5,99,1,669.7674419,507.3995772,-162.3678647,3,1,1.412250829,5.367404024,1,1
5,100,1,466.807611,426.2156448,-40.59196617,3,-1,0.652980923,0.589015252,1,1
5,101,1,466.807611,466.807611,-6.25E-13,2,1,0.526107848,0.477014054,1,1
5,102,1,304.4397463,284.1437632,-20.29598309,3,1,0.497552056,0.484577209,1,1
5,103,1,466.807611,385.6236786,-81.18393235,2,1,0.4588688,0.473376709,1,1
5,104,1,304.4397463,263.8477801,-40.59196617,2,-1,0.478444862,0.481477604,1,1
5,105,1,669.7674419,487.1035941,-182.6638478,2,-1,0.988530627,0.353002273,1,1
5,106,1,669.7674419,507.3995772,-162.3678647,2,1,0.433332699,0.491396331,1,1
5,107,1,669.7674419,629.1754757,-40.59196617,2,-1,0.246755866,0.284516292,1,1
5,108,1,669.7674419,527.6955603,-142.0718816,3,-1,1.558741536,0.640747927,1,1
5,109,1,304.4397463,243.551797,-60.88794926,3,-1,0.512906525,0.519962884,1,1
5,110,1,669.7674419,547.9915433,-121.7758985,2,1,0.333713856,0.338149382,1,1
5,111,1,466.807611,426.2156448,-40.59196617,2,-1,0.556929371,0.369227225,1,1
5,112,1,304.4397463,304.4397463,-3.98E-13,3,-1,0.498459411,0.369837144,1,1
5,113,1,466.807611,405.9196617,-60.88794926,3,1,0.415601697,0.398513874,1,1
5,114,1,669.7674419,527.6955603,-142.0718816,3,1,0.395316355,0.888583779,1,1
5,115,1,669.7674419,507.3995772,-162.3678647,3,-1,0.249336466,0.326468416,1,1
5,116,1,466.807611,426.2156448,-40.59196617,2,-1,0.883022546,0.692876439,1,1
5,117,1,466.807611,365.3276956,-101.4799154,3,-1,0.211428792,0.393658306,1,1
5,118,1,669.7674419,527.6955603,-142.0718816,2,-1,0.24639285,0.270639062,1,1
5,119,1,466.807611,446.5116279,-20.29598309,3,1,0.391474381,0.484015705,1,1
5,120,1,669.7674419,527.6955603,-142.0718816,3,1,0.259667119,0.26275474,1,1
5,121,2,669.7674419,608.8794926,-60.88794926,2,1,0.264867272,0.24472115,1,1
5,122,2,304.4397463,284.1437632,-20.29598309,3,-1,0.350226978,0.319246525,1,1
5,123,2,669.7674419,466.807611,-202.9598309,3,-1,0.263991486,0.358463582,1,1
5,124,2,669.7674419,588.5835095,-81.18393235,3,-1,0.367038907,0.416559537,1,1
5,125,2,669.7674419,547.9915433,-121.7758985,2,1,0.74686574,0.745319949,1,1
5,126,2,466.807611,426.2156448,-40.59196617,3,1,0.842628228,1.062922418,1,1
5,127,2,669.7674419,527.6955603,-142.0718816,2,1,0.653200417,0.541462531,1,1
5,128,2,669.7674419,588.5835095,-81.18393235,3,-1,0.330401348,0.35174976,1,1
5,129,2,669.7674419,527.6955603,-142.0718816,2,1,0.409859337,0.376094126,1,1
5,130,2,304.4397463,345.0317125,40.59196617,2,1,0.33638479,0.34330088,1,1
5,131,2,466.807611,385.6236786,-81.18393235,3,-1,0.292365779,0.336231425,1,1
5,132,2,669.7674419,547.9915433,-121.7758985,2,1,0.278708696,0.213097079,1,1
5,133,2,466.807611,365.3276956,-101.4799154,2,-1,0.256724937,0.283403184,1,1
5,134,2,669.7674419,608.8794926,-60.88794926,2,1,0.490972164,0.50141004,1,1
5,135,2,466.807611,405.9196617,-60.88794926,2,1,0.453992025,0.4048958,1,1
5,136,2,466.807611,426.2156448,-40.59196617,2,1,0.391299385,0.38427063,1,1
5,137,2,304.4397463,304.4397463,-3.98E-13,3,1,0.377690945,0.76469765,1,1
5,138,2,304.4397463,284.1437632,-20.29598309,3,-1,0.230255565,0.318348966,1,1
5,139,2,466.807611,426.2156448,-40.59196617,3,-1,0.234284609,0.295140544,1,1
5,140,2,669.7674419,426.2156448,-243.551797,3,-1,0.254310348,0.272805782,1,1
5,141,2,669.7674419,811.8393235,142.0718816,2,-1,0.404354264,2.064360861,1,0
5,142,2,466.807611,385.6236786,-81.18393235,3,-1,0.267406496,0.292348007,1,1
5,143,2,669.7674419,527.6955603,-142.0718816,2,-1,0.616794655,0.291395137,1,1
5,144,2,304.4397463,365.3276956,60.88794926,3,-1,0.366576515,1.23176251,1,1
5,145,2,304.4397463,304.4397463,-3.98E-13,2,-1,4.45813191,0.973948345,1,1
5,146,2,669.7674419,568.2875264,-101.4799154,3,1,0.833870259,0.516553205,1,1
5,147,2,466.807611,385.6236786,-81.18393235,3,1,0.257155634,0.33423258,1,1
5,148,2,669.7674419,487.1035941,-182.6638478,3,-1,0.232246045,0.29524775,1,1
5,149,2,466.807611,385.6236786,-81.18393235,3,1,0.50519981,0.226598369,1,1
5,150,2,304.4397463,304.4397463,-3.98E-13,3,-1,0.241597986,0.258582674,1,1
5,151,2,304.4397463,223.255814,-81.18393235,3,-1,0.314977957,0.332506269,1,1
5,152,2,304.4397463,284.1437632,-20.29598309,2,1,0.374427905,1.336248897,1,1
5,153,2,304.4397463,284.1437632,-20.29598309,3,-1,0.202584829,0.262421756,1,1
5,154,2,669.7674419,547.9915433,-121.7758985,2,-1,0.174798004,0.256161265,1,1
5,155,2,304.4397463,304.4397463,-3.98E-13,3,-1,0.295929986,0.266021747,1,1
5,156,2,669.7674419,608.8794926,-60.88794926,2,1,0.274795127,0.191877915,1,1
5,157,2,669.7674419,547.9915433,-121.7758985,3,-1,0.211469642,0.248596895,1,1
5,158,2,304.4397463,263.8477801,-40.59196617,3,1,0.242819041,0.233555575,1,1
5,159,2,304.4397463,324.7357294,20.29598309,3,-1,0.30026007,1.896262192,1,1
5,160,2,304.4397463,304.4397463,-3.98E-13,3,1,0.237006501,0.238327122,1,1
5,161,2,466.807611,426.2156448,-40.59196617,2,1,0.269707025,0.230274092,1,1
5,162,2,304.4397463,304.4397463,-3.98E-13,3,1,0.236737195,0.21829368,1,1
5,163,2,466.807611,405.9196617,-60.88794926,3,1,0.383998657,0.5745723,1,1
5,164,2,466.807611,446.5116279,-20.29598309,3,-1,0.223739062,0.207735721,1,1
5,165,2,304.4397463,345.0317125,40.59196617,3,1,0.26654632,0.288955861,1,1
5,166,2,669.7674419,507.3995772,-162.3678647,2,-1,0.331847059,0.267206146,1,1
5,167,2,304.4397463,284.1437632,-20.29598309,3,-1,0.253243142,0.22007676,1,1
5,168,2,466.807611,466.807611,-6.25E-13,3,1,0.251778967,0.285248278,1,1
5,169,2,669.7674419,710.359408,40.59196617,2,1,0.544837385,0.578360404,1,0
5,170,2,669.7674419,710.359408,40.59196617,2,1,0.43356134,0.460971782,1,0
5,171,2,466.807611,426.2156448,-40.59196617,3,-1,0.233262006,0.253055957,1,1
5,172,2,304.4397463,263.8477801,-40.59196617,3,-1,0.33748548,0.692690316,1,1
5,173,2,466.807611,385.6236786,-81.18393235,3,-1,0.244456227,0.278612056,1,1
5,174,2,669.7674419,588.5835095,-81.18393235,3,-1,0.352562735,0.33985012,1,1
5,175,2,669.7674419,588.5835095,-81.18393235,3,1,0.243065802,0.269136135,1,1
5,176,2,304.4397463,345.0317125,40.59196617,3,1,0.405109932,0.806036117,1,1
5,177,2,304.4397463,304.4397463,-3.98E-13,2,1,0.442546288,0.46816172,1,1
5,178,2,304.4397463,345.0317125,40.59196617,3,1,0.42899718,0.76961326,1,1
5,179,2,304.4397463,324.7357294,20.29598309,2,1,0.476932989,0.44478589,1,1
5,180,2,669.7674419,547.9915433,-121.7758985,2,-1,0.421917251,0.435422969,1,1
5,181,2,669.7674419,547.9915433,-121.7758985,3,-1,0.34543234,0.252323214,1,1
5,182,2,669.7674419,608.8794926,-60.88794926,2,1,0.290025631,0.238324183,1,1
5,183,2,304.4397463,345.0317125,40.59196617,3,1,0.316758446,0.231153366,1,1
5,184,2,466.807611,405.9196617,-60.88794926,3,1,0.336618573,0.247789522,1,1
5,185,2,669.7674419,547.9915433,-121.7758985,2,1,0.407916923,0.424439546,1,1
5,186,2,669.7674419,547.9915433,-121.7758985,3,1,0.425177173,0.182035174,1,1
5,187,2,466.807611,426.2156448,-40.59196617,3,-1,0.270336983,0.263437899,1,1
5,188,2,669.7674419,669.7674419,-9.09E-13,2,-1,0.407878517,0.44217822,1,1
5,189,2,669.7674419,527.6955603,-142.0718816,3,-1,0.860575455,0.6127111,1,1
5,190,2,669.7674419,588.5835095,-81.18393235,3,-1,0.435928232,1.411393375,1,1
5,191,2,466.807611,426.2156448,-40.59196617,3,-1,0.260251926,0.205715555,1,1
5,192,2,304.4397463,284.1437632,-20.29598309,3,1,0.291407905,0.358023298,1,1
5,193,2,466.807611,405.9196617,-60.88794926,3,-1,0.283318769,0.276731755,1,1
5,194,2,466.807611,345.0317125,-121.7758985,3,-1,0.287391556,0.851791669,1,1
5,195,2,304.4397463,284.1437632,-20.29598309,3,1,0.373478217,0.270838175,1,1
5,196,2,304.4397463,101.4799154,-202.9598309,1,-1,0.482780963,0.986773079,1,0
5,197,2,669.7674419,568.2875264,-101.4799154,3,-1,0.249252143,0.291903732,1,1
5,198,2,304.4397463,284.1437632,-20.29598309,3,-1,0.242312491,0.256228838,1,1
5,199,2,304.4397463,304.4397463,-3.98E-13,3,1,0.241974049,0.226988212,1,1
5,200,2,669.7674419,466.807611,-202.9598309,2,-1,0.274996735,0.557246053,1,1
5,201,2,466.807611,365.3276956,-101.4799154,2,-1,0.25307943,0.241571041,1,1
5,202,2,466.807611,466.807611,-6.25E-13,2,1,0.373711555,0.301339684,1,1
5,203,2,466.807611,426.2156448,-40.59196617,3,-1,0.692085395,1.26080821,1,1
5,204,2,669.7674419,527.6955603,-142.0718816,2,1,0.329442478,0.308060992,1,1
5,205,2,304.4397463,324.7357294,20.29598309,3,1,0.555540699,1.137877135,1,1
5,206,2,669.7674419,608.8794926,-60.88794926,2,-1,1.129252323,0.57985823,1,1
5,207,2,304.4397463,304.4397463,-3.98E-13,3,-1,0.671652807,1.236116988,1,1
5,208,2,466.807611,385.6236786,-81.18393235,2,1,0.458657689,0.694103305,1,1
5,209,2,466.807611,405.9196617,-60.88794926,3,-1,0.25873548,0.320191002,1,1
5,210,2,304.4397463,263.8477801,-40.59196617,2,-1,0.632424061,1.05129697,1,1
5,211,2,669.7674419,507.3995772,-162.3678647,2,1,0.872728137,0.800979145,1,1
5,212,2,304.4397463,324.7357294,20.29598309,3,-1,0.369389852,0.234173175,1,1
5,213,2,669.7674419,649.4714588,-20.29598309,3,1,0.316317128,0.260126788,1,1
5,214,2,669.7674419,608.8794926,-60.88794926,3,-1,0.210977719,0.248148013,1,1
5,215,2,669.7674419,629.1754757,-40.59196617,3,1,0.233100205,0.22540126,1,1
5,216,2,304.4397463,182.6638478,-121.7758985,3,-1,0.440462003,0.258777917,1,0
5,217,2,304.4397463,284.1437632,-20.29598309,3,-1,0.280065261,0.249005984,1,1
5,218,2,669.7674419,507.3995772,-162.3678647,3,1,0.396144173,0.23892199,1,1
5,219,2,304.4397463,304.4397463,-3.98E-13,3,1,0.517585234,0.240159456,1,1
5,220,2,669.7674419,547.9915433,-121.7758985,3,-1,0.183047204,0.298495893,1,1
5,221,2,304.4397463,263.8477801,-40.59196617,3,-1,0.353648864,0.334425722,1,1
5,222,2,669.7674419,588.5835095,-81.18393235,3,-1,0.295658434,0.21145016,1,1
5,223,2,304.4397463,263.8477801,-40.59196617,3,-1,0.429299299,0.340374027,1,1
5,224,2,466.807611,365.3276956,-101.4799154,2,-1,0.231523657,0.35081186,1,1
5,225,2,466.807611,405.9196617,-60.88794926,2,-1,0.424006992,0.228115399,1,1
5,226,2,466.807611,345.0317125,-121.7758985,2,-1,0.254674814,0.25551268,1,1
5,227,2,669.7674419,568.2875264,-101.4799154,3,1,0.483000963,0.225574384,1,1
5,228,2,466.807611,426.2156448,-40.59196617,3,-1,0.28626577,0.234895161,1,1
5,229,2,466.807611,446.5116279,-20.29598309,2,-1,0.742037222,0.671980088,1,1
5,230,2,304.4397463,263.8477801,-40.59196617,3,1,0.228493577,0.220082396,1,1
5,231,2,304.4397463,223.255814,-81.18393235,3,-1,0.368345568,0.290063681,1,1
5,232,2,669.7674419,527.6955603,-142.0718816,3,1,0.298660797,0.246918402,1,1
5,233,2,669.7674419,527.6955603,-142.0718816,3,-1,0.235464374,0.238424292,1,1
5,234,2,304.4397463,263.8477801,-40.59196617,3,-1,0.241815241,0.318269681,1,1
5,235,2,304.4397463,324.7357294,20.29598309,3,-1,0.20764585,0.242525671,1,1
5,236,2,304.4397463,243.551797,-60.88794926,2,-1,0.598024147,0.230789046,1,1
5,237,2,466.807611,385.6236786,-81.18393235,3,1,0.252611197,0.241481528,1,1
5,238,2,466.807611,426.2156448,-40.59196617,3,-1,1.019197461,0.228126758,1,1
5,239,2,304.4397463,324.7357294,20.29598309,2,1,0.286850414,0.446663816,1,1
5,240,2,466.807611,385.6236786,-81.18393235,3,-1,0.234553107,0.210113739,1,1
6,1,1,669.7674419,243.551797,-426.2156448,2,-1,2.070682865,3.487788958,1,1
6,2,1,669.7674419,365.3276956,-304.4397463,2,-1,1.568493844,2.675929528,1,1
6,3,1,669.7674419,365.3276956,-304.4397463,2,1,1.601913387,2.326861123,1,1
6,4,1,466.807611,202.9598309,-263.8477801,3,1,1.503045921,4.214700848,1,1
6,5,1,304.4397463,182.6638478,-121.7758985,2,-1,2.215983409,1.796266534,1,1
6,6,1,466.807611,263.8477801,-202.9598309,3,-1,0.374310286,1.951701218,1,1
6,7,1,669.7674419,365.3276956,-304.4397463,2,-1,1.388820452,1.526729874,1,1
6,8,1,669.7674419,365.3276956,-304.4397463,2,1,1.375204484,2.239622773,1,1
6,9,1,304.4397463,202.9598309,-101.4799154,1,-1,1.373194793,1.248840952,1,1
6,10,1,466.807611,263.8477801,-202.9598309,2,1,5.679889193,1.850247615,1,1
6,11,1,466.807611,284.1437632,-182.6638478,2,1,1.181179154,0.985124314,1,1
6,12,1,669.7674419,750.9513742,81.18393235,1,1,1.109170737,0.865095345,1,0
6,13,1,466.807611,527.6955603,60.88794926,2,1,2.583972017,1.197176198,1,0
6,14,1,669.7674419,466.807611,-202.9598309,2,-1,2.860018586,1.282006236,1,1
6,15,1,466.807611,345.0317125,-121.7758985,2,1,1.344749468,3.13202984,1,1
6,16,1,466.807611,345.0317125,-121.7758985,2,-1,1.319284238,17.91679598,1,1
6,17,1,466.807611,284.1437632,-182.6638478,3,-1,1.028219571,1.39531989,1,1
6,18,1,669.7674419,405.9196617,-263.8477801,2,1,1.076202327,1.734984912,1,1
6,19,1,466.807611,223.255814,-243.551797,1,-1,1.42384465,1.36713654,1,1
6,20,1,669.7674419,405.9196617,-263.8477801,2,-1,2.384576317,1.754384638,1,1
6,21,1,669.7674419,365.3276956,-304.4397463,1,1,1.17166254,0.803228072,1,1
6,22,1,304.4397463,202.9598309,-101.4799154,3,-1,1.306471587,0.999216791,1,1
6,23,1,304.4397463,243.551797,-60.88794926,2,-1,1.212083148,1.294028736,1,1
6,24,1,466.807611,345.0317125,-121.7758985,2,-1,0.969119991,1.013431723,1,1
6,25,1,669.7674419,507.3995772,-162.3678647,1,1,1.197218882,0.701304318,1,1
6,26,1,669.7674419,20.29598309,-649.4714588,1,-1,3.311274946,0.997022334,0,1
6,27,1,304.4397463,263.8477801,-40.59196617,2,-1,1.174057906,1.103854891,1,1
6,28,1,669.7674419,304.4397463,-365.3276956,2,1,1.296766419,1.878257773,1,1
6,29,1,304.4397463,223.255814,-81.18393235,1,-1,1.646243338,0.620113751,1,1
6,30,1,669.7674419,365.3276956,-304.4397463,2,1,1.55960969,0.822091819,1,1
6,31,1,466.807611,284.1437632,-182.6638478,2,-1,1.351819162,0.844706843,1,1
6,32,1,466.807611,324.7357294,-142.0718816,2,-1,1.699580836,0.411044428,1,1
6,33,1,669.7674419,405.9196617,-263.8477801,3,-1,1.097856239,1.215649959,1,1
6,34,1,669.7674419,547.9915433,-121.7758985,2,-1,1.09426607,0.881509703,1,1
6,35,1,304.4397463,243.551797,-60.88794926,2,1,1.416744821,1.693921635,1,1
6,36,1,669.7674419,426.2156448,-243.551797,2,-1,1.216886077,0.896093451,1,1
6,37,1,466.807611,345.0317125,-121.7758985,2,-1,1.627882447,1.981757558,1,1
6,38,1,669.7674419,365.3276956,-304.4397463,3,-1,16.4247766,1.322033468,1,1
6,39,1,304.4397463,223.255814,-81.18393235,2,-1,1.064594216,1.110435359,1,1
6,40,1,669.7674419,588.5835095,-81.18393235,2,1,0.439734392,1.968918107,1,1
6,41,1,304.4397463,243.551797,-60.88794926,1,-1,0.882878259,0.899604016,1,1
6,42,1,466.807611,324.7357294,-142.0718816,1,-1,1.497515762,1.373028106,1,1
6,43,1,466.807611,304.4397463,-162.3678647,3,-1,1.465782644,1.773223241,1,1
6,44,1,669.7674419,527.6955603,-142.0718816,2,-1,1.214850163,1.653546432,1,1
6,45,1,466.807611,385.6236786,-81.18393235,1,1,0.761660046,1.219054255,1,1
6,46,1,669.7674419,588.5835095,-81.18393235,2,1,1.411589488,1.407430599,1,1
6,47,1,466.807611,405.9196617,-60.88794926,1,-1,1.066046451,1.118771409,1,1
6,48,1,466.807611,263.8477801,-202.9598309,2,1,1.1749654,1.019744263,1,1
6,49,1,304.4397463,101.4799154,-202.9598309,1,-1,0.429839112,0.953002236,1,0
6,50,1,669.7674419,365.3276956,-304.4397463,3,1,1.790626547,1.547288987,1,1
6,51,1,466.807611,324.7357294,-142.0718816,2,-1,2.959720707,1.272307624,1,1
6,52,1,669.7674419,446.5116279,-223.255814,2,1,2.769044624,1.257996634,1,1
6,53,1,304.4397463,243.551797,-60.88794926,1,-1,1.413211529,0.856772933,1,1
6,54,1,304.4397463,243.551797,-60.88794926,1,1,1.57068775,0.651912936,1,1
6,55,1,466.807611,223.255814,-243.551797,3,-1,0.740394955,0.771698015,1,1
6,56,1,466.807611,284.1437632,-182.6638478,2,1,1.18469075,1.422619455,1,1
6,57,1,669.7674419,345.0317125,-324.7357294,2,1,1.109090344,0.925040373,1,1
6,58,1,669.7674419,304.4397463,-365.3276956,2,-1,1.271365886,1.072425736,1,1
6,59,1,466.807611,324.7357294,-142.0718816,2,-1,1.2497957,2.608894025,1,1
6,60,1,304.4397463,243.551797,-60.88794926,2,-1,2.258311823,1.924735959,1,1
6,61,1,466.807611,263.8477801,-202.9598309,1,1,1.717197717,0.872369396,1,1
6,62,1,466.807611,263.8477801,-202.9598309,2,-1,0.912064896,0.720148944,1,1
6,63,1,669.7674419,365.3276956,-304.4397463,2,-1,1.064108132,1.025587736,1,1
6,64,1,466.807611,304.4397463,-162.3678647,2,-1,1.144375046,1.64656354,1,1
6,65,1,466.807611,223.255814,-243.551797,1,1,1.006309446,0.838536519,1,1
6,66,1,466.807611,243.551797,-223.255814,3,-1,1.29664336,1.439101385,1,1
6,67,1,669.7674419,81.18393235,-588.5835095,1,1,1.05817494,1.124621311,1,0
6,68,1,669.7674419,284.1437632,-385.6236786,3,1,1.210768323,1.270055802,1,1
6,69,1,669.7674419,385.6236786,-284.1437632,1,-1,2.037695298,1.284524522,1,1
6,70,1,466.807611,284.1437632,-182.6638478,2,-1,1.863772993,1.920073248,1,1
6,71,1,669.7674419,324.7357294,-345.0317125,2,-1,1.64017578,1.623112918,1,1
6,72,1,466.807611,345.0317125,-121.7758985,2,-1,2.089948993,7.070026149,1,1
6,73,1,304.4397463,243.551797,-60.88794926,1,1,3.080059561,0.971060988,1,1
6,74,1,304.4397463,263.8477801,-40.59196617,2,-1,1.664433742,0.75889857,1,1
6,75,1,466.807611,304.4397463,-162.3678647,1,1,1.363289864,1.419327182,1,1
6,76,1,304.4397463,243.551797,-60.88794926,2,-1,1.253210209,1.043509223,1,1
6,77,1,304.4397463,223.255814,-81.18393235,2,1,1.234678275,1.139808424,1,1
6,78,1,669.7674419,304.4397463,-365.3276956,1,1,0.979022519,0.64419622,1,1
6,79,1,304.4397463,243.551797,-60.88794926,3,-1,1.008709756,0.919776379,1,1
6,80,1,669.7674419,426.2156448,-243.551797,2,1,1.074317654,1.007841742,1,1
6,81,1,466.807611,345.0317125,-121.7758985,1,-1,0.897746893,1.051886916,1,1
6,82,1,669.7674419,690.0634249,20.29598309,1,1,0.487833138,0.952309482,1,1
6,83,1,466.807611,304.4397463,-162.3678647,2,-1,0.888297623,0.634528079,1,1
6,84,1,466.807611,466.807611,-6.25E-13,2,-1,2.3199201,1.94948292,1,0
6,85,1,304.4397463,223.255814,-81.18393235,1,-1,0.998725932,0.838613662,1,1
6,86,1,466.807611,385.6236786,-81.18393235,2,1,1.466864134,1.460698183,1,1
6,87,1,669.7674419,365.3276956,-304.4397463,1,1,0.967296646,0.726799279,1,1
6,88,1,304.4397463,223.255814,-81.18393235,3,-1,1.211128744,1.263580385,1,1
6,89,1,466.807611,263.8477801,-202.9598309,2,1,1.048175178,1.118906868,1,1
6,90,1,304.4397463,243.551797,-60.88794926,3,1,0.918381458,1.246734534,1,1
6,91,1,669.7674419,304.4397463,-365.3276956,1,-1,0.857676218,0.720217522,1,1
6,92,1,304.4397463,202.9598309,-101.4799154,2,-1,0.831002929,2.019022851,1,1
6,93,1,466.807611,223.255814,-243.551797,2,-1,1.847079793,0.78666343,1,1
6,94,1,304.4397463,202.9598309,-101.4799154,1,-1,2.820735096,0.880538421,1,1
6,95,1,466.807611,284.1437632,-182.6638478,2,1,1.147650054,1.206112195,1,1
6,96,1,669.7674419,405.9196617,-263.8477801,2,1,1.119470723,1.103347421,1,1
6,97,1,304.4397463,263.8477801,-40.59196617,1,-1,1.210938792,0.861969933,1,1
6,98,1,466.807611,324.7357294,-142.0718816,2,-1,1.39654159,0.707614038,1,1
6,99,1,669.7674419,953.9112051,284.1437632,1,1,0.972063008,0.6844147,1,0
6,100,1,466.807611,405.9196617,-60.88794926,2,-1,0.82944934,0.823860639,1,1
6,101,1,466.807611,466.807611,-6.25E-13,1,1,0.983540939,1.018532445,1,0
6,102,1,466.807611,405.9196617,-60.88794926,3,-1,1.221735088,1.089842633,1,1
6,103,1,304.4397463,284.1437632,-20.29598309,2,1,1.314108774,1.133218299,1,1
6,104,1,466.807611,263.8477801,-202.9598309,1,-1,1.30455448,0.323870881,1,1
6,105,1,669.7674419,385.6236786,-284.1437632,1,-1,0.325801514,1.912132037,1,1
6,106,1,466.807611,385.6236786,-81.18393235,2,1,1.158144855,1.195328619,1,1
6,107,1,466.807611,385.6236786,-81.18393235,2,1,1.103290751,1.343689299,1,1
6,108,1,466.807611,324.7357294,-142.0718816,2,-1,1.0334944,1.802125481,1,1
6,109,1,304.4397463,243.551797,-60.88794926,1,-1,1.775120128,1.45484438,1,1
6,110,1,466.807611,345.0317125,-121.7758985,1,-1,2.463298851,0.840269255,1,1
6,111,1,669.7674419,446.5116279,-223.255814,2,1,1.553789014,1.07408882,1,1
6,112,1,304.4397463,202.9598309,-101.4799154,1,-1,5.687361146,0.95439548,1,1
6,113,1,669.7674419,446.5116279,-223.255814,1,1,1.724732195,1.777731811,1,1
6,114,1,304.4397463,324.7357294,20.29598309,2,1,1.326753341,1.400921706,1,1
