Subj_idx,Stimulus,Response,Confidence,Awareness,RT_dec,RT_conf,RT_aware,Trial_count,Block_count,Accuracy
ack,1,2,2,1,1.999249244,1.657822762,2.0470489130000002,0,0,0
ack,2,2,3,2,0.76420642,0.740626523,0.811768157,1,0,1
ack,2,1,1,2,4.775741882,0.999290439,1.2588379379999999,2,0,0
ack,1,2,1,1,1.222991073,0.446447615,0.9883297870000001,3,0,0
ack,1,2,2,3,0.7642942009999999,1.5993153880000002,0.9529056570000001,4,0,0
ack,1,2,2,3,0.411299917,0.24635960399999998,0.317822715,5,0,0
ack,2,2,2,3,1.69354296,0.7993860740000001,0.141312676,6,0,1
ack,2,2,1,2,3.563969412,1.611085316,1.035377931,7,0,1
ack,1,2,3,3,0.634838079,0.740477527,0.458901309,8,0,0
ack,2,2,3,3,0.7407216190000001,1.034455463,0.8235631109999999,9,0,1
ack,1,2,1,3,0.834725119,1.105182064,0.08255813,10,0,0
ack,2,1,1,2,3.82283199,1.116911567,0.717780057,11,0,0
ack,1,1,2,3,1.104763566,0.894004039,1.882362317,12,0,1
ack,2,2,1,3,0.7407127640000001,3.034421968,2.741149357,13,0,1
ack,2,2,3,1,3.011098098,0.42288889399999996,0.45897215,14,0,1
ack,2,2,2,1,2.152348403,0.7052451279999999,2.3881700880000003,15,0,1
ack,1,2,3,2,0.8583123309999999,0.587617455,1.564727868,16,0,0
ack,2,2,3,3,1.3523909840000001,0.7517238509999999,0.847100273,17,0,1
ack,1,2,1,1,0.47011375299999997,0.599396238,0.41187934600000004,18,0,0
ack,1,2,3,2,0.63490815,2.046141846,3.1646346210000003,19,0,0
ack,1,2,3,3,0.470113368,0.705083426,2.670536717,20,0,0
ack,2,2,2,3,0.799376449,2.011024562,1.858880981,21,0,1
ack,2,2,1,3,2.058128146,0.893539341,1.400002772,22,0,1
ack,1,2,3,3,1.140662405,1.011086933,5.164477924,23,0,0
ack,1,2,3,1,8.022504583,0.34752724100000004,0.38837259999999996,24,0,0
ack,1,2,1,1,2.634743754,0.481613794,0.458928644,25,0,0
ack,1,2,2,1,1.222984913,1.246365379,0.35307244,26,0,0
ack,2,2,3,3,1.481847491,0.681620955,0.36482504299999996,27,0,1
ack,2,2,2,2,0.47011914299999996,0.858146395,0.752999366,28,0,1
ack,2,2,1,3,1.587769531,1.222705016,0.447154481,29,0,1
ack,1,1,3,2,0.423043665,1.105160119,0.31781617,30,0,1
ack,1,2,2,3,1.587711011,0.9050721070000001,0.8471241429999999,31,0,0
ack,1,1,1,2,3.8816311960000003,0.575795166,0.447152171,32,0,1
ack,1,2,3,2,0.43548080299999997,4.269690019,1.658162334,33,0,0
ack,2,2,1,1,1.634581667,1.211116424,0.6825746079999999,34,0,1
ack,2,2,2,1,0.623060451,0.375777995,0.35305011,35,0,1
ack,2,2,2,3,0.952378587,1.516997115,0.5413277679999999,36,0,1
ack,2,2,3,1,0.670105514,1.44637485,1.9764863240000001,37,0,1
ack,2,2,1,1,1.128885932,1.116929662,0.34133100200000005,38,0,1
ack,1,2,2,3,0.681727601,0.764167535,0.388324474,39,0,0
ack,2,2,3,3,0.6700858789999999,0.705206242,0.8471295329999999,40,0,1
ack,1,2,2,2,0.528920659,1.446332884,0.329499473,41,0,0
ack,2,2,1,2,1.317129325,0.458174423,1.69414395,42,0,1
ack,1,2,1,3,0.5525841020000001,2.70492057,0.38837414,43,0,0
ack,1,2,3,3,1.106003661,1.398635626,7.423114505,44,0,0
ack,2,2,2,3,2.7052959480000003,1.140431404,0.38834796,45,0,1
ack,1,1,3,1,3.3996139189999997,0.9756389320000001,0.552862844,46,0,1
ack,2,2,2,1,1.55235695,0.34051749,0.753088302,47,0,1
ack,1,2,3,2,0.623089326,1.23453847,0.611881887,48,0,0
ack,2,1,1,2,3.364040407,0.916965237,0.5765478470000001,49,0,0
ack,1,2,1,1,0.952218426,3.869490125,0.329537973,0,1,0
ack,2,2,2,2,0.740601883,0.811087472,0.9295228809999999,1,1,1
ack,2,2,3,3,0.72889009,0.952233056,0.553077676,2,1,1
ack,1,2,2,2,0.717157507,0.6934197590000001,3.6704620269999997,3,1,0
ack,2,2,3,3,0.5759807379999999,0.810500727,0.411912071,4,1,1
ack,1,2,3,3,0.199539382,0.24646817399999998,0.8588790559999999,5,1,0
ack,1,2,2,2,0.775961718,0.516987875,0.329574549,6,1,0
ack,2,1,2,1,1.81153061,1.598837599,1.0118272940000002,7,1,0
ack,1,2,1,2,1.046409423,0.646348131,2.62357366,8,1,0
ack,2,2,3,2,1.5759222169999998,0.8579846940000001,0.764782,9,1,1
ack,1,2,2,3,0.8113061540000001,4.9636788119999995,0.741194403,10,1,0
ack,2,2,3,1,2.5405762419999998,0.7640628140000001,0.470712818,11,1,1
ack,2,1,3,1,1.023000852,0.82288435,3.799855778,12,1,0
ack,1,1,2,1,1.093620422,1.563949007,0.564806794,13,1,1
ack,2,2,1,1,2.5758602319999997,0.44635175,1.552943695,14,1,1
ack,2,1,1,2,0.552443961,0.6111049510000001,1.282345454,15,1,0
ack,1,1,3,3,0.823057987,1.046390558,2.612310781,16,1,1
ack,2,1,1,3,2.846452312,3.999040957,2.9998991289999997,17,1,0
ack,1,1,3,2,3.258116827,0.622851779,3.0352027539999997,18,1,1
ack,1,2,1,3,1.9874689209999998,2.446346745,0.553109246,19,1,0
ack,1,2,2,1,2.199543617,0.387375057,0.341284031,20,1,0
ack,2,1,3,2,1.35247376,1.5520762830000001,0.7177107559999999,21,1,0
ack,1,1,3,3,1.152230977,0.364053497,1.1530691290000001,22,1,1
ack,1,1,3,3,0.540691358,4.257881975,4.164544915,23,1,1
ack,1,2,3,2,2.846403417,0.905221873,3.8586923289999997,24,1,0
ack,2,2,3,1,1.5052864769999998,2.457997707,0.211905295,25,1,1
ack,2,2,1,1,3.505122081,0.764003524,0.35312788,26,1,1
ack,2,2,3,2,1.093611952,0.999301604,0.65891078,27,1,1
ack,2,1,3,2,0.470107593,5.093206544,1.423578819,28,1,0
ack,1,1,2,2,1.0230208729999999,3.8108711000000004,1.6705736780000002,29,1,1
ack,1,2,1,2,0.587791861,2.681467339,3.011652887,30,1,0
ack,1,1,3,3,6.587281347,1.728695664,0.823630871,31,1,1
ack,1,2,1,1,1.8817497769999998,0.458177503,0.36483774799999996,32,1,0
ack,2,2,3,1,2.2463738490000003,0.646353136,1.023676533,33,1,1
ack,2,2,2,2,1.340652241,0.39936366700000003,2.870525783,34,1,1
ack,2,2,1,3,1.270081182,1.058060385,0.623617935,35,1,1
ack,2,2,3,1,2.975804868,0.8346408040000001,0.47068586799999995,36,1,1
ack,2,1,2,2,1.0936081020000001,1.2819981809999998,4.635098726,37,1,0
ack,1,2,2,3,1.352402535,3.516770733,4.576279885,38,1,0
ack,1,1,3,2,1.352417935,1.822758839,0.788331481,39,1,1
ack,2,1,3,2,0.787869478,3.245894135,2.011762613,40,1,0
ack,2,1,1,2,0.881851418,2.728575928,0.423640419,41,1,0
ack,1,1,3,2,2.387601054,0.622964585,0.447171036,42,1,1
ack,1,2,2,1,6.599075531,2.258047141,0.447172576,43,1,0
ack,2,2,3,1,0.8934915999999999,0.351795385,0.341230131,44,1,1
ack,2,2,1,1,3.3522874189999996,1.98740116,0.376572256,45,1,1
ack,1,1,3,3,1.211281205,0.5875681739999999,0.376584191,46,1,1
ack,1,2,2,3,3.59895849,4.7747993939999995,1.294478055,47,1,0
ack,1,1,3,1,2.164142972,0.740452117,0.635385939,48,1,1
ack,2,1,3,1,1.564258935,0.458009257,0.42363425899999996,49,1,0
ack,2,2,2,1,0.9875767209999999,1.0463870929999999,0.38829136399999997,0,2,1
ack,2,1,3,1,2.952265011,0.445857791,1.058903927,1,2,0
ack,2,2,2,3,1.434599916,1.4814370780000001,0.506199704,2,2,1
ack,1,2,3,1,1.6112150619999999,0.552273405,0.329535278,3,2,0
ack,1,2,2,2,0.623061606,2.5638627659999997,0.376584191,4,2,0
ack,1,2,1,1,3.199351886,0.846370692,2.305857205,5,2,0
ack,1,2,3,3,0.83480289,3.116761416,0.435410733,6,2,0
ack,2,2,3,3,0.3524445,0.26991409,0.8942227209999999,7,2,1
ack,2,2,2,2,1.434795113,1.305083734,0.6000699939999999,8,2,1
ack,1,1,3,2,0.588429426,1.128532499,1.03472843,9,2,1
ack,2,2,3,1,2.599363513,2.893278309,0.45896445,10,2,1
ack,2,2,1,3,0.352325149,1.270024971,6.940834271,11,2,1
ack,2,2,2,2,1.199464307,0.575790161,0.5883512710000001,12,2,1
ack,1,1,3,1,1.187738269,0.634614392,0.341299047,13,2,1
ack,1,2,1,1,1.151471366,2.541324688,0.376572256,14,2,0
ack,1,2,2,1,1.670166344,0.457955357,0.35280332299999995,15,2,0
ack,2,1,2,2,0.740705834,0.681492364,0.45870919299999996,16,2,0
ack,1,1,1,2,1.328829183,1.210980903,1.17655162,17,2,1
ack,1,2,3,1,4.128653775,1.5169158790000001,0.505989878,18,2,0
ack,2,2,3,1,4.7519702530000005,1.364095847,0.44718797600000004,19,2,1
ack,2,2,2,1,3.1527118460000003,2.2700784869999997,0.340812403,20,2,1
ack,1,1,2,1,1.5043158840000002,0.49439974600000003,0.364867008,21,2,1
ack,1,2,1,1,0.9877126279999999,0.598732878,0.329563383,22,2,0
ack,1,2,3,1,0.35242833,2.8580524539999996,0.329556453,23,2,0
ack,2,1,3,2,2.7993414139999997,1.5122608069999999,0.34130366700000003,24,2,0
ack,2,2,3,3,2.022948492,1.152211342,0.47069780299999997,25,2,1
ack,1,2,2,3,0.999587277,1.0109275420000001,0.329537973,26,2,0
ack,2,2,1,1,5.822607917999999,4.152006905,0.36487432299999994,27,2,1
ack,1,2,1,1,1.293570603,0.952236906,0.31777074,28,2,0
ack,2,2,2,1,1.9170876680000002,0.552236059,2.141136344,29,2,1
ack,1,2,1,2,1.599494414,4.293269531,0.44703436,30,2,0
ack,1,2,2,2,1.105356855,2.058083486,0.470712818,31,2,0
ack,2,2,3,2,3.6000684539999996,0.693463264,1.9521964809999999,32,2,1
ack,1,2,2,1,1.528788988,0.9757259429999999,0.364933999,33,2,0
ack,2,2,3,1,0.7170812759999999,0.6699545929999999,0.47071127799999996,34,2,1
ack,2,2,3,1,0.693672321,0.599304222,0.317763425,35,2,1
ack,1,2,1,1,1.35242987,0.493412213,0.341263241,36,2,0
ack,2,2,1,1,1.046546099,0.58758242,0.317780365,37,2,1
ack,1,2,1,2,0.76423029,2.222720801,1.705915418,38,2,0
ack,2,1,2,2,2.092902777,0.6116662860000001,0.423698555,39,2,0
ack,1,2,1,2,2.317034999,1.8698146830000002,9.446477646,40,2,0
ack,2,2,3,3,0.846572048,0.540493081,0.49426461,41,2,1
ack,2,2,3,3,0.65821508,0.5522668589999999,0.458925949,42,2,1
ack,2,2,2,3,0.63489044,2.446131143,0.38838569,43,2,1
ack,1,2,2,1,1.787402854,2.328599336,0.623883202,44,2,0
ack,1,2,3,3,1.4935612090000001,1.046350903,7.117243055,45,2,0
ack,1,2,3,2,1.0348119759999999,2.84619744,0.847132998,46,2,0
ack,2,2,1,1,1.422941639,1.540458046,0.38836259,47,2,1
ack,1,2,2,2,1.1524169340000001,0.740522572,0.023639572,48,2,0
ack,2,2,2,2,1.3288441979999999,0.64626805,1.9294947759999999,49,2,1
ack,1,1,3,2,1.4933475319999998,2.057826304,0.388356045,0,3,1
ack,1,2,2,1,4.528649232,1.316968779,0.517754801,1,3,0
ack,2,2,3,1,3.587503494,2.163921595,0.494215329,2,3,1
ack,2,2,3,2,0.6465633470000001,2.104146791,0.317785755,3,3,1
ack,2,1,2,2,0.422945874,1.658108049,2.682353231,4,3,0
ack,2,1,3,2,0.52897225,0.658083024,0.25887682300000003,5,3,0
ack,1,1,3,3,0.528923354,0.399331712,0.411817361,6,3,1
ack,2,1,1,2,0.881871053,0.552248764,4.858567203,7,3,0
ack,1,2,2,1,1.8111556169999998,4.5755033339999995,0.38836567,8,3,0
ack,1,2,1,1,0.8112526379999999,0.281697879,0.776564633,9,3,0
ack,2,2,1,1,1.787740502,0.775720706,0.400107878,10,3,1
ack,1,1,3,2,0.834275436,1.011751063,8.975778303,11,3,1
ack,1,2,3,1,1.210976283,0.446243179,0.329842511,12,3,0
ack,1,2,1,1,4.36377745,0.411088935,0.353204881,13,3,0
ack,2,2,3,1,0.905300799,0.599318468,0.38844498,14,3,1
ack,2,1,2,1,0.987762678,0.787496025,0.317741865,15,3,0
ack,1,1,2,2,0.952424018,0.775769987,4.141020843,16,3,1
ack,2,2,2,3,1.351740714,1.44699047,0.411885121,17,3,1
ack,1,1,2,2,0.5643625,1.75218778,4.493781816,18,3,1
ack,2,1,3,2,1.305324361,0.658148089,7.7878278970000006,19,3,0
ack,2,1,3,1,2.234697476,3.7167555639999996,0.364833898,20,3,0
ack,1,2,1,3,0.964114635,1.234560415,1.176622846,21,3,0
ack,2,2,2,2,0.7760244740000001,0.82279888,0.36483235799999997,22,3,1
ack,1,2,3,2,0.39948840799999996,0.7993240890000001,0.611915767,23,3,0
ack,1,1,3,3,0.97603741,0.6933362129999999,1.764727329,24,3,1
ack,2,2,3,3,0.752471142,0.599291517,2.2234761769999998,25,3,1
ack,1,2,3,2,0.9994717759999999,0.9522557709999999,1.141230285,26,3,0
ack,2,2,3,2,0.658335586,0.622866024,1.411734585,27,3,1
ack,2,2,1,2,1.164226132,0.975754818,1.5882889,28,3,1
ack,1,2,3,1,0.834658514,0.7522694000000001,0.059061777999999995,29,3,0
ack,1,2,3,1,0.823057987,0.34044742,1.5059267369999998,30,3,0
ack,1,1,2,3,1.552373505,0.975780228,0.8942115559999999,31,3,1
ack,1,1,2,2,1.164279263,2.199100864,0.670675703,32,3,1
ack,2,1,1,1,3.5404738310000003,0.375800325,0.42364581,33,3,0
ack,2,2,1,1,0.68220616,0.9753309290000001,0.34135718200000004,34,3,1
ack,1,2,2,3,0.634831149,1.5521759990000001,0.835401955,35,3,0
ack,2,1,1,2,0.775913593,1.222774702,0.353075905,36,3,0
ack,2,2,3,3,0.8818290879999999,0.51697825,0.37659843600000004,37,3,1
ack,2,1,2,2,0.693748936,1.222707711,3.57632955,38,3,0
ack,1,2,3,3,0.9170430070000001,0.775790007,1.9409909669999998,39,3,0
ack,2,2,3,3,0.6936384409999999,0.6228286789999999,0.258958444,40,3,1
ack,1,1,1,2,0.881822928,2.834450997,1.7059235030000002,41,3,1
ack,2,2,2,1,2.293504382,0.328778362,0.341286341,42,3,1
ack,1,2,2,3,0.940498548,1.046368613,0.32965231899999997,43,3,0
ack,1,2,3,1,0.893544731,0.375828045,0.306065107,44,3,0
ack,2,2,3,2,0.49404169299999995,0.44640334,0.376139513,45,3,1
ack,1,2,1,1,1.470032517,0.96400876,0.329545673,46,3,0
ack,2,2,1,2,1.24658175,2.175666113,3.588091779,47,3,1
ack,1,1,3,2,4.457911081000001,2.128618355,4.1058327189999995,48,3,1
ack,2,2,3,3,0.599556014,0.6923887209999999,1.6118322219999999,49,3,1
ack,1,2,3,3,0.293416217,0.25792394,0.270748392,0,4,0
ack,1,2,2,1,2.822856245,0.24636614899999998,0.106043316,1,4,0
ack,1,2,1,2,0.49358084399999996,0.881663152,1.517694355,2,4,0
ack,2,2,1,1,1.17593985,1.740478297,0.28246365,3,4,1
ack,2,2,3,2,0.6465887570000001,0.8463306509999999,0.306020447,4,4,1
ack,2,2,1,3,0.752687129,0.693180287,0.317755725,5,4,1
ack,1,1,3,2,0.564239299,1.081615642,4.446848789,6,4,1
ack,2,1,1,1,1.046578824,0.211139524,0.8352945390000001,7,4,0
ack,2,2,2,2,0.975993135,0.45794226600000004,0.9294662859999999,8,4,1
ack,1,1,2,1,1.517073345,0.387588349,0.30601043699999997,9,4,1
ack,1,1,3,1,0.940649854,0.964003755,0.329523343,10,4,1
ack,2,1,1,1,0.775937078,0.21111950399999999,0.29426707399999996,11,4,0
ack,2,2,3,2,0.7758273520000001,1.187512272,0.223636723,12,4,1
ack,1,2,2,2,0.905392045,0.269922175,0.070743541,13,4,0
ack,2,2,2,1,1.7876350109999999,1.78747947,0.5412973520000001,14,4,1
ack,2,2,2,2,0.9288233309999999,1.399418337,0.43542767299999996,15,4,1
ack,1,2,1,2,0.728827335,0.928718995,0.0119555,16,4,0
ack,1,2,3,1,2.9875628610000002,1.6580618480000002,0.306016982,17,4,0
ack,1,2,1,1,1.023017408,0.36401114700000003,0.341307517,18,4,0
ack,2,1,1,1,1.364208268,0.881769797,0.317710294,19,4,0
ack,1,2,1,2,0.44651460600000004,1.9757632880000002,1.553031861,20,4,0
ack,2,2,2,1,0.870064935,0.705231267,0.270645211,21,4,1
ack,2,2,3,1,0.564243919,1.293499762,0.435372618,22,4,1
ack,1,2,1,1,0.94070876,0.38752982799999997,0.117788604,23,4,0
ack,1,1,3,3,1.22251752,0.611110726,0.40055640600000003,24,4,1
ack,2,2,1,2,0.693601865,4.163766824,0.458947509,25,4,1
ack,1,2,3,1,1.199465462,3.786663648,0.329523343,26,4,0
ack,2,1,2,2,1.117101759,1.058142006,5.799765687000001,27,4,0
ack,2,1,1,1,0.846549718,0.375804175,0.341237061,28,4,0
ack,1,1,1,1,0.83478518,1.481050535,0.411903986,29,4,1
ack,1,2,2,1,0.917123088,1.046382473,3.235189895,30,4,0
ack,2,2,1,1,2.211161085,0.36397919100000004,1.058953593,31,4,1
ack,2,2,3,2,0.622209594,0.529576705,0.317756495,32,4,1
ack,1,2,3,2,0.59959567,0.399266261,0.164856382,33,4,0
ack,1,2,3,1,1.011227844,0.611108031,0.341926986,34,4,0
ack,2,2,3,1,2.48174508,0.528725463,0.364501255,35,4,1
ack,1,2,3,2,0.9171758329999999,1.787488325,4.88211784,36,4,0
ack,2,2,1,1,0.823061837,0.51700905,0.082485364,37,4,1
ack,2,2,1,1,1.48176048,1.458094728,0.38840263,38,4,1
ack,1,2,2,1,1.3053378359999999,0.575801711,0.329556068,39,4,0
ack,1,2,3,2,0.5406701829999999,0.7171355620000001,0.35305242,40,4,0
ack,2,1,2,3,0.36424368799999995,1.140457199,0.858886756,41,4,0
ack,2,2,3,1,1.705366404,0.44634559,0.447155636,42,4,1
ack,1,2,2,1,1.999427885,1.622935325,0.92936657,43,4,0
ack,1,2,2,1,0.599549084,0.540147348,0.36487432299999994,44,4,0
ack,2,2,1,1,0.458369235,0.387544458,0.317802695,45,4,1
ack,2,2,1,1,1.01136683,0.363895646,0.329524113,46,4,1
ack,2,2,1,1,0.43456411100000003,0.433694774,0.306224498,47,4,1
ack,1,2,1,1,0.564230829,0.469899306,0.353065895,48,4,0
ack,1,1,1,1,0.41128836700000004,0.540494621,0.40012096799999997,49,4,1
ack,2,1,1,1,1.093119148,0.657791961,15.70518545,0,5,0
ack,1,2,1,1,1.117146419,0.705181987,0.682375561,1,5,0
ack,2,2,1,1,0.528969555,0.46988044100000004,0.353056655,2,5,1
ack,1,2,1,1,1.21125541,0.705151572,0.376590351,3,5,0
ack,1,2,1,1,0.622991535,0.44644415,0.364843908,4,5,0
ack,1,2,1,1,0.422830758,0.42284384799999997,0.306189463,5,5,0
ack,2,2,1,1,0.399920381,0.481213006,0.247208535,6,5,1
ack,1,2,2,1,0.517223112,0.49341375299999995,0.8353241840000001,7,5,0
ack,2,2,2,1,0.634802659,0.317012284,0.38832254899999996,8,5,1
ack,2,2,1,1,1.011197429,2.481576449,3.047019653,9,5,1
ack,1,2,2,1,0.623051211,0.43459452600000004,0.917740633,10,5,0
ack,1,2,2,1,0.658296315,1.211072919,1.105974015,11,5,0
ack,1,2,2,2,1.928866451,0.387663424,0.870647444,12,5,0
ack,1,1,2,2,0.552557537,0.481575679,0.682416757,13,5,1
ack,2,1,1,1,0.881856038,1.293379642,0.341252846,14,5,0
ack,2,2,3,1,0.375866931,0.599407018,0.28257607100000004,15,5,1
ack,1,2,1,1,0.552905195,0.281733684,0.46997823200000005,16,5,0
ack,2,2,1,1,0.505324592,0.293437392,0.670758094,17,5,1
ack,2,2,1,1,0.681846952,0.493535414,5.423260036,18,5,1
ack,2,2,1,1,0.79951197,0.49341875799999996,0.411867796,19,5,1
ack,2,2,1,1,0.587730646,0.38754253299999997,0.553082296,20,5,1
ack,1,2,1,1,1.599462844,0.834614623,0.35306397,21,5,0
ack,2,2,3,2,0.7406719540000001,0.42282190299999994,1.647063851,22,5,1
ack,2,2,2,1,1.2701042820000001,2.187367126,1.588258485,23,5,1
ack,2,1,3,1,0.740652318,0.49350307299999996,83.88800107,24,5,0
ack,2,2,3,1,0.681887762,0.680708498,2.858733525,25,5,1
ack,1,2,1,1,0.599489794,0.71696077,0.35306628,26,5,0
ack,1,2,2,2,0.9765502340000001,5.868963441,1.187672433,27,5,0
ack,1,2,2,1,0.458536326,0.411127435,0.352888023,28,5,0
ack,1,2,1,1,0.79953045,0.622841384,1.82349843,29,5,0
ack,2,2,2,2,0.634716033,0.716981946,0.7530536520000001,30,5,1
ack,2,2,1,2,0.5289915,0.646265355,0.517760576,31,5,1
ack,2,2,2,2,0.505374643,0.611230077,0.270695647,32,5,1
ack,1,2,3,2,0.423039045,1.140592335,1.6000307230000002,33,5,0
ack,2,2,2,2,0.658337511,0.7992705729999999,0.505971782,34,5,1
ack,1,1,3,2,0.8935070009999999,0.399364437,1.482448866,35,5,1
ack,1,2,1,1,0.705362939,1.211059444,0.329512948,36,5,0
ack,2,1,3,2,0.893686027,1.563883942,2.329401297,37,5,0
ack,1,1,3,1,0.858323112,0.45816826299999996,0.306000427,38,5,1
ack,1,1,1,1,0.799422649,0.493420298,0.38840956,39,5,1
ack,1,2,1,2,0.6113028429999999,0.5169405189999999,1.011858479,40,5,0
ack,1,2,2,1,0.623097026,0.505067025,0.40011634799999996,41,5,0
ack,2,2,1,1,0.399507658,0.434673837,0.564783694,42,5,1
ack,1,2,2,2,1.3759196759999999,0.669858727,0.08252540400000001,43,5,0
ack,1,1,1,1,0.493633205,1.199318391,0.35304934,44,5,1
ack,2,1,1,1,1.175926375,0.317059639,0.270731067,45,5,0
ack,1,1,3,2,0.6465783620000001,0.646368151,0.270691797,46,5,1
ack,2,1,3,2,0.869917478,0.399462228,2.1529401530000003,47,5,0
ack,2,1,2,1,0.670095119,0.622870644,0.317764965,48,5,0
ack,2,1,1,1,1.375918136,0.658144624,0.35308553,49,5,0
ack,2,2,2,2,1.1051624290000002,0.72882618,2.141140579,0,6,1
ack,1,1,1,1,1.670050459,1.19926988,0.47066777200000004,1,6,1
ack,1,2,3,1,0.5641218729999999,0.940492003,0.38844729,2,6,0
ack,1,2,3,1,0.752463442,0.9992877440000001,0.38832254899999996,3,6,0
ack,1,2,2,2,0.76416099,0.411133595,2.4588166080000002,4,6,0
ack,2,1,2,2,0.5759611020000001,0.599375448,1.58832201,5,6,0
ack,1,2,2,2,0.5759857429999999,0.469982467,0.811847853,6,6,0
ack,2,2,1,1,1.4229978490000001,3.010904056,3.5880987089999996,7,6,1
ack,2,1,2,1,0.717154042,1.905142563,4.917396825,8,6,0
ack,2,2,2,1,1.62297652,0.599307303,0.364803483,9,6,1
ack,1,2,2,1,0.5642381439999999,0.916990262,0.62358444,10,6,0
ack,2,2,3,1,1.5993261680000002,1.0228456959999999,3.717607961,11,6,1
ack,1,2,2,2,0.623072386,0.7404401820000001,0.400135983,12,6,0
ack,2,2,3,2,0.517102991,0.928742095,0.6007537589999999,13,6,1
ack,2,2,1,1,0.79951813,2.9050659469999998,0.353046645,14,6,1
ack,1,1,1,1,1.21122384,0.317042314,0.36478423299999996,15,6,1
ack,2,1,1,1,1.481782811,0.3051796,0.658954671,16,6,0
ack,2,1,2,1,1.681754551,0.399315927,0.553067666,17,6,0
ack,1,2,2,2,0.623012325,0.37583844,1.600015323,18,6,0
ack,1,2,3,1,2.622946875,0.35167102899999997,0.717736167,19,6,0
ack,1,2,3,1,0.634806894,0.352295889,0.317719535,20,6,0
ack,1,2,1,1,0.7880365690000001,0.916619889,0.388334484,21,6,0
ack,1,2,1,1,1.8111825680000002,0.434632257,0.705985103,22,6,0
ack,2,1,1,1,1.3280826620000001,0.588275425,0.48248467100000003,23,6,0
ack,1,2,1,1,0.5759761170000001,0.422893129,0.529522034,24,6,0
ack,2,2,2,1,0.705408369,0.340471675,4.011617082,25,6,1
ack,2,2,2,1,0.31714819,0.293481282,0.306013902,26,6,1
ack,2,2,1,1,0.870026819,1.1640101459999999,0.29427207899999996,27,6,1
ack,2,2,1,1,0.764180625,0.352315139,0.25896845399999996,28,6,1
ack,1,2,1,1,1.328903488,0.293412367,2.529349168,29,6,0
ack,2,2,1,1,0.717213718,0.316914108,0.35304626,30,6,1
ack,1,2,1,1,0.5760939279999999,0.293319581,0.35308784,31,6,0
ack,1,1,3,2,1.164263478,0.705136172,0.541244992,32,6,1
ack,1,1,3,1,0.834759,0.422169323,0.35309323,33,6,1
ack,2,1,3,1,0.8231561629999999,1.340495545,2.329224966,34,6,0
ack,2,2,3,2,0.917124243,0.693447479,1.317695279,35,6,1
ack,1,2,1,1,0.6230304210000001,0.352224663,1.905895629,36,6,0
ack,1,1,1,1,0.846390712,0.258189977,0.035542327,37,6,1
ack,2,1,3,2,0.657965213,0.964044565,0.30630457899999997,38,6,0
ack,2,1,2,2,0.7053706390000001,0.5640972329999999,5.835011562,39,6,0
ack,1,1,3,2,2.834612313,0.387581804,7.6583848660000005,40,6,1
ack,1,2,3,3,0.9759180590000001,0.669911087,1.388312924,41,6,0
ack,2,2,1,1,0.79954277,0.552234904,0.470668542,42,6,1
ack,2,2,1,1,0.822973286,0.575848681,0.364856998,43,6,1
ack,1,2,2,1,0.7760140790000001,1.128669175,0.282478665,44,6,0
ack,2,2,1,1,0.776158455,0.246313788,0.28250446,45,6,1
ack,1,1,1,1,0.399510738,0.23464319100000003,0.270746082,46,6,1
ack,2,2,1,1,0.6936342059999999,0.269930261,0.329553373,47,6,1
ack,1,1,1,1,0.47022771399999996,0.35207990200000006,0.42365119999999995,48,6,1
ack,2,2,3,1,2.305248901,0.434910614,1.6824129069999998,49,6,1
ack,2,2,2,2,0.6219058270000001,0.823494195,1.729436024,0,7,1
ack,1,2,1,1,1.0230366579999999,0.646362761,0.58830892,1,7,0
ack,2,2,1,1,0.576018853,0.364065432,0.364806563,2,7,1
ack,1,2,1,1,0.38775236,0.446428365,0.317760345,3,7,0
ack,2,2,1,1,0.375951631,0.31698995399999996,0.34134909700000005,4,7,1
ack,1,2,1,1,0.44635483,0.35231706399999996,0.012107191000000002,5,7,0
ack,2,2,1,1,0.270090422,0.317043084,0.28241822,6,7,1
ack,2,2,1,1,0.246545175,0.23467822600000002,0.341277486,7,7,1
ack,1,1,1,1,0.76421181,0.7169634659999999,0.317774205,8,7,1
ack,1,2,2,1,0.446574666,0.787660806,0.387959107,9,7,0
ack,2,2,1,1,0.670144014,0.54041146,0.411878961,10,7,1
ack,1,2,1,1,0.540815329,0.410957649,0.353069745,11,7,0
ack,2,2,1,1,0.764127495,0.270035366,80.95886897,12,7,1
ack,1,1,2,1,1.940477758,0.846541248,2.17660398,13,7,1
ack,1,1,1,1,1.128890167,0.258214233,4.764500947,14,7,1
ack,2,1,1,1,0.39950611799999997,0.258204223,0.211873725,15,7,0
ack,1,2,3,1,57.18354289,7.48110944,0.400100178,16,7,0
ack,1,2,2,2,0.6583367410000001,0.481701575,0.294231268,17,7,0
ack,2,2,3,1,0.5524428060000001,0.42284692799999996,4.740971486,18,7,1
ack,2,2,1,1,0.752359491,0.75226401,0.552822804,19,7,1
ack,1,2,1,2,0.47005792799999996,0.764023929,1.482402665,20,7,0
ack,2,2,3,1,0.670068554,0.775780767,1.047152479,21,7,1
ack,1,2,3,2,0.846523538,0.799306379,5.764446662,22,7,0
ack,2,2,3,3,0.39951920799999996,0.37580456,0.364833898,23,7,1
ack,2,2,3,2,0.576004608,0.48169888,0.682374791,24,7,1
ack,2,2,1,2,0.493677095,1.505029295,0.411865486,25,7,1
ack,1,2,3,2,0.752421862,0.575811721,0.48247697100000003,26,7,0
ack,1,1,2,2,0.540731783,0.41099691899999996,1.023623787,27,7,1
ack,2,2,1,1,2.682717444,1.7051573469999999,0.293255671,28,7,1
ack,1,2,2,1,0.94067642,1.963920594,7.870128075,29,7,0
ack,2,2,1,1,0.517127631,0.399349037,0.36483813299999995,30,7,1
ack,2,2,1,1,0.552452046,0.399590819,0.376590351,31,7,1
ack,1,2,1,1,0.41123369600000004,0.340511715,0.329613434,32,7,0
ack,2,2,1,1,0.36423059799999996,0.317012284,0.305966546,33,7,1
ack,1,2,1,1,0.305372102,0.258230403,0.329539513,34,7,0
ack,2,1,2,1,0.446304779,0.376039027,0.40012674299999995,35,7,0
ack,1,2,1,1,0.31709429,0.38751481299999996,0.42371049,36,7,0
ack,1,2,1,1,0.9994925659999999,0.375761055,0.376586886,37,7,0
ack,2,2,1,1,0.328947379,0.305244666,0.353038175,38,7,1
ack,1,2,1,1,0.28184418,0.28173175899999997,0.482454256,39,7,0
ack,1,2,3,1,0.5760315579999999,1.210996303,0.423626944,40,7,0
ack,2,2,2,2,0.49369981,0.705140407,0.353066665,41,7,1
ack,2,1,1,3,0.7759555579999999,0.998887726,0.388367595,42,7,0
ack,2,2,2,3,0.846590143,1.293345376,1.223569348,43,7,1
ack,1,2,3,3,0.505436628,0.622843694,0.40009132299999994,44,7,0
ack,2,1,2,1,1.034498584,0.7520807490000001,0.494467891,45,7,0
ack,1,2,1,2,0.787715862,0.622855244,0.305982716,46,7,0
ack,2,2,1,2,1.3648050230000002,0.340556376,1.8698262330000002,47,7,1
ack,1,1,2,2,0.599509429,0.528725848,0.31778075,48,7,1
ack,1,2,2,1,0.728859675,0.35238097399999996,0.306037387,49,7,0
ack,2,1,1,1,2.834440217,0.21108523899999998,6.25849182,0,8,0
ack,2,2,3,2,0.47011182799999995,1.8346431140000001,0.305966161,1,8,1
ack,2,2,3,2,0.552474761,0.293484362,0.741247918,2,8,1
ack,1,2,3,1,1.599432814,0.39935327200000004,0.3177538,3,8,0
ack,2,1,2,1,0.670112829,0.611057596,0.317794225,4,8,0
ack,1,2,3,1,1.62297113,1.4463332690000001,0.505967932,5,8,0
ack,1,2,3,1,0.787755517,0.528714683,0.376592661,6,8,0
ack,2,2,2,2,0.611268577,0.646387786,19.46929023,7,8,1
ack,1,2,3,1,2.234650891,0.469920096,0.317804235,8,8,0
ack,1,1,2,1,0.52894607,0.422908529,0.62362294,9,8,1
ack,1,1,1,1,0.505387733,0.599296907,0.32956646300000003,10,8,1
ack,1,2,1,1,1.2230114779999999,0.728718764,0.517781366,11,8,0
ack,2,2,2,2,0.43481051299999995,0.552290345,1.800012474,12,8,1
ack,1,1,2,2,0.811268038,0.599323088,1.011846159,13,8,1
ack,2,2,1,3,2.199006153,1.281608943,0.376922224,14,8,1
ack,1,2,2,2,0.5398335710000001,0.541486774,0.741223663,15,8,0
ack,2,1,3,1,0.493461493,0.45816402799999995,0.259100895,16,8,0
ack,2,2,1,1,0.775974038,0.317088515,0.800092555,17,8,1
ack,2,2,1,1,0.517305502,0.281732529,0.9528844809999999,18,8,1
ack,1,2,1,2,0.634745679,0.516962465,0.294314814,19,8,0
ack,2,2,1,2,0.42304328,0.42291391899999997,0.494206859,20,8,1
ack,1,1,3,2,1.17597296,0.49348305299999995,0.376555701,21,8,1
ack,1,2,3,2,0.481905242,0.44636869,0.294211248,22,8,0
ack,1,2,3,2,0.42288311799999995,0.38759489399999997,0.259127075,23,8,0
ack,2,1,3,1,0.47016264799999996,0.37576837,0.30597540100000004,24,8,0
ack,1,2,2,1,0.410705857,0.2938659,1.7882229109999999,25,8,0
ack,1,2,2,1,0.38865249700000004,0.38757140799999995,0.88151223,26,8,0
ack,2,2,3,1,0.528929514,0.669921097,0.482448096,27,8,1
ack,2,2,2,2,0.5289214289999999,0.44640257,0.517754416,28,8,1
ack,2,2,3,1,1.1053326,0.39940986700000003,0.294254753,29,8,1
ack,2,2,2,2,0.352470295,0.716992726,0.35305165,30,8,1
ack,1,1,3,2,2.364226363,0.375684824,0.353062815,31,8,1
ack,2,2,1,1,0.469161255,0.37673549799999995,0.541305053,32,8,1
ack,2,1,3,2,0.9877434279999999,0.39941448700000004,0.5648094889999999,33,8,0
ack,1,1,3,1,1.0700232,0.364017692,0.364851608,34,8,1
ack,1,2,2,2,2.611075691,3.4110123189999997,0.647213617,35,8,0
ack,2,2,1,3,0.740663098,0.658187359,1.9882381569999998,36,8,1
ack,1,2,2,1,1.011221299,0.43459953100000004,0.44722147100000004,37,8,0
ack,2,1,1,1,41.38469659,0.799208203,193.4796949,38,8,0
ack,1,1,3,3,2.89346927,0.246384629,0.329500243,39,8,1
ack,1,2,3,3,0.623059296,0.258427139,0.305982331,40,8,0
ack,1,1,2,1,5.210927773,0.564379441,0.294234733,41,8,1
ack,1,2,3,2,0.881846028,0.552230669,0.047210614000000005,42,8,0
ack,2,2,2,1,3.34050132,1.117049398,0.76480433,43,8,1
ack,2,2,2,2,6.23452307,1.1755956570000001,0.153009838,44,8,1
ack,2,1,1,1,3.199294905,0.42295010899999996,0.411922467,45,8,0
ack,1,2,2,2,1.340597571,0.846367997,0.353089765,46,8,0
ack,2,2,2,2,0.8583073259999999,0.293458182,1.5647155480000001,47,8,1
ack,2,1,3,2,0.481831706,0.564033708,1.4942033940000001,48,8,0
ack,1,2,3,2,0.651580322,0.434655357,1.277316159,49,8,0
ack,1,1,2,2,0.45813091799999994,0.657909772,1.400014707,0,9,1
ack,1,2,3,2,1.481822081,0.49343107799999997,5.705635136000001,1,9,0
ack,1,2,3,2,0.423002084,0.528763578,1.17655855,2,9,0
ack,2,1,3,2,0.328920428,0.222960658,12.97560621,3,9,0
ack,2,1,3,3,0.776078374,1.363974571,0.447000865,4,9,0
ack,2,2,2,3,2.258227708,0.599329248,0.435403418,5,9,1
ack,2,2,3,1,0.5995086589999999,0.505213711,0.294186608,6,9,1
ack,1,1,2,2,0.79946346,0.39935327200000004,2.000011935,7,9,1
ack,2,2,3,2,0.564230444,0.34050671,2.105870065,8,9,1
ack,1,2,1,3,0.587840757,0.516823478,0.3177846,9,9,0
ack,2,2,2,3,0.44659930700000006,0.646402801,0.364823503,10,9,1
ack,2,2,2,3,0.41128259100000003,0.564053343,0.435400338,11,9,1
ack,1,2,3,2,0.44660200200000005,1.034700325,0.776560783,12,9,0
ack,2,1,2,2,0.48192410700000005,0.434666137,1.282352384,13,9,0
ack,1,2,2,1,0.575848296,0.623083551,0.294265149,14,9,0
ack,1,2,3,2,0.458316489,0.387601439,1.058923562,15,9,0
ack,1,2,3,1,0.576008458,0.37578531,0.494249979,16,9,0
ack,1,1,2,1,0.481863661,0.446416045,0.45894057899999996,17,9,1
ack,2,2,3,2,0.42306715,0.352277024,1.635286993,18,9,1
ack,2,1,2,2,0.61033687,0.36532554700000003,0.870686715,19,9,0
ack,2,1,3,2,0.764192175,0.646231475,2.352913049,20,9,0
ack,2,1,3,2,0.446632032,0.41097651399999996,0.741272943,21,9,0
ack,1,2,2,2,0.45835884,0.752252845,1.058907777,22,9,0
ack,2,2,1,1,0.376026707,0.22282513699999998,0.329532583,23,9,1
ack,2,2,1,1,1.3053601670000001,0.305233116,5.352658947,24,9,1
ack,2,1,2,2,0.42300862899999997,0.293453562,0.329561073,25,9,0
ack,1,2,1,1,0.446577746,0.305197695,1.494164894,26,9,0
ack,1,2,3,2,0.47009950799999994,0.39932285700000003,0.30597540100000004,27,9,0
ack,1,2,3,2,0.399932316,0.34053289,0.376167618,28,9,0
ack,1,2,3,2,0.44659391600000004,0.43417949299999997,0.69418399,29,9,0
ack,1,2,1,1,1.870016039,1.034449303,0.317805005,30,9,0
ack,1,1,1,1,0.458313409,0.411105875,2.30579676,31,9,1
ack,1,2,3,2,0.505423153,0.41110626,0.317731855,32,9,0
ack,1,2,1,3,0.293637594,0.8228985959999999,0.341276331,33,9,0
ack,2,1,2,2,0.481907167,0.340975259,0.270701037,34,9,0
ack,2,1,2,2,0.41137075700000003,0.269779339,0.317755725,35,9,0
ack,1,2,3,2,0.552444346,0.387591044,1.788244856,36,9,0
ack,2,2,3,2,0.364198643,0.352300509,0.353075905,37,9,1
ack,2,2,3,2,0.211277355,0.23468284600000003,0.36482042299999995,38,9,1
ack,2,2,3,2,0.16421920199999998,0.246466249,0.388320624,39,9,1
ack,2,2,2,1,0.19954862199999998,1.3286332159999998,0.305958076,40,9,1
ack,2,2,3,3,0.587710626,0.316355854,0.37659574100000004,41,9,1
ack,1,2,3,2,0.234918853,0.39922160100000004,0.282498685,42,9,0
ack,1,2,3,2,0.24631571300000002,0.269895995,0.553285578,43,9,0
ack,2,2,3,1,0.258346289,0.26995182100000004,0.36482773799999996,44,9,1
ack,1,2,3,2,2.469953977,0.692457251,0.341314447,45,9,0
ack,2,1,3,2,0.28186112,0.19937421600000002,0.317786525,46,9,0
ack,1,2,2,2,1.011239394,0.25818458699999997,2.646978766,47,9,0
ack,2,1,3,2,0.846525848,0.387601054,0.34131367700000004,48,9,0
ack,1,2,3,2,0.234831457,0.32913141,0.28245826,49,9,0
aj,1,1,1,1,2.74046007254,2.4340493259900002,2.55292520558,0,0,1
aj,1,1,2,3,1.1994796280700002,1.15219646928,2.01177920922,1,0,1
aj,1,1,3,3,0.693640459033,0.893397675266,1.54120567204,2,0,1
aj,2,2,3,3,2.16412198017,1.54048879387,1.9881946104799997,3,0,1
aj,1,1,3,3,0.49361104469800005,0.42290267897600003,0.517780465108,4,0,1
aj,2,2,3,3,0.964206142129,0.48169669893399997,0.50597892563,5,0,1
aj,2,1,3,3,0.434680348183,0.328920028044,0.552991041333,6,0,0
aj,2,1,1,1,2.35232251972,2.3991760136099995,0.870695121571,7,0,0
aj,1,1,2,2,1.08188735311,2.43442355026,1.41178952734,8,0,1
aj,2,1,3,2,0.905487198027,2.23437604072,1.7177093933,9,0,0
aj,1,1,3,3,1.0229408714100001,0.43467226308999996,0.764782724699,10,0,1
aj,2,1,3,3,0.599502266328,0.44637909149,0.553056877083,11,0,0
aj,1,1,3,3,0.587756937491,0.328744466043,0.447161420404,12,0,1
aj,1,1,2,2,0.682088787402,1.09303400012,0.49423167177,13,0,1
aj,1,1,3,3,0.658351341914,0.293492694349,0.458926384466,14,0,1
aj,1,1,2,2,0.47015003236,1.8109871012,1.8705503599200002,15,0,1
aj,2,1,2,1,0.716630611006,0.847073562403,1.52932328164,16,0,0
aj,2,2,2,1,2.59945722082,1.30508402143,3.6939796479,17,0,1
aj,2,2,2,2,1.83473340179,1.2228112789299999,2.42350713586,18,0,1
aj,2,2,2,2,1.43473925385,1.09344710983,0.5412892179909999,19,0,1
aj,1,1,3,3,0.528805450738,0.599281658815,0.764889370915,20,0,1
aj,2,1,1,1,2.32948405947,0.940471391672,1.42288265875,21,0,0
aj,1,1,2,2,0.846571516682,1.21102051958,1.4235825967200002,22,0,1
aj,1,1,3,2,0.611237585053,3.29327093182,1.6823775406900001,23,0,1
aj,2,1,3,2,0.728832940052,0.9404255761489999,2.56477564062,24,0,0
aj,1,1,2,2,0.764193282982,1.10504652201,0.7530470209710001,25,0,1
aj,1,1,2,1,4.17575180769,0.7639811455650001,0.458887499023,26,0,1
aj,2,2,2,1,1.34075390789,2.06920376858,1.12934145385,27,0,1
aj,2,2,1,1,1.27006941244,3.09323458741,4.84686219499,28,0,1
aj,2,2,2,2,2.12881553785,2.02273412406,1.7882964826400003,29,0,1
aj,1,1,2,1,1.04655665551,2.01092218946,0.506027436183,30,0,1
aj,2,2,1,1,1.31714582388,3.71673995225,1.64708418852,31,0,1
aj,1,1,2,1,1.8936806534900001,1.1640280391,2.55270190304,32,0,1
aj,2,1,3,1,1.04655434549,0.940513357149,1.2706692492799998,33,0,0
aj,2,2,2,1,4.69349107733,1.5284735769600002,2.8116893492000004,34,0,1
aj,2,1,2,1,0.811246594155,0.76388681949,2.54115908651,35,0,0
aj,2,2,2,1,1.32887883257,3.69313379326,1.2824804138600001,36,0,1
aj,1,1,1,1,0.9875997786990001,3.6345149503,1.8233172516999998,37,0,1
aj,1,2,2,1,1.28112173338,1.4469862434099998,3.29406057582,38,0,0
aj,1,2,2,1,3.31694331157,2.32855504388,1.08247525481,39,0,0
aj,2,1,1,1,0.9289008548250001,2.09336163886,1.81177944023,40,0,0
aj,2,2,2,1,1.5048550978200002,3.7878194622000003,1.51767497391,41,0,1
aj,1,2,2,1,2.7404827877999995,0.928749163097,2.54116255155,42,0,0
aj,1,1,1,1,0.8935035514730001,0.764020031008,1.00014707168,43,0,1
aj,1,1,1,1,0.658304371378,1.02291084107,0.7648158350759999,44,0,1
aj,1,1,1,1,1.8465387913099998,0.999253861498,1.51767112386,45,0,1
aj,2,2,2,1,0.834824647827,0.9052011397669999,0.811821790709,46,0,1
aj,2,2,2,1,2.50523856219,2.06979706034,0.8236025399510001,47,0,1
aj,2,2,3,1,0.8937830646580001,2.1756890519799996,0.8704818291399999,48,0,1
aj,1,2,2,1,1.97580593931,2.5286198786200003,0.764884750862,49,0,0
aj,1,1,2,1,0.999286971875,2.0694859767900002,0.9412964560729999,0,1,1
aj,1,2,2,1,1.1406259324299999,2.8109312755599998,0.529528488977,1,1,0
aj,2,1,3,1,2.7170425657,4.9284249894,0.835330543592,2,1,0
aj,2,1,1,1,1.8700290639800001,1.84627044325,6.68201486656,3,1,0
aj,1,2,2,1,0.834751111989,1.0110638710700002,2.7764371925,4,1,0
aj,1,2,2,1,0.623059529763,3.17556893061,0.623635881331,5,1,0
aj,2,2,3,1,0.634769438198,1.31694138655,0.341229773313,6,1,1
aj,1,2,2,1,2.89347390614,1.28145091213,0.74120929108,7,1,0
aj,2,1,2,1,2.0935583761000003,1.19929713599,1.07061211462,8,1,0
aj,2,1,2,1,0.634766743167,0.787575369421,1.1527489505700002,9,1,0
aj,1,1,1,1,0.717138816797,0.728643132888,0.0589630368836,10,1,1
aj,1,2,1,1,0.693636608989,1.8815634104099999,0.435418786597,11,1,0
aj,2,2,2,1,1.9641075810099997,2.4814787864500003,0.0824875749458,12,1,1
aj,1,1,2,1,1.1171140995200002,3.0107527875300004,0.0472080829363,13,1,1
aj,2,1,2,1,1.85824831474,0.846350524164,0.058968811949899995,14,1,0
aj,1,2,2,1,1.7877008808500001,1.15218684417,0.5883525392769999,15,1,0
aj,1,2,1,1,0.8465195410899999,0.43463299264300004,0.705990244759,16,1,0
aj,2,2,2,1,0.575968103157,3.41093019755,0.05896765693659999,17,1,1
aj,2,2,3,2,0.846558426534,1.22283514921,1.47059047738,18,1,1
aj,2,2,3,2,1.2230087861799999,0.893378040043,0.858952872768,19,1,1
aj,1,1,3,2,0.5877885078499999,0.940415181031,1.5882728433700002,20,1,1
aj,2,2,3,2,0.717131501714,0.587548650117,1.27068310943,21,1,1
aj,2,1,3,2,0.49358216936899996,0.587548650117,0.953069505227,22,1,0
aj,1,2,2,2,2.37575658175,1.54042873319,1.25896935096,23,1,0
aj,1,1,2,2,0.775923981654,1.03462190452,2.1764887060900002,24,1,1
aj,2,1,2,2,0.564197364029,1.5992362283000001,0.917740347651,25,1,0
aj,1,2,2,2,0.717130731704,2.06982439565,1.5059342651199998,26,1,0
aj,2,2,2,2,0.705373852735,1.06972891456,1.18827946544,27,1,1
aj,1,1,2,1,0.9289420502949999,0.646212923596,0.788187526397,28,1,1
aj,2,1,1,1,0.717132656727,0.975730478449,1.8117925303799998,29,1,0
aj,1,1,1,1,0.8467255184370001,1.7756602536500001,3.04693588483,30,1,1
aj,2,2,2,2,0.728904165863,1.22284592933,0.682448381499,31,1,1
aj,2,2,2,2,0.8112700794230001,0.97577975901,0.353053643046,32,1,1
aj,1,1,2,1,0.846549956437,0.952294491396,0.117813652487,33,1,1
aj,2,2,2,1,0.811228113945,2.64625411907,1.7881474859400002,34,1,1
aj,2,1,1,1,0.787747081378,1.01104654588,0.38837510053400004,35,1,0
aj,1,1,1,1,0.540676676011,0.622835072206,0.494238601849,36,1,1
aj,1,1,1,1,0.471057102696,0.8228648715449999,0.552104761234,37,1,1
aj,1,1,1,1,0.352476136466,0.693435251695,0.553033006811,38,1,1
aj,2,1,1,1,0.23470791449700001,0.917161301053,0.18832143092300002,39,1,0
aj,2,1,1,1,0.24665113559000001,1.6345650008700001,0.44708980958899996,40,1,0
aj,1,1,1,1,0.199520438535,1.4581236503200001,0.353054028051,41,1,1
aj,2,1,1,1,0.211577620927,2.09301936996,0.200121815388,42,1,0
aj,2,1,1,1,0.246603010041,0.752260457008,0.435386061225,43,1,0
aj,2,1,1,1,0.199553548913,0.987483507375,0.8354067744600001,44,1,0
aj,1,1,1,1,0.5406458756600001,0.634631221623,1.83534709878,45,1,1
aj,1,1,1,1,0.211300032764,1.86978073615,0.435396456343,46,1,1
aj,1,1,1,1,0.23482380081700002,0.88160768592,0.988329747018,47,1,1
aj,1,1,1,1,0.305380859815,1.17587385408,1.21185097404,48,1,1
aj,2,1,1,1,0.552408529695,1.3052018327700001,1.4353132953999999,49,1,0
aj,2,1,1,1,0.516889949961,1.37555560946,0.623629336256,0,2,0
aj,1,2,1,1,0.7642156132369999,1.55225529795,0.44719876583000007,1,2,0
aj,1,1,1,1,0.493653010176,1.97575935378,0.353015142608,2,2,1
aj,2,2,1,1,0.446551573455,0.8698900773970001,0.811895326548,3,2,1
aj,1,2,1,1,0.740697620249,0.9522144104829999,1.070645225,4,2,0
aj,1,2,1,1,0.587778112731,1.41098332815,0.894196944374,5,2,0
aj,1,2,1,1,0.629481787945,0.898852417423,0.435431876746,6,2,0
aj,2,2,1,1,0.5406859161159999,2.28152983803,0.0942817993409,7,2,1
aj,2,1,2,1,0.870092974709,0.6933936712209999,0.08247717982750001,8,2,0
aj,2,1,1,1,0.22288404476399998,0.952287946321,0.506118297218,9,2,0
aj,1,2,2,1,0.352452266194,2.38747188024,0.964755543389,10,2,0
aj,2,1,1,1,0.7996783673350001,0.810857739724,1.67060410653,11,2,0
aj,1,2,1,1,1.7171326567299998,1.21105748,0.447159495382,12,2,0
aj,2,2,2,1,0.858302985363,2.35212886251,1.3177198654200002,13,2,1
aj,1,2,1,1,1.1288652034200002,0.905009792586,0.847171738522,14,2,0
aj,2,2,1,1,0.917157836013,1.39926725965,0.435416091566,15,2,1
aj,1,2,1,1,0.8582999053270001,1.9757354835099998,0.305996866834,16,2,0
aj,2,2,1,1,0.752427163908,0.646357300241,1.3177079302799999,17,2,1
aj,1,2,1,1,4.21098933422,1.54043489326,0.9177376526200001,18,2,0
aj,2,2,2,1,0.8230007780940001,1.55221371748,0.20016686090100003,19,2,1
aj,1,2,2,1,2.21140744899,0.775489311701,2.82346470838,20,2,0
aj,2,1,1,1,0.48234774135200004,0.411066489102,0.140783784231,21,2,0
aj,2,2,2,1,2.28175160056,0.905192284666,0.27075010019699997,22,2,1
aj,2,1,1,1,0.610548812204,0.95288200809,1.11773703661,23,2,0
aj,2,2,2,1,1.25833948378,1.24632426687,1.05883906547,24,2,1
aj,1,2,2,1,1.7288325550499999,1.7874594831,0.38836663043799996,25,2,0
aj,1,2,2,1,0.8936255978640001,1.22278432863,1.20004981957,26,2,0
aj,1,1,1,1,0.623044899597,1.01108889636,0.423628412246,27,2,1
aj,1,2,2,1,0.517200648501,0.7287182087440001,0.29419532735599996,28,2,0
aj,2,1,1,1,0.575963868108,0.6934437217910001,1.5294688133,29,2,0
aj,1,1,1,1,0.446556578512,0.916948778632,0.17660921246199998,30,2,1
aj,1,2,1,1,0.5406959262300001,0.834573624967,0.741273971817,31,2,0
aj,2,2,1,1,0.752436019009,0.881796723073,0.235406697459,32,2,1
aj,2,2,1,1,0.681849314673,1.12867116121,1.0941967133700001,33,2,1
aj,2,2,1,1,0.7523393829070001,1.3051837375700002,0.117835212732,34,2,1
aj,2,1,1,1,0.975921440625,0.7993618937279999,2.19998860387,35,2,0
aj,1,1,1,1,0.9171231856190001,0.858151293634,0.105984777696,36,2,1
aj,1,1,1,1,0.44660662908200005,0.716964409809,0.5647956608470001,37,2,1
aj,1,2,1,1,0.552433169976,1.25808961593,0.506007415955,38,2,0
aj,2,1,1,1,0.481694003903,0.634687817268,1.08247602481,39,2,0
aj,1,2,1,1,0.611120928723,0.8112242639,2.71759004194,40,2,0
aj,2,2,1,1,1.25821936241,1.22285940448,0.988347457219,41,2,1
aj,2,1,2,1,0.599536531719,0.775718389311,2.9646546722400005,42,2,0
aj,1,2,2,1,0.95240537266,0.916957633733,0.694247225947,43,2,0
aj,1,2,2,1,0.8230134832379999,0.505223162018,1.3411743326799999,44,2,0
aj,1,1,1,1,0.7055875301700001,1.4463140257499998,0.364651900209,45,2,1
aj,1,1,1,1,0.811268154401,0.928667927171,0.21189601955499998,46,2,1
aj,2,2,1,1,0.670109375897,1.0344448025,0.31774643072,47,2,1
aj,2,1,1,1,0.552410069713,0.7522335067010001,2.68234905037,48,2,0
aj,2,2,1,1,1.07007541851,1.06994413201,0.0119405260621,49,2,1
aj,1,1,2,1,0.9287249078200001,0.822608843628,0.9059726885580001,0,3,1
aj,1,2,2,1,1.17597010518,3.96374259685,1.2117681981,1,3,0
aj,2,2,2,1,0.7171137915119999,0.670241817405,1.14124809952,2,3,1
aj,1,1,1,1,0.599567332069,0.622787716666,0.43539645634199997,3,3,1
aj,1,1,1,1,0.528868591457,0.811080657264,0.153122789834,4,3,1
aj,2,1,1,1,0.575979653288,0.822718184874,2.98820847064,5,3,0
aj,2,1,1,1,0.387776418712,0.61110398853,0.741283596927,6,3,0
aj,1,1,2,1,0.681848544664,0.599305529086,1.6822978447799999,7,3,1
aj,2,1,2,1,0.634786378391,2.30506823625,0.40015084471900003,8,3,0
aj,2,2,1,1,1.08184384761,0.6934052213519999,2.58809035129,9,3,1
aj,2,2,1,1,1.0583239296,0.834593260191,1.67059948648,10,3,1
aj,2,2,1,1,1.64646202143,0.893380350069,48.302527592299995,11,3,1
aj,2,2,1,1,0.469776963108,1.8462927735099999,2.1532332860900003,12,3,1
aj,1,2,1,1,0.728936891236,1.41102914368,1.42355949646,13,3,0
aj,1,1,2,1,0.552478215489,0.493269160802,0.11780210235500001,14,3,1
aj,1,1,1,1,0.705109739726,0.799131661106,4.43538067116,15,3,1
aj,1,1,1,1,0.623012174224,0.528735764944,1.03537843814,16,3,1
aj,2,1,1,1,0.564235479464,0.6699057085760001,0.847145943228,17,3,0
aj,2,1,1,1,0.41124705615999996,3.35209690714,0.506016271055,18,3,0
aj,1,2,1,1,0.799497800278,0.858211739323,4.15276358074,19,3,0
aj,1,2,1,1,0.681890510142,1.3639230869,0.08237553866910001,20,3,0
aj,2,1,2,1,1.52885781134,1.2110478548899999,1.6235866007700002,21,3,0
aj,2,2,1,1,0.846571516683,1.7286358178,0.447171815523,22,3,1
aj,1,1,1,1,1.8700340690400001,1.02295665659,0.153052334032,23,3,1
aj,2,2,1,1,1.37592675369,0.893390745187,0.611884007418,24,3,1
aj,2,2,1,1,0.764205218118,1.78748219836,0.353091373476,25,3,1
aj,1,2,1,1,1.03509160987,1.12877703741,0.564404111385,26,3,0
aj,1,2,1,1,1.17589887937,2.8226242438,0.694303821592,27,3,0
aj,1,1,1,1,0.517160223041,1.06924303902,0.235451742973,28,3,1
aj,2,2,1,1,1.0584736963099999,1.08144267304,1.2471412461700002,29,3,1
aj,2,1,1,1,0.740707245359,0.646342670075,0.0118958655535,30,3,0
aj,2,2,1,1,0.658312841475,1.9169256783700002,0.317761060887,31,3,1
aj,1,2,1,1,0.787720516075,1.34044089932,1.01184542998,32,3,0
aj,2,2,1,1,0.7407099403899999,2.59922544817,0.0707484061782,33,3,1
aj,2,1,1,1,1.5759014974,2.34035619836,0.48249057798,34,3,0
aj,1,2,3,1,3.0228935158700003,0.0229986220693,16.4577594362,35,3,0
aj,1,2,1,1,0.834789227423,2.89323558842,2.4588162732099996,36,3,0
aj,2,2,1,1,0.634815638724,1.6345653858700002,1.04714070717,37,3,1
aj,1,2,1,1,1.5177531298,1.17575488773,0.728831400033,38,3,0
aj,1,2,1,1,0.811238894067,1.12868040131,3.1999181480699996,39,3,0
aj,2,1,1,1,0.905397877009,3.4814464460800005,2.43525400472,40,3,0
aj,2,1,2,1,1.85822328945,2.5172183587,0.0707715064414,41,3,0
aj,2,1,1,1,0.587755012468,0.8699439780120001,0.400103489179,42,3,0
aj,2,2,1,1,1.11723730092,2.77566525871,0.399846691253,43,3,1
aj,1,1,1,1,1.3523671802200001,1.32870635061,0.0119863415844,44,3,1
aj,1,2,1,1,0.564234709455,2.03460419431,0.34129791909,45,3,0
aj,1,2,1,1,0.905283530706,0.834611355396,0.529577769539,46,3,0
aj,1,2,1,1,0.7053596075730001,1.12883632809,0.153006903513,47,3,0
aj,1,1,2,1,0.869893927441,0.940449061417,1.3296515363799999,48,3,1
aj,2,1,1,1,0.7407311156309999,0.681564411426,1.9412286953,49,3,0
aj,2,2,1,1,1.04635029316,1.02264826808,2.45878200782,0,4,1
aj,2,2,2,1,0.6935934884980001,1.9169422335599997,0.023665449668,1,4,1
aj,1,1,1,1,0.893789224729,3.75187237259,4.24683516769,2,4,1
aj,1,1,1,1,0.646547107404,1.95223789575,0.84714170818,3,4,1
aj,2,2,1,1,1.9170369446400002,0.822835611212,0.329570685458,4,4,1
aj,1,2,1,1,0.846490280756,1.09339282421,1.16483616331,5,4,0
aj,1,1,2,1,0.658349801896,0.705186355598,0.9765794131219999,6,4,1
aj,2,1,1,1,0.587758477508,0.9992900519110001,0.200102180165,7,4,0
aj,1,2,2,1,0.6818158192910001,2.15219454426,1.34124132345,8,4,0
aj,2,2,1,1,1.41129787674,1.65794862732,2.31764940962,9,4,1
aj,1,2,1,1,2.07000765774,1.5874685692,0.929486446498,10,4,0
aj,2,1,2,1,0.717146901889,0.775777294982,0.635367735015,11,4,0
aj,1,1,1,1,0.646570207668,0.6817665387299999,0.564801050908,12,4,1
aj,1,1,1,1,0.858324930613,0.952341076927,0.811876076328,13,4,1
aj,1,2,1,1,1.31707536807,2.95196492764,0.564792580811,14,4,0
aj,2,2,1,1,0.799590971339,3.8224764021199995,2.11767774594,15,4,1
aj,2,2,1,1,0.693561533134,1.5051388460600001,0.611925972896,16,4,1
aj,2,2,1,1,0.893606347644,0.834613665423,0.835366734004,17,4,1
aj,2,2,2,1,0.7643087842990001,0.658012538053,0.564806055965,18,4,1
aj,1,2,1,1,0.764303009233,2.34015638108,0.035492399436,19,4,0
aj,1,2,1,1,1.41110806958,3.0699079416000004,0.129515090824,20,4,0
aj,1,1,1,1,0.799461224861,2.32868055531,0.847165578452,21,4,1
aj,2,2,1,1,1.49353442882,0.752241976797,1.88240040995,22,4,1
aj,2,2,1,1,0.7053426673800001,0.587611405832,0.553050717013,23,4,1
aj,2,2,1,1,0.646589072883,0.799282582825,0.282462703662,24,4,1
aj,1,2,1,1,0.634844129049,0.774850204418,0.47069596858,25,4,0
aj,1,2,1,1,0.576006218591,0.37578006701399996,0.49420972651999995,26,4,0
aj,1,2,1,1,0.528927497129,0.752857213808,1.05889181107,27,4,0
aj,2,1,1,1,1.42297621481,1.52870188456,0.446879982198,28,4,0
aj,2,1,1,1,1.15247367244,0.505039129921,1.0589742020100001,29,4,0
aj,1,1,2,1,0.458328087649,1.19927942579,0.600078232892,30,4,1
aj,2,1,1,1,1.16432295246,1.22280357885,1.02339363657,31,4,0
aj,2,2,1,1,0.634482224925,0.7288564253190001,0.141559953076,32,4,1
aj,1,2,1,1,0.587723827113,0.564021802028,0.447112139843,33,4,0
aj,1,2,1,1,4.540387537719999,1.1522388197600002,1.02360846902,34,4,0
aj,1,2,1,1,0.493787761711,1.8933310695099999,0.447008188658,35,4,0
aj,2,2,1,1,0.528930962168,1.17579916323,0.6236143210849999,36,4,1
aj,2,1,1,1,0.940611918273,1.43458448209,1.40008154393,37,4,0
aj,1,2,1,1,0.552475905463,0.422854938432,0.9177234074580001,38,4,0
aj,2,2,1,1,0.505621256555,0.5637049434170001,0.341300999125,39,4,1
aj,1,2,1,1,0.64665991369,0.481531532052,3.29405788079,40,4,0
aj,1,1,1,1,0.740665664885,0.658153064654,0.38837471553,41,4,1
aj,1,2,1,1,0.587763867569,0.528694954479,0.40010040914399997,42,4,0
aj,1,2,1,1,0.964212302199,0.8581324284199999,0.305954131347,43,4,0
aj,2,2,1,1,0.52892056705,0.6816953129180001,0.153050024005,44,4,1
aj,2,2,1,1,0.775970567184,0.975689667984,1.24712469099,45,4,1
aj,2,2,1,1,0.728872595503,0.4699463650399999,1.54122954231,46,4,1
aj,1,1,1,1,0.8230211833259999,0.7404974179680001,0.44711136983499994,47,4,1
aj,2,2,1,1,0.552390049485,0.469905554573,1.5647898857799998,48,4,1
aj,2,2,1,1,0.7171492119149999,0.505208146848,1.09422481869,49,4,1
aj,2,2,1,1,0.611229114957,0.7164846943430001,0.82362525521,0,5,1
aj,2,2,1,1,1.9994559887999999,0.8463004735940001,0.0707495611905,1,5,1
aj,1,2,1,1,1.4935848644,0.72873630395,0.47068095340899996,2,5,0
aj,2,2,1,1,0.5994491357230001,0.575778295994,0.81188762646,3,5,1
aj,1,2,1,1,2.25800683999,0.505208531851,0.011882005395799998,4,5,0
aj,1,2,1,1,0.7877220560930001,0.516964255808,1.4235802866999998,5,5,0
aj,1,1,1,1,0.481806040179,0.528516697447,0.306619803933,6,5,1
aj,2,1,1,1,0.717161532056,0.669916873703,0.51778239013,7,5,0
aj,2,1,1,1,0.446528858197,0.564042592265,1.02362078916,8,5,0
aj,1,2,1,1,0.92892934515,1.1286492159600001,0.0236411943915,9,5,0
aj,1,2,1,1,0.528972157637,0.41103530374799996,0.36476932654700006,10,5,0
aj,2,2,1,1,0.587726522143,0.387590846598,0.8236156301,11,5,1
aj,1,2,1,1,1.12887020848,0.43462952760300005,1.2118644492,12,5,0
aj,2,2,1,1,0.740739200724,1.83445619863,0.8118687612440001,13,5,1
aj,1,2,1,1,0.575955013007,0.46990516956999995,0.5177985603149999,14,5,0
aj,2,2,1,1,0.47008804665299997,0.434692283319,0.5295331090300001,15,5,1
aj,1,2,1,1,0.44658891888,0.328747161075,0.20011488531,16,5,0
aj,2,2,1,1,0.399551777892,0.25815006162,0.8000660667530001,17,5,1
aj,2,2,1,1,0.48185724576300004,0.352203938363,0.43546960717600003,18,5,1
aj,1,1,1,1,0.493687275567,0.9168609976309999,0.447175665567,19,5,1
aj,1,2,1,1,0.540685146108,0.340504425048,0.611887087453,20,5,0
aj,2,1,1,1,0.575930372726,1.09342477957,0.0118650652021,21,5,0
aj,2,2,1,1,0.740697235245,0.422844543313,0.423654977549,22,5,1
aj,1,2,1,1,1.12882554797,0.740504348048,0.823644120424,23,5,0
aj,1,2,1,1,0.622994079017,0.5289467473489999,0.011948226149799998,24,5,0
aj,1,2,1,1,0.44657120867899996,0.35151208548,0.0942417588849,25,5,0
aj,2,2,1,1,0.439823236786,0.316977191955,0.500911882891,26,5,1
aj,1,2,1,1,0.458328472653,0.375807017321,0.8118541310780001,27,5,0
aj,2,2,1,1,0.44594134150200004,0.34114815238300006,0.482484417909,28,5,1
aj,2,2,1,1,0.317183554306,0.31690481113,0.564796815859,29,5,1
aj,2,2,1,1,0.470076496522,0.4699332748899999,0.8236495104870001,30,5,1
aj,2,2,2,1,0.44657390371000005,1.05806251162,0.5295088537529999,31,5,1
aj,1,2,1,1,0.540694001209,0.340489794881,0.6353969953490001,32,5,0
aj,1,2,1,1,0.528906706892,0.41109882947099996,0.16487427874299998,33,5,0
aj,2,1,1,1,0.493627984891,0.5522911033569999,0.306015347045,34,5,0
aj,2,1,1,1,0.634763663132,0.846379399493,0.200153385747,35,5,0
aj,1,1,1,1,0.540641255607,1.42282298307,0.188392656734,36,5,1
aj,2,1,1,1,0.5407144064399999,0.5522391277650001,0.235447507925,37,5,0
aj,1,2,1,1,0.4828170617,0.352327909776,0.316785844774,38,5,0
aj,1,1,1,1,0.528889381695,0.705216770945,0.058995377252400005,39,5,1
aj,1,1,1,1,0.517250699072,0.8110090464480001,0.0589283864892,40,5,1
aj,2,1,2,1,1.04651006998,0.493419312513,0.34132255937100003,41,5,0
aj,1,1,1,1,0.470081886583,0.658193875119,0.541269967771,42,5,1
aj,2,2,1,1,1.37597603425,0.610966156959,0.670740783091,43,5,1
aj,2,2,1,1,0.446531168222,0.37583512264200003,0.36486904268299997,44,5,1
aj,1,2,1,1,0.528800060677,0.363414496109,1.5060043359200002,45,5,0
aj,2,2,1,1,0.505396413992,0.41128863663500004,1.45889712413,46,5,1
aj,2,2,1,1,0.846590381898,0.316957941735,0.7059340341179999,47,5,1
aj,1,2,1,1,1.4218966625100002,0.400391087456,0.364867502665,48,5,0
aj,1,2,1,1,0.870099904789,0.575615824142,0.22366329364300003,49,5,0
aj,1,1,1,1,0.846314333752,1.1872345635400001,1.7765188134299998,0,6,1
aj,2,2,1,1,0.587596775665,0.563961741344,0.753196017668,1,6,1
aj,2,1,1,1,0.7406856851129999,1.48164202831,0.0942875744067,2,6,0
aj,2,1,1,1,0.717116871547,0.6817130231199999,3.8822483332199997,3,6,0
aj,1,1,1,1,0.575915357555,0.905216924946,0.364865962648,4,6,1
aj,1,2,1,1,1.01124328312,0.669906478584,0.129543581149,5,6,0
aj,2,2,1,1,0.952400367602,0.9992619465899999,0.12961557697,6,6,1
aj,1,1,2,1,0.705354602516,0.633962854006,0.0943249198326,7,6,1
aj,1,1,1,1,0.492957692253,0.9645618861830001,0.470691348528,8,6,1
aj,2,1,1,1,0.823011943221,0.9757458786229999,0.529555824289,9,6,0
aj,1,1,1,1,0.7171276516699999,1.31693946153,0.647160034388,10,6,1
aj,1,1,1,1,0.717172697183,0.62283545721,1.50590115474,11,6,1
aj,2,1,1,1,0.59951651149,0.8111068375630001,0.894186164251,12,6,0
aj,2,2,1,1,0.552513635893,0.469964075241,0.882433905334,13,6,1
aj,2,2,1,1,0.552442025078,0.316934456469,0.411887703461,14,6,1
aj,2,2,1,1,0.470032606021,0.740508583096,0.517872481157,15,6,1
aj,1,2,1,1,0.44661047912600005,0.258132351418,0.376595121302,16,6,0
aj,1,1,1,1,0.375897878356,0.7051459301369999,0.212008825841,17,6,1
aj,2,2,1,1,0.375943308874,0.587571365375,0.776602359384,18,6,1
aj,1,1,1,1,0.340716562465,0.6581707748560001,0.176624997642,19,6,1
aj,1,2,1,1,0.881775547832,0.269939280958,0.188419992045,20,6,0
aj,2,2,1,1,0.38777834373400005,0.246359302264,0.517598743038,21,6,1
aj,2,2,1,1,0.7053861728749999,0.23448191692099998,0.541295763065,22,6,1
aj,2,2,1,1,0.611212559766,0.44636908137599995,1.6706972776,23,6,1
aj,1,2,1,1,0.434820104775,0.305231093109,0.5294487930690001,24,6,0
aj,1,2,1,1,0.47011268693400005,0.23461435843000003,0.41190964871,25,6,0
aj,1,1,1,1,0.45835734798199995,1.08164287532,0.12956360137700002,26,6,1
aj,2,1,1,1,0.623165020966,0.646400035729,0.458798178005,27,6,0
aj,1,1,2,1,0.36431502136999994,0.6815855866680001,0.611853592072,28,6,1
aj,2,2,1,1,0.39953175766500004,0.728751319121,0.588304028724,29,6,1
aj,2,2,1,1,0.552410069713,0.352329834798,2.69406704389,30,6,1
aj,1,2,1,1,0.776000212522,0.7993029880570001,0.905920712967,31,6,0
aj,2,2,1,1,0.411096519444,0.328838792118,0.129621352035,32,6,1
aj,2,2,1,1,0.505382938838,0.26997547137,0.353072893266,33,6,1
aj,1,1,1,1,0.38771096796599996,2.1521402586400002,0.10605176846000001,34,6,1
aj,1,2,1,2,0.5524520351910001,0.35229017934699997,0.7294581871760001,35,6,0
aj,2,2,1,1,0.552458580266,0.305202217779,2.3411281321599997,36,6,1
aj,1,2,1,1,0.41125552625600004,0.281711175098,0.47073100397900003,37,6,0
aj,2,1,1,1,0.8347792173090001,0.834628295589,2.11766735082,38,6,0
aj,1,1,1,1,0.705382322832,0.505170416417,0.753017375633,39,6,1
aj,1,2,1,1,0.564223159323,0.481656658477,2.18824866509,40,6,0
aj,1,2,1,1,0.552428549923,0.375841667716,0.45894024462399996,41,6,0
aj,2,2,1,1,0.552447800143,0.293478064183,0.953007904524,42,6,1
aj,2,2,1,1,0.634879164448,0.37581125236900004,0.200122585397,43,6,1
aj,2,2,1,1,0.540851082998,0.281661124529,0.082328183129,44,6,1
aj,2,1,1,1,0.846546106392,1.16398876865,0.282502359115,45,6,0
aj,1,2,1,1,0.493621054811,0.269992796568,0.0825164502749,46,6,0
aj,1,1,1,1,0.44659007389399996,0.517017386413,0.576587575216,47,6,1
aj,1,1,1,1,0.5524828355420001,0.481653193438,0.34126557872100005,48,6,1
aj,2,2,1,1,0.375707686188,0.24644092319400002,0.353319296073,49,6,1
aj,1,2,1,1,0.881600370836,0.704889132211,0.635391990291,0,7,0
aj,2,2,1,1,0.39962454372199996,0.26969749820300004,0.517758904863,1,7,1
aj,2,2,1,1,0.375966024133,0.23467749915,0.658926923473,2,7,1
aj,2,1,1,1,0.281864406845,1.19931715622,0.541240707438,3,7,0
aj,1,1,1,1,0.39950288233599995,0.517000831224,0.447176435576,4,7,1
aj,2,2,1,1,0.43498989171,0.305192592669,0.423432830017,5,7,1
aj,1,2,1,1,0.38776794861599995,0.25818047696699997,0.317760675883,6,7,0
aj,1,2,1,1,0.423037815516,0.258145826571,0.353067503204,7,7,0
aj,2,1,2,1,0.693573853274,0.705260661445,0.341307544199,8,7,0
aj,1,1,1,1,0.446543103359,1.30516179232,0.317765680939,9,7,1
aj,2,1,2,1,0.411265151366,0.35225244891699997,0.623665911673,10,7,0
aj,2,1,1,1,0.48187110592200005,0.622877422688,0.529525408942,11,7,0
aj,2,1,1,1,0.458328472653,0.54050457905,0.400137754569,12,7,0
aj,1,2,1,1,0.434850520122,0.305149857182,0.74115231043,13,7,0
aj,1,1,1,1,0.5168560695759999,1.84626928824,0.129831179426,14,7,1
aj,2,1,1,1,0.470089586671,1.35223396871,2.0352910421400003,15,7,0
aj,1,2,1,1,0.517130577703,0.32875216613,0.364832467266,16,7,0
aj,1,1,1,1,0.63473363279,0.505209301859,0.188264065269,17,7,1
aj,1,1,1,1,0.293653241179,0.599316694213,0.423573741623,18,7,1
aj,2,2,1,1,0.5405723398219999,0.27012023302,0.341314859283,19,7,1
aj,2,1,1,1,0.505419514256,0.999309687134,0.423621482167,20,7,0
aj,1,1,1,1,0.45835503795500004,0.48171710416599994,0.447160650396,21,7,1
aj,1,2,1,1,0.58671165058,0.235501023534,3.36466730038,22,7,0
aj,2,2,1,1,0.422377917997,0.23492082192299998,0.835123411232,23,7,1
aj,2,2,1,1,0.481720569206,0.199507348387,0.505980465648,24,7,1
aj,1,2,1,1,0.38774369334,0.18763727812699998,0.505997790844,25,7,0
aj,1,2,1,1,0.364191049957,0.17589733935,0.42362802724200005,26,7,0
aj,2,1,1,1,0.24658799487,0.469915949692,0.34129214402400004,27,7,0
aj,1,1,1,1,0.505337508321,0.34052945033299997,0.8942392948569999,28,7,1
aj,2,2,1,1,0.375992204432,0.17576258781399998,0.447199920843,29,7,1
aj,2,2,1,1,0.37595293398400004,0.281758915643,0.458991065203,30,7,1
aj,2,2,1,1,0.67001581983,0.21111484565400002,0.45893716458899997,31,7,1
aj,1,2,1,1,0.858291435231,0.540481863791,0.223689473941,32,7,0
aj,2,2,1,1,0.34070732236,0.246243800948,1.21181093359,33,7,1
aj,2,2,1,1,0.434832424916,0.199409942276,0.376621686604,34,7,1
aj,1,1,1,1,0.552467435366,0.540539229444,0.8353517188330001,35,7,1
aj,1,1,1,1,0.693596183529,0.458138280485,0.34129791909,36,7,1
aj,1,2,1,1,0.376002984553,0.27005863231800004,0.494195866361,37,7,0
aj,2,2,1,1,0.47009882677599996,0.293466514051,0.541268427754,38,7,1
aj,1,2,1,1,0.517104782409,0.35239759556999994,0.353034007822,39,7,0
aj,1,2,1,1,0.681842769598,0.269942745997,0.8118506660379999,40,7,0
aj,2,1,1,1,0.575976958257,0.5523065035320001,0.611896712563,41,7,0
aj,2,1,1,1,0.305464020763,0.21102821966600002,0.882425435238,42,7,0
aj,1,1,1,1,0.28185709176199997,0.5875856105380001,0.5059885507399999,43,7,1
aj,1,1,1,1,0.540684376098,1.11674603532,1.61184127193,44,7,1
aj,1,2,1,1,0.49355406404799995,0.211211481755,0.506047071406,45,7,0
aj,2,2,2,1,0.517240303953,0.363906531715,0.6824460714730001,46,7,1
aj,2,2,1,1,0.634807168627,0.199425342452,0.694221430653,47,7,1
aj,1,1,1,1,1.1522938753899998,0.363052976989,1.67072114787,48,7,1
aj,2,2,1,1,0.364163329641,0.31703070756499996,0.44720646591799995,49,7,1
aj,1,2,1,1,0.79927950279,0.528477812005,0.658951563753,0,8,0
aj,2,2,1,1,0.434820874784,0.305235713161,0.54126727274,1,8,1
aj,1,1,1,1,0.45833886777099997,0.63461697646,0.494084600094,2,8,1
aj,2,2,1,1,0.95240460265,0.434700368411,0.164852718497,3,8,1
aj,1,1,1,1,0.38787959988799997,0.375640310421,0.941239475424,4,8,1
aj,2,1,1,1,0.658365202072,0.599399855162,0.305989551751,5,8,0
aj,2,1,1,1,0.482016637579,0.6697501668029999,0.576582185154,6,8,0
aj,1,1,1,1,0.505451854624,0.399334250414,0.811863756187,7,8,1
aj,2,1,1,1,0.659237622012,0.716970184875,0.08157742457480001,8,8,0
aj,1,2,1,1,1.1171079394399999,0.42286995360299995,3.5528385796,9,8,0
aj,2,2,1,1,0.387759863524,0.222815513983,0.364843632393,10,8,1
aj,1,1,1,1,0.505411814168,0.434459355664,0.470699818624,11,8,1
aj,2,2,1,1,0.517375440493,0.528514772426,0.49422204666,12,8,1
aj,1,2,1,1,0.728936506232,0.258150446624,0.5177296445289999,13,8,0
aj,2,1,1,1,0.458246466718,0.811086047326,0.353109853687,14,8,0
aj,1,2,1,1,0.564180038832,0.293442258774,0.129604796846,15,8,0
aj,2,2,1,1,0.540657425791,0.293491154332,0.44717220052699996,16,8,1
aj,1,2,1,1,0.599500726311,0.269905015568,1.11771278134,17,8,0
aj,2,2,1,1,0.411221645871,0.31709692831999997,0.564854181514,18,8,1
aj,1,1,1,1,0.364234555453,0.458125190336,0.411899253591,19,8,1
aj,1,2,1,1,0.375982194318,0.24642898805799998,0.341291759019,20,8,0
aj,1,2,1,1,1.9288396391299998,0.187555272192,3.01168834819,21,8,0
aj,1,2,1,1,0.45822413646399995,0.199373751864,0.588421070059,22,8,0
aj,2,1,1,1,0.540718256485,0.387920795358,0.223624023196,23,8,0
aj,1,1,2,1,0.670107450875,1.0228257551,2.05879324995,24,8,1
aj,1,2,1,1,0.9759287557080001,0.316995287161,0.517733879577,25,8,0
aj,2,1,1,1,0.6583009063390001,0.5993263193230001,0.435426101681,26,8,0
aj,2,2,1,1,0.6112857106,0.281653424441,0.15304347893,27,8,1
aj,2,2,1,1,0.740692230188,0.305234558147,0.588095741351,28,8,1
aj,2,1,1,1,0.387877289862,1.44620352949,0.43530829033699997,29,8,0
aj,2,2,1,1,0.517232218861,0.222786638654,0.40010502919600005,30,8,1
aj,1,2,1,1,0.44649228277900005,0.222856709453,0.553126562877,31,8,0
aj,1,1,1,1,0.670057400304,0.35229941945200005,2.2940601908200002,32,8,1
aj,1,2,1,1,0.5524593502740001,0.19931985125,1.5176973041600001,33,8,0
aj,2,2,1,1,0.646547107404,0.211107915575,0.517768529972,34,8,1
aj,1,2,1,1,0.37600914462499996,0.24638702258,0.5530476369780001,35,8,0
aj,1,2,1,1,0.317312915781,0.23464515878199999,0.541121356077,36,8,0
aj,2,2,1,1,0.646370775396,0.470090741685,0.764822765156,37,8,1
aj,2,2,1,1,1.0112760084899999,0.316938306512,1.6588106521500001,38,8,1
aj,2,1,1,1,0.576068974306,0.59919965288,0.341324869397,39,8,0
aj,1,2,1,1,0.552281093243,0.22299261600099998,0.38838280062200004,40,8,0
aj,1,2,1,1,0.505420669268,1.2462819163799999,0.7295536682639999,41,8,0
aj,2,1,1,1,0.787738611281,0.611033147722,1.32946095921,42,8,0
aj,2,1,1,1,0.693613508726,0.552271853138,1.3294413239799998,43,8,0
aj,2,2,1,1,0.481894591189,0.22282205905699998,0.21191411476100003,44,8,1
aj,2,2,1,1,0.528837406102,0.552357709116,0.364819377117,45,8,1
aj,1,2,1,1,0.575954242998,0.269972391336,0.258953950781,46,8,0
aj,2,2,1,1,0.528851651265,0.293252836615,1.5060790267700002,47,8,1
aj,1,2,1,1,0.387752933445,0.328752166131,0.458954489786,48,8,0
aj,1,1,1,1,0.44663704443,0.693340155611,0.31779109123000004,49,8,1
aj,1,1,1,1,0.540516514186,0.728396730081,1.09420133342,0,9,1
aj,1,2,1,1,0.423050135657,0.234815715725,0.129526255952,1,9,0
aj,2,2,1,1,0.7642013680740001,0.293422238547,0.729510547772,2,9,1
aj,2,2,1,1,0.387736378256,0.728677783283,0.505995095815,3,9,1
aj,1,2,1,1,0.45833848276699996,0.363976602514,0.41193197896399997,4,9,0
aj,2,1,1,1,0.775851985833,0.42277331750200003,0.106160724702,5,9,0
aj,2,2,1,1,0.634789458426,0.269910020625,0.458931774528,6,9,1
aj,1,1,1,1,0.693569233222,1.44633135095,0.400181260065,7,9,1
aj,2,2,1,1,0.728869515468,0.211055554978,1.65891421833,8,9,1
aj,1,1,1,1,0.36423224542599997,0.493395057237,0.588359854361,9,9,1
aj,2,2,2,1,0.317113098504,0.246469413519,0.62366745169,10,9,1
aj,1,1,1,1,0.705382322832,0.5287026545669999,0.6824753318060001,11,9,1
aj,1,2,2,1,0.39952405757700005,0.246417437927,0.423648432474,12,9,0
aj,1,1,1,1,0.5407259565720001,0.658126499352,1.18826522028,13,9,1
aj,2,2,1,1,0.752355168087,0.175876934118,1.21189524955,14,9,1
aj,1,2,1,1,0.8581713138629999,0.18765614334199998,0.8354722252060001,15,9,0
aj,2,1,1,1,0.787658530369,1.3639157718200001,0.7413490476719999,16,9,0
aj,2,2,1,1,0.552462815314,0.5992951339679999,0.458953719777,17,9,1
aj,2,1,1,1,0.717116101538,0.6699134086640001,0.600092478054,18,9,0
aj,1,1,1,1,0.905405577097,1.35217429303,2.90585641723,19,9,1
aj,1,2,1,1,0.646592537922,1.22281281895,0.894169224059,20,9,0
aj,2,2,1,1,1.10536569064,0.564029502116,2.10587389643,21,9,1
aj,1,1,1,1,0.623191586268,0.411076499217,0.21176473306,22,9,1
aj,2,2,1,1,0.575771750919,0.5052362521670001,0.623794888143,23,9,1
aj,1,1,1,1,0.8581863290330001,0.91718825136,1.1294631152299999,24,9,1
aj,2,1,1,1,0.387758323506,0.37577159691699996,0.988339372127,25,9,0
aj,1,1,1,1,0.493602189596,1.02281921002,0.329557210304,26,9,1
aj,2,2,1,1,0.740629474472,0.328741386008,0.600144068642,27,9,1
aj,1,2,1,1,0.45831538250299997,0.258222442445,0.588342914168,28,9,0
aj,2,1,1,1,0.43492213093800003,0.446284765415,3.38809789738,29,9,0
aj,1,1,1,1,1.2229787558399998,3.1991192639599997,3.29401360528,30,9,1
aj,1,1,1,1,0.376093845589,0.728762869253,0.682487266943,31,9,1
aj,2,2,1,1,0.49363761,0.6576514039379999,1.30594373623,32,9,1
aj,1,1,1,1,0.493655320202,0.881623471099,0.694213345561,33,9,1
aj,2,1,1,1,0.423045130598,0.8228864317910001,0.5412788228719999,34,9,0
aj,2,1,1,1,0.411258991297,0.493467438061,0.5176688138359999,35,9,0
aj,1,1,1,1,0.458286507174,0.258144671559,0.611932902976,36,9,1
aj,2,2,1,1,0.528883991633,0.269930425857,0.6354277957,37,9,1
aj,1,1,1,1,0.57596579313,0.964014409945,0.694208725508,38,9,1
aj,2,1,1,1,0.7642518036489999,1.69337981106,0.0353861382246,39,9,0
aj,1,2,1,1,0.388388575688,0.316301124251,0.9641399213740001,40,9,0
aj,1,2,1,1,0.564225854354,0.6814958806460001,0.200158390805,41,9,0
aj,1,2,1,1,0.634678577163,0.234726009703,0.129557441307,42,9,0
aj,2,2,1,1,0.423095566173,0.364010867905,0.423655747557,43,9,1
aj,2,1,1,1,0.375972184203,1.18755142215,0.247189756727,44,9,0
aj,2,2,1,1,0.446565048608,0.317095388302,0.306015347045,45,9,1
aj,2,1,1,1,0.305380089806,0.5875467250949999,0.423649972491,46,9,0
aj,2,2,1,1,0.49362182482,0.375753116708,0.435431876746,47,9,1
aj,1,2,1,1,0.7407130204260001,0.164099649915,0.8824593156239999,48,9,0
aj,1,1,2,1,0.187713508995,0.305229938095,0.364850562472,49,9,1
cc,2,1,1,1,1.71686597856,1.6933166188799997,0.7530732249330001,0,0,0
cc,2,2,3,2,0.49359790525200004,0.846397851967,0.506025557558,1,0,1
cc,1,1,3,2,0.7053912194449999,0.869865590083,1.5412202346000001,2,0,1
cc,2,2,2,2,1.37596622408,0.41113318058799997,0.329541652598,3,0,1
cc,2,2,2,1,0.9289364980429999,2.1285778251900003,0.48245463747100004,4,0,1
cc,2,2,1,1,0.5170325327359999,0.434629794256,0.835540259641,5,0,1
cc,1,1,3,2,0.999460219693,1.48166229234,0.258916674014,6,0,1
cc,1,1,3,3,0.587718727489,1.1757862716399998,0.44716640364200005,7,0,1
cc,1,1,2,2,0.658305590345,0.952274873689,3.25874919582,8,0,1
cc,1,2,2,1,0.658366806515,0.6342218404659999,0.270711759241,9,0,0
cc,1,1,3,3,0.646418103353,0.5169539912359999,0.43560540288500005,10,0,1
cc,2,2,2,2,0.5524143233519999,0.764068264883,0.470688812803,11,0,1
cc,2,2,3,3,0.623065097428,0.599464146768,0.776562908468,12,0,1
cc,2,2,3,2,0.599511887679,1.35221666058,3.37633275107,13,0,1
cc,1,1,3,3,0.587683306813,0.48171888842200006,0.5060648283079999,14,0,1
cc,2,2,3,3,0.8347687049079999,0.434642499498,0.541294926027,15,0,1
cc,2,2,2,2,2.5405845874599997,0.328688476307,0.270748719947,16,0,1
cc,1,1,3,2,0.493668746605,0.493436972179,0.29425649882800003,17,0,1
cc,1,1,2,2,0.917147572933,0.48203767450900004,0.294259963894,18,0,1
cc,1,2,2,2,0.5524478189909999,0.975765327239,0.7413054752279999,19,0,0
cc,1,1,2,2,0.43482460797600003,0.905199639787,0.870682960691,20,0,1
cc,2,1,1,1,0.516550888539,0.55293793335,0.23539926994899998,21,0,0
cc,2,2,3,3,0.528914629625,0.681668606462,0.564818105202,22,0,1
cc,1,1,2,2,0.587979377466,1.1284507727700002,2.1764419391599996,23,0,1
cc,2,2,2,2,0.658359106367,0.599322464062,0.200152231907,24,0,1
cc,1,1,3,3,0.564278709902,0.363978250165,0.106019474442,25,0,1
cc,1,1,3,3,0.45836087740099996,0.41106772933799995,0.32952933236299997,26,0,1
cc,2,2,3,3,0.9995129656999999,0.7523559562369999,0.8833589427390001,27,0,1
cc,1,1,3,3,0.823019050549,0.469934583401,0.43542329440800004,28,0,1
cc,2,2,2,2,0.940646496645,0.528710960736,0.294305394762,29,0,1
cc,2,1,2,2,0.540630403338,0.693456761557,0.8001700192460001,30,0,0
cc,1,1,1,2,3.44632708762,0.352268251562,0.023713372806899998,31,0,1
cc,2,2,2,1,0.799483551139,1.9404401327,1.27067710858,32,0,1
cc,1,1,3,3,0.811269396189,0.411086979705,0.31772115688499997,33,0,1
cc,1,2,3,3,0.6700706449989999,0.458140653196,0.964808018009,34,0,0
cc,2,2,3,3,0.705369274026,0.552150593316,0.306010003261,35,0,1
cc,2,2,3,3,0.670312429616,0.575481268815,0.341409119207,36,0,1
cc,2,2,2,2,0.587715262423,0.7875718086839999,0.28248874912300004,37,0,1
cc,1,1,3,3,0.528856878522,1.04638568573,0.341379473641,38,0,1
cc,1,2,1,1,1.50525900792,0.38758844100100004,0.28252686485,39,0,0
cc,2,2,2,1,0.870086199296,0.446385608733,0.376618811536,40,0,1
cc,1,1,3,3,0.623065867443,0.316983867807,0.858903660765,41,0,1
cc,1,1,3,2,1.05830936342,0.575807370042,1.0587082310299998,42,0,1
cc,1,1,2,3,0.99946214473,0.563983024256,2.3059383918900003,43,0,1
cc,2,1,1,1,0.8818250734499999,0.45817337882,0.28249606426199997,44,0,0
cc,1,1,3,2,0.575908626975,0.752265479509,0.588405580605,45,0,1
cc,1,2,2,2,0.693635789975,0.5640118998070001,2.1411810408500003,46,0,0
cc,2,2,3,2,0.693648495218,0.422872824757,0.317760427635,47,0,1
cc,2,2,2,1,0.75244566295,0.669945132603,0.341261661391,48,0,1
cc,2,2,3,2,0.952370355512,0.517022907552,1.8471151206599998,49,0,1
cc,1,1,3,3,0.422842024168,1.0814044144200001,0.647183112962,0,1,1
cc,2,2,3,3,0.586857081036,0.40016201109300004,0.40011388517499996,1,1,1
cc,1,1,3,3,0.587818444393,0.858040089276,0.494220847147,2,1,1
cc,1,1,1,1,1.37598085435,0.657068561724,1.14129808309,3,1,1
cc,2,2,2,1,0.65830058525,0.716941825004,0.294291149489,4,1,1
cc,2,2,3,3,0.634854792552,0.646358427214,0.329533567443,5,1,1
cc,1,1,3,1,0.634815136795,0.7876064593459999,0.270725619506,6,1,1
cc,2,2,3,3,0.646524365382,0.5522672505430001,0.34130593723700003,7,1,1
cc,2,2,2,2,0.964127710019,0.364064876819,0.788359918733,8,1,1
cc,1,1,3,3,0.50542340606,1.39926840903,0.458954943745,9,1,1
cc,2,1,1,1,0.881854719016,0.49352051877400005,0.353053281552,10,1,0
cc,2,2,3,2,0.622914559553,1.10533416136,0.376595711095,11,1,1
cc,1,1,3,2,0.564211718623,1.01103084563,1.85880740893,12,1,1
cc,1,1,3,2,1.04593060705,0.8116632587100001,0.35305135651600006,13,1,1
cc,1,1,3,2,0.505209341972,0.458111392637,0.317946386187,14,1,1
cc,2,2,1,1,0.835187977914,0.563666163206,0.29423724846,15,1,1
cc,1,1,3,2,0.470206398591,1.3050551850299998,0.78823825641,16,1,1
cc,2,2,2,2,0.693580733924,0.552299976168,2.08234537238,17,1,1
cc,1,1,2,2,0.9995060355679999,0.5757138132549999,0.32957784328899997,18,1,1
cc,2,2,1,1,0.9994024685899999,0.622868743679,0.32958708346500004,19,1,1
cc,1,1,2,2,0.4818224554,0.54050643097,0.823663552856,20,1,1
cc,1,1,1,1,0.8818920647290001,0.963951376651,1.38816633704,21,1,1
cc,2,2,3,2,0.634790881332,0.481675382592,0.8588998106919999,22,1,1
cc,2,2,1,1,0.8935805029200001,0.764047474486,0.282506844468,23,1,1
cc,1,1,3,2,0.423073413587,0.858137496136,0.329550507767,24,1,1
cc,1,2,2,2,0.575962913012,1.02286289157,1.68236662479,25,1,0
cc,2,2,3,1,0.728960599503,0.952235602939,0.25895594476399997,26,1,1
cc,2,2,3,2,0.564200938417,1.01107858655,0.61189526414,27,1,1
cc,2,1,2,1,0.6465640211399999,0.5053313893029999,0.7412484941399999,28,1,0
cc,1,1,3,2,0.49364795620800006,0.646415023295,0.364825266338,29,1,1
cc,1,1,2,1,0.62304738709,0.5286928653899999,0.435447164864,30,1,1
cc,1,1,2,2,0.552505185086,0.5639664689399999,2.14115563037,31,1,1
cc,2,1,1,1,1.5876205506099998,0.669924342205,0.317837814113,32,1,0
cc,2,2,3,2,1.18768761889,1.0934031685299999,1.32948274647,33,1,1
cc,2,2,2,1,1.95244658697,1.4462273707100002,0.36480178089000004,34,1,1
cc,2,1,1,1,0.8936113035079999,0.787841698837,1.36473555963,35,1,0
cc,1,1,2,1,0.693599599284,0.48168500777500006,0.8589044307800001,36,1,1
cc,1,1,2,1,0.634710414795,0.39938506625799997,2.22356260393,37,1,1
cc,2,1,1,1,1.1641844601,0.41120710200000005,0.564843130679,38,1,0
cc,1,1,3,2,0.834764469827,0.458185314048,0.47073116361199996,39,1,1
cc,1,1,2,1,0.564176682954,0.317006583241,0.305976122614,40,1,1
cc,1,1,3,2,0.587152766682,0.470465893546,1.07069620494,41,1,1
cc,1,1,3,1,0.670100290565,0.422851649352,0.553060750695,42,1,1
cc,1,1,2,1,0.8230125054240001,0.458097532372,0.8471705617219999,43,1,1
cc,2,2,2,2,0.6933762950200001,0.646594436721,1.20006714528,44,1,1
cc,1,1,2,1,1.05827779281,1.03461716601,0.506020167455,45,1,1
cc,2,2,3,2,0.834829921077,0.399265328972,0.282480663968,46,1,1
cc,2,2,2,2,0.881780412597,0.516942441016,1.23546741625,47,1,1
cc,2,1,3,2,0.48187789645900003,0.48170464315,0.305984207768,48,1,0
cc,2,2,2,1,2.8581998673299998,1.38752645482,1.7882559667500002,49,1,1
cc,2,1,1,1,0.528674770045,0.516745317252,0.517794847292,0,2,0
cc,1,1,3,2,0.575989093512,0.458147968335,0.270765275263,1,2,1
cc,1,1,3,2,0.5054780771040001,0.552063196647,0.37657723074199995,2,2,1
cc,1,1,3,2,0.458343937077,0.49342580696599997,1.2353338187,3,2,1
cc,2,2,3,2,0.482818469418,0.422881679926,0.37561432735600003,4,2,1
cc,2,2,3,2,0.611256536944,0.45824999528300003,1.0706461539899998,5,2,1
cc,1,1,2,1,0.5994972574,0.540546856742,0.294258808872,6,2,1
cc,2,2,3,2,0.540663128962,0.834575431218,0.376557980374,7,2,1
cc,2,1,1,1,0.481906387003,0.599363274842,0.294210297946,8,2,0
cc,1,1,3,2,0.399753518293,0.54030584214,0.270683653704,9,2,1
cc,2,2,3,2,0.6230431520090001,0.37577872549400004,0.6942725921349999,10,2,1
cc,2,2,3,2,0.47011053176000006,0.28168408375799997,0.317793538268,11,2,1
cc,2,1,2,2,0.587775708577,0.481662292341,0.294271514114,12,2,0
cc,1,1,2,1,0.611219576238,0.44645529506399995,0.27075719010899996,13,2,1
cc,1,1,1,1,0.752479928604,0.375756010061,0.270682498683,14,2,1
cc,2,2,3,2,0.575962528005,0.246428960561,0.305973042555,15,2,1
cc,1,1,3,2,0.49364179609,0.846439817768,1.1059540231899998,16,2,1
cc,1,2,3,2,0.834853406526,0.881614859436,0.282471808799,17,2,0
cc,2,1,1,1,0.38793956770599997,0.6816466610430001,0.282325120998,18,2,0
cc,1,2,3,2,0.564391517056,0.364050631547,0.305696607277,19,2,0
cc,1,1,1,1,0.8229840148800001,0.857158807448,0.588348599516,20,2,1
cc,2,2,1,1,0.717164744261,1.04631522939,0.329547042701,21,2,1
cc,1,1,2,2,0.540732815293,0.36398749034100003,0.282459873571,22,2,1
cc,1,1,2,2,0.517069108435,0.599354034665,0.7766229696160001,23,2,1
cc,1,1,3,2,0.50536526995,0.328773177924,0.42367055999,24,2,1
cc,2,2,3,2,0.905384443316,0.693437896197,0.223614964928,25,2,1
cc,2,2,2,1,0.764758583065,0.5640565606600001,0.43484963345399996,26,2,1
cc,1,1,3,2,0.528860343587,0.752270869612,0.270522335623,27,2,1
cc,2,2,3,2,0.552345407035,0.481819375342,0.41185083429200003,28,2,1
cc,2,1,3,1,2.30516606715,0.5405241413090001,0.0237364732475,29,2,0
cc,1,2,1,2,3.2581651396599995,0.716942595019,3.51748761143,30,2,0
cc,2,1,2,1,2.42288668502,0.446451059983,1.00008855169,31,2,0
cc,2,2,2,1,0.599476081996,0.364052171576,0.36484798177199995,32,2,1
cc,1,1,2,1,0.505330619289,0.399325005111,0.517831422992,33,2,1
cc,2,2,2,1,0.6347912663390001,0.6464188733690001,1.00012012229,34,2,1
cc,2,2,1,1,1.7875629535099997,0.446476085461,0.38834036035999997,35,2,1
cc,1,1,2,1,0.6230793427,0.634669989023,0.282448708358,36,2,1
cc,1,1,2,2,0.740709483847,1.2110240695,1.89413414349,37,2,1
cc,2,2,3,2,0.670094130447,1.14047262732,0.32955089277399996,38,2,1
cc,1,1,1,1,0.634783951199,0.869896775679,0.494252032742,39,2,1
cc,2,2,3,2,0.457772586167,0.49401486821400004,0.30598266773899996,40,2,1
cc,2,1,2,1,0.7406736781640001,0.44634941804300005,0.317797773349,41,2,0
cc,2,2,1,1,0.6936165396080001,0.740548165767,0.623642223448,42,2,1
cc,1,1,3,2,0.470124392025,0.822809606549,0.34130593723700003,43,2,1
cc,2,2,3,2,0.552431648682,1.04638068064,3.0117096135900003,44,2,1
cc,1,1,3,2,0.45836280243699995,0.975777262467,0.435428299504,45,2,1
cc,1,1,2,1,1.5052663230599999,1.0934239589299999,0.329572453186,46,2,1
cc,1,1,1,1,0.575964838049,0.964011052791,0.42364938458499996,47,2,1
cc,1,1,3,2,0.5171099192140001,0.540531456448,0.388363845807,48,2,1
cc,2,2,3,3,0.681842629785,0.611065573297,0.317806628517,49,2,1
cc,1,1,3,2,0.846468308313,0.693046728727,1.32937224936,0,3,1
cc,1,2,1,1,2.18758482193,0.9640264530850001,1.18832403605,1,3,0
cc,2,2,3,3,0.740746059546,0.422749622404,0.411911280446,2,3,1
cc,2,2,3,3,0.528799897435,0.45817491885,0.41196826153399996,3,3,1
cc,2,1,3,3,0.481840165738,0.505232827421,0.576560829429,4,3,0
cc,1,1,2,2,0.9406823023280001,1.11695098818,0.306028483614,5,3,1
cc,1,2,2,1,1.0465462338,0.422864354595,2.03526089831,6,3,0
cc,2,2,3,2,0.975894689709,0.787584898933,0.317794308283,7,3,1
cc,2,2,3,2,0.670190767292,0.50509191473,0.29428383435,8,3,1
cc,1,1,3,2,0.576221252944,0.39903547958200003,0.259020240991,9,3,1
cc,2,2,3,3,1.2228045244499999,0.493476627936,0.294410501769,10,3,1
cc,1,1,2,2,0.634822451934,0.869865205076,0.29422415821,11,3,1
cc,2,2,2,2,0.540693544544,0.5875901350339999,0.8353924168179999,12,3,1
cc,2,2,1,1,1.5170875887900002,0.634658438803,1.38829569951,13,3,1
cc,1,1,2,1,0.670127241079,0.41107042439,0.36481448613300005,14,3,1
cc,1,1,2,1,1.7288835980300001,0.646368052398,0.470712683259,15,3,1
cc,2,2,3,2,0.8465795754369999,0.658088446199,0.294258423864,16,3,1
cc,2,1,2,1,0.8347463744820001,0.646391537846,0.329562057987,17,3,0
cc,1,1,1,1,0.599536143143,0.41107465947099997,0.364826421361,18,3,1
cc,1,1,2,1,0.6583460161169999,0.516969006523,0.95301755287,19,3,1
cc,2,2,3,2,0.634758925722,0.999308526796,0.293957348115,20,3,1
cc,1,1,1,1,0.693626934807,0.469934583401,0.423675950093,21,3,1
cc,1,1,1,1,0.646334556759,0.39934425547799995,0.400321404137,22,3,1
cc,2,2,2,2,0.399514428727,0.599331319232,0.306054664115,23,3,1
cc,2,2,2,1,0.717126243526,0.37576563524499995,0.541335736805,24,3,1
cc,1,1,3,2,0.376012424957,0.4581094676,0.270736014704,25,3,1
cc,2,2,2,1,0.634793961391,1.19925670481,0.306039648827,26,3,1
cc,1,1,2,1,0.693626164792,0.975773412393,0.282501454365,27,3,1
cc,2,1,2,1,0.764211872625,0.811068807359,0.28249490924000004,28,3,0
cc,1,2,1,1,1.14065204075,0.846367051378,0.28248528405699996,29,3,0
cc,2,1,1,1,0.6230373768990001,0.48190523198,0.30599036788600004,30,3,0
cc,2,2,3,2,0.422984861896,0.422861659544,0.670724387482,31,3,1
cc,2,1,2,2,3.9993085268,0.5639853343,0.32953703251,32,3,0
cc,1,2,2,1,0.528959675486,0.693384765182,0.5295452716669999,33,3,0
cc,2,1,3,3,0.6583637264559999,0.446356348174,0.29424032852,34,3,0
cc,1,1,2,1,0.846480628548,0.7404850245610001,0.36487608730899995,35,3,1
cc,2,2,2,1,0.811269011181,0.716957225298,2.30585754035,36,3,1
cc,1,1,3,2,0.5289766158079999,0.6465986718010001,0.7765409630500001,37,3,1
cc,1,1,2,1,0.587710257328,0.9522382979899999,0.364873392257,38,3,1
cc,1,1,1,1,0.43478341218999994,0.364017135907,0.317756577561,39,3,1
cc,2,2,3,3,0.9759636060250001,0.44639061382899997,0.294227623276,40,3,1
cc,2,1,1,1,0.42296291647699996,0.42291132549099997,0.447197204231,41,3,0
cc,2,1,1,1,0.7054420404170001,0.7757255174779999,0.294229163306,42,3,0
cc,1,1,2,1,1.01125876999,0.611053638069,0.341310172318,43,3,1
cc,2,2,3,2,0.587779173643,0.9404420577410001,0.211891491068,44,3,1
cc,1,1,2,2,0.481827460496,0.811037236756,0.294331190255,45,3,1
cc,1,2,2,1,1.31712401048,1.05807027385,1.14125342223,46,3,0
cc,2,1,2,1,0.504744253092,0.493506658509,0.364622367464,47,3,0
cc,1,1,2,1,0.5171549650739999,0.681531928853,0.317815098679,48,3,1
cc,1,2,1,1,0.811239365616,0.8346270222040001,0.30604195887200003,49,3,0
cc,2,1,1,1,0.9169065583310001,1.25773123638,0.5296330533429999,0,4,0
cc,2,1,1,1,0.575960602968,2.4815729706400003,0.282509154512,1,4,0
cc,1,1,2,2,0.599539223202,0.55221681458,0.0589881313781,2,4,1
cc,1,1,3,2,2.5758678162,0.728761165695,1.4000157083000002,3,4,1
cc,1,1,2,1,1.12879034925,0.364071036936,0.353127972979,4,4,1
cc,2,2,3,2,0.58672579353,0.31798642695,0.7177330151119999,5,4,1
cc,2,2,3,2,0.552716169115,0.410859825368,0.282503764409,6,4,1
cc,1,1,2,1,0.387728583677,0.7875671885950001,0.282528019872,7,4,1
cc,1,1,2,1,0.552654182932,0.352041097224,0.729506154919,8,4,1
cc,2,2,3,2,0.846559940062,0.175799361888,0.376614961462,9,4,1
cc,1,1,2,1,0.5642402091659999,0.575883986505,0.905945784035,10,4,1
cc,1,1,1,1,0.411260618022,0.5169589963319999,0.282513004586,11,4,1
cc,1,1,1,1,0.364424473685,0.222669001864,0.22370159158199998,12,4,1
cc,1,1,2,2,0.505393760493,0.8463605062540001,0.564844670709,13,4,1
cc,2,2,1,1,0.458353947269,0.44633825282799994,0.294150621806,14,4,1
cc,1,1,1,1,2.6345671920599996,0.940449757888,0.306043113893,15,4,1
cc,2,1,1,1,0.376043225546,0.505152360884,2.51762698409,16,4,0
cc,2,1,1,1,0.423133089726,0.32866653088799996,0.329536647502,17,4,0
cc,2,2,2,1,0.564235974086,0.658165447669,0.40012466538099994,18,4,1
cc,2,2,3,2,0.5172065560600001,0.44636982343099996,0.364805245956,19,4,1
cc,1,1,3,2,0.376027055237,0.81108613269,0.764799008837,20,4,1
cc,2,2,3,2,0.70538621435,1.69337436998,0.505965881418,21,4,1
cc,2,1,1,1,0.34067760523900004,0.35228711692299997,0.294267664041,22,4,0
cc,2,1,1,1,0.364887252522,0.281780335596,0.306320319187,23,4,0
cc,1,1,2,1,0.540638873499,0.611164520186,2.08238772319,24,4,1
cc,1,1,2,1,1.1642926471700001,0.540393623816,0.43539249382,25,4,1
cc,1,1,1,1,0.505418015957,0.446376753564,0.294231858357,26,4,1
cc,1,1,3,2,0.470125547047,0.375835706584,1.21183720503,27,4,1
cc,2,2,3,2,0.49363756101000006,0.199321001034,0.8353978069210001,28,4,1
cc,2,2,2,2,1.0230149694700001,0.19931907599800003,0.847170176714,29,4,1
cc,2,1,1,1,0.387758229243,0.32879589335799997,0.329537417517,30,4,0
cc,1,1,1,1,0.505377975192,0.916989334911,0.40014468576300005,31,4,1
cc,2,2,3,2,0.39954407429399996,0.41109506486,0.7412542692499999,32,4,1
cc,1,2,2,1,0.670052934661,0.740504659937,0.435425989459,33,4,0
cc,2,2,1,1,0.611293882657,0.3170358438,0.353055591597,34,4,1
cc,1,1,1,1,0.44658080746000006,0.28167484358100003,0.341280141744,35,4,1
cc,2,1,1,1,0.8700596337890001,0.375805291003,0.317798543363,36,4,0
cc,2,1,1,1,0.387782869714,0.32859106944600003,0.400110035101,37,4,0
cc,1,1,3,3,1.6229900209900001,0.269928654288,0.45893068828199995,38,4,1
cc,1,2,3,2,0.39953367909500004,0.411092754816,0.36485106183,39,4,0
cc,1,1,3,2,0.623038531921,0.799278727227,0.41191667055,40,4,1
cc,1,1,3,2,0.446632013438,0.6110520980399999,0.258941699492,41,4,1
cc,1,1,3,2,0.434820372895,0.281103107664,0.317807013525,42,4,1
cc,2,2,3,2,1.4347399063600002,0.411070809397,0.388392336352,43,4,1
cc,2,2,3,2,0.481919477253,0.39931576493500004,0.329488906591,44,4,1
cc,1,1,1,1,0.39947284793399995,0.375866892178,0.31781394365800003,45,4,1
cc,2,2,3,2,0.622994641082,0.39938429624399996,0.317745027342,46,4,1
cc,1,1,3,2,0.658348711169,0.352262476453,0.329525867297,47,4,1
cc,2,1,1,1,0.44658966263000005,0.575821230306,0.317760427636,48,4,0
cc,2,2,3,2,0.517146879919,0.516949371148,0.458938773436,49,4,1
cc,1,1,1,1,0.540134513869,0.940242238926,0.518093227991,0,5,1
cc,2,2,3,2,0.30538706136599997,0.364039851341,0.306011543291,1,5,1
cc,1,1,1,1,0.387723193574,0.327811044552,0.329560902966,2,5,1
cc,1,1,1,1,0.328745842402,0.246390459826,0.2944540076,3,5,1
cc,2,2,3,2,1.03475307361,0.35221127047399997,0.0951869075943,4,5,1
cc,1,1,2,1,0.38772665864100003,0.375834166553,0.306042728886,5,5,1
cc,2,1,1,1,0.270088817346,0.269950984713,0.294232243365,6,5,0
cc,2,2,3,2,0.32892487082,0.24638930480300003,0.29428537438,7,5,1
cc,2,1,2,1,0.36422965996600004,0.399369280956,0.35306406175800004,8,5,0
cc,1,1,1,1,0.364195394312,0.24642318545000003,0.305965342409,9,5,1
cc,2,2,2,1,1.9286881683000001,0.46994189853999996,0.77665723527,10,5,1
cc,2,2,3,3,0.8226617637270001,0.270433783933,0.3764074425,11,5,1
cc,2,1,1,1,0.305450202572,0.328690401343,0.37660302623499997,12,5,0
cc,1,1,1,1,0.281817681309,0.222924261739,0.317807013525,13,5,1
cc,2,1,1,1,0.270110377758,0.23465620576,0.329538572539,14,5,0
cc,2,1,2,1,1.5170875887900002,0.7758260043970001,0.38835075555799997,15,5,0
cc,1,1,1,1,0.329075023688,0.19932677614500002,0.399982212661,16,5,1
cc,1,1,1,1,0.21127894437199998,0.17583593758699997,0.28246641869600003,17,5,1
cc,1,2,1,3,0.528889989154,3.12857128007,0.6236376033600001,18,5,0
cc,1,1,3,3,0.693562253572,0.422832013976,0.435464105187,19,5,1
cc,2,1,1,1,0.43480189254199997,0.8583269197519999,0.44718603901799997,20,5,0
cc,1,1,1,1,0.328952206342,0.41109660488899996,0.306011928298,21,5,1
cc,1,1,1,1,0.32890639046799997,0.21111223618799999,0.28249452423300003,22,5,1
cc,2,1,1,1,0.270158888684,0.19928673538,0.282450633395,23,5,0
cc,2,1,1,1,0.223024748658,0.187613312476,0.223676566104,24,5,0
cc,1,1,1,1,0.258352638243,0.198650703235,0.294196822689,25,5,1
cc,1,1,3,2,0.4702487494,0.43461978406499996,0.30588487587200003,26,5,1
cc,2,2,3,2,0.870137405273,0.6699016267719999,0.37651254950699997,27,5,1
cc,1,2,3,3,0.799463530756,0.446419104373,0.329550507767,28,5,0
cc,2,2,3,3,0.599595434274,0.5168704446410001,0.764785148573,29,5,1
cc,1,1,3,3,0.458324301702,0.422885529999,0.81185961246,30,5,1
cc,1,1,3,3,0.47011707688500004,0.305173767293,0.388358455705,31,5,1
cc,2,2,3,2,0.64654669581,0.9287158888299999,0.588318183936,32,5,1
cc,2,2,3,2,1.31695884233,0.328769712858,0.294396641504,33,5,1
cc,2,2,2,2,0.693632709917,0.658128101955,1.18830286064,34,5,1
cc,1,2,3,3,0.728924408812,0.587505048409,0.364819876236,35,5,0
cc,1,1,1,1,0.434876968975,0.4580571066,2.0941416126299996,36,5,1
cc,2,2,3,2,1.09365188328,0.9874726307899999,0.305988057842,37,5,1
cc,1,1,3,2,0.858331539841,0.340550552813,1.01182588582,38,5,1
cc,2,2,3,2,0.6691574075600001,0.294365455909,0.270741404807,39,5,1
cc,2,2,3,2,0.434773401998,0.22287190073899998,0.294271899122,40,5,1
cc,2,1,1,1,1.6817417578600002,0.5994329611720001,0.411931685835,41,5,0
cc,1,2,1,3,0.764405146317,0.35222205068,0.341142309112,42,5,0
cc,1,1,3,3,1.07006440788,0.31702852866000003,0.506002842125,43,5,1
cc,2,2,3,2,0.44655000687299995,0.364110692693,0.294266124011,44,5,1
cc,1,1,2,2,0.41124021263099997,0.458163753637,0.49425395777900005,45,5,1
cc,2,2,3,3,0.928911857573,0.434828458049,0.29421260799000004,46,5,1
cc,2,2,3,3,0.646608681993,0.422828548912,0.353068296839,47,5,1
cc,1,1,3,3,0.517249291875,0.49345391250200005,0.353037496251,48,5,1
cc,1,2,2,1,1.0112345145200001,0.8581525114219999,0.494227392272,49,5,0
cc,2,1,1,1,0.469903782813,0.599086069548,0.470737323729,0,6,0
cc,2,2,3,3,0.528567352993,0.340579813372,0.388712277461,1,6,1
cc,2,1,1,1,0.246577958406,0.19939915752700002,0.270732549638,2,6,0
cc,2,2,2,2,0.611318908134,0.893351038538,0.35307830703000004,3,6,1
cc,1,2,1,1,1.8111789194599999,0.399319615008,0.317780448017,4,6,0
cc,1,1,3,2,0.39959643529399996,0.30513064647,0.306015008357,5,6,1
cc,2,2,3,2,0.375832626524,0.32869540643899997,0.282703583225,6,6,1
cc,1,1,3,2,0.293629321853,0.446431039601,0.611897189176,7,6,1
cc,1,1,3,2,0.39966150153700003,0.340512822092,0.305848685181,8,6,1
cc,1,1,3,2,0.270138098287,0.258131259016,0.294288069431,9,6,1
cc,1,1,1,1,0.258320682633,0.7287461504070001,0.976595788097,10,6,1
cc,2,1,1,1,0.423056088256,1.3757255944799998,0.6118767837870001,11,6,0
cc,2,2,2,2,0.63473736531,0.905243530626,0.341370618472,12,6,1
cc,1,1,2,2,0.717151269004,0.422849339308,0.188371776959,13,6,1
cc,2,1,1,1,0.434856178578,0.658110006611,0.435384408665,14,6,0
cc,2,1,1,1,0.317188306711,0.30457816091999995,0.49421892211,15,6,0
cc,2,1,1,2,2.9875819728799997,0.775777878479,1.27064361294,16,6,0
cc,1,1,3,2,0.8230117354100001,0.916946214088,0.635423063403,17,6,1
cc,1,1,3,2,1.10536072686,0.822848877299,0.35307445695699996,18,6,1
cc,1,1,2,2,0.975960140959,1.26985126781,1.05886723907,19,6,1
cc,2,2,3,2,0.705381979268,0.999274646149,0.341294002009,20,6,1
cc,2,2,2,2,1.5523531071799999,0.446414869292,1.25894092948,21,6,1
cc,1,1,3,2,0.5524555191380001,0.39932731515500003,0.294212222982,22,6,1
cc,1,1,3,2,1.22286766566,0.9288629616390001,0.317756577561,23,6,1
cc,1,1,3,2,0.646586736574,0.657531725568,0.329532027414,24,6,1
cc,2,2,3,2,0.44661815317299997,0.37579836086999996,0.72951770514,25,6,1
cc,2,2,3,2,0.399519433823,0.305082135543,0.294271899122,26,6,1
cc,2,2,3,2,0.269999110633,0.246417795348,0.317829343951,27,6,1
cc,1,1,3,2,0.540486410588,0.328591069447,0.42383957821699997,28,6,1
cc,1,1,2,2,0.37676472932300004,0.47000696478299997,0.18755209630800002,29,6,1
cc,1,2,2,2,0.517096443957,0.622866048628,0.635225554632,30,6,0
cc,2,2,3,2,0.49366913161200005,0.211065650298,0.353075226972,31,6,1
cc,2,2,3,3,0.646559401051,0.246408555172,0.341314407399,32,6,1
cc,1,1,3,2,0.44649148575400005,0.6816601363,0.294312709901,33,6,1
cc,1,1,1,1,0.234802893561,0.187624477689,0.24720398036,34,6,1
cc,1,1,1,1,0.23484562937800002,0.21110030096000001,0.270666713381,35,6,1
cc,1,1,1,1,0.199529290012,0.199339866395,0.294255343806,36,6,1
cc,2,2,3,2,0.7643955211319999,1.05805525857,0.341133453943,37,6,1
cc,2,1,3,1,0.246590663649,0.7757628631919999,0.36485375688199995,38,6,0
cc,2,1,1,1,0.223022438613,0.199356036704,0.34134405296400006,39,6,0
cc,1,1,3,2,0.45829542615099994,0.458168373725,0.38838001611699996,40,6,1
cc,2,1,3,2,0.39951596875699996,0.23472897215,0.29424302357,41,6,0
cc,1,1,3,3,0.6229927160459999,0.316996188042,0.28244408827,42,6,1
cc,1,1,2,1,1.12890315641,0.364033691223,0.9177427942990001,43,6,1
cc,2,2,3,2,0.41126677813900003,0.811121553365,0.43539865393700006,44,6,1
cc,2,1,1,1,0.199524669923,0.752257009348,0.28249144417399996,45,6,0
cc,2,2,1,1,1.1641582795999998,0.858136726121,1.0236067257700001,46,6,1
cc,1,1,3,2,0.8112867215199999,0.858089755225,0.35305366656,47,6,1
cc,1,1,1,1,2.11724397877,0.775566124435,0.44717718384800004,48,6,1
cc,2,2,2,2,0.540653888786,0.5757942797919999,0.106073375471,49,6,1
cc,1,1,1,1,0.422930575859,0.8461468271729999,0.623527491257,0,7,1
cc,1,1,2,2,0.399412016773,0.505262087979,0.32962057910500003,1,7,1
cc,1,1,1,1,0.293513434639,0.752280109789,0.58846718178,2,7,1
cc,2,2,2,2,0.493640256061,0.658131567022,1.0235851653599999,3,7,1
cc,2,2,3,2,0.670092975425,0.505177386362,0.6824728868209999,4,7,1
cc,2,1,2,2,0.552467839374,1.22278950917,0.341319412494,5,7,0
cc,2,2,3,3,0.587720652526,0.293424882949,0.364877242331,6,7,1
cc,1,1,1,1,0.340657199849,0.9405055839540001,0.34134443797200004,7,7,1
cc,2,2,1,1,0.41128063840400003,1.01094036891,0.353066371802,8,7,1
cc,1,1,1,1,1.48180513007,0.422865894624,0.576552359267,9,7,1
cc,1,1,2,2,0.316556894654,0.341139229054,0.294216458064,10,7,1
cc,2,1,1,2,1.8113356174500002,0.269776191376,0.341319027487,11,7,0
cc,1,1,2,2,0.870102369605,1.59920696186,0.294238018475,12,7,1
cc,2,1,1,1,0.8229347339380001,0.575765019234,0.36490881293399996,13,7,0
cc,1,1,1,1,0.458343167063,0.481682312724,0.329530487385,14,7,1
cc,1,1,1,1,0.281881977537,0.458178768923,0.34129631205300004,15,7,1
cc,2,1,1,1,0.281902382926,0.258016911833,0.258942469506,16,7,0
cc,1,1,3,2,0.305411701836,0.25818901011900003,0.305992677931,17,7,1
cc,2,1,3,2,0.341075317833,0.30499550889000004,0.282332436138,18,7,0
cc,2,2,3,2,0.270054936699,0.43467599513800004,0.27074833494,19,7,1
cc,1,2,1,2,0.317166746298,2.55212518283,0.35308177209700004,20,7,0
cc,2,2,3,2,0.293640102058,0.434601688719,0.45894185349399996,21,7,1
cc,1,1,3,2,0.281734904728,0.258175534862,0.306112415216,22,7,1
cc,2,1,1,1,0.258246376215,0.964327528834,0.306029638636,23,7,0
cc,1,1,3,3,0.7877146464110001,0.317024293579,0.6118779388100001,24,7,1
cc,2,2,3,3,0.670066794925,0.399376596096,0.494240482521,25,7,1
cc,1,1,1,1,0.681848019888,0.599312838879,0.376627281697,26,7,1
cc,2,2,3,2,0.623016201494,0.658198943309,0.294281524305,27,7,1
cc,1,1,1,1,0.658310595441,0.552260705418,0.270543511028,28,7,1
cc,2,2,2,2,1.65821588363,0.858000048511,0.329564753039,29,7,1
cc,1,1,1,1,0.293696698138,0.352231675864,0.32956321300999997,30,7,1
cc,1,1,2,2,0.9524446619320001,0.775807909053,0.3177219269,31,7,1
cc,1,1,1,1,0.775999642713,0.799254856772,0.7647947737559999,32,7,1
cc,1,1,1,1,0.611206870995,0.552270715609,0.50607175844,33,7,1
cc,2,2,2,1,0.893495416294,0.575820845299,0.729496529736,34,7,1
cc,2,1,1,1,0.528907699492,0.705225666284,0.6118348179850001,35,7,0
cc,2,1,1,1,0.47004508051000005,0.669955527801,0.317808168546,36,7,0
cc,2,1,1,1,0.375957368906,0.7170122813500001,0.317811633614,37,7,0
cc,2,1,1,1,0.36419693434100003,0.352279801783,0.282499529329,38,7,0
cc,1,1,1,1,0.37598547444200003,0.375794895804,0.306038108798,39,7,1
cc,1,1,1,1,0.446569257239,0.293467233757,0.37662689669,40,7,1
cc,2,2,3,3,0.517002502163,0.44658850760799995,0.7765247927410001,41,7,1
cc,1,1,2,2,0.481785879701,0.399370050971,1.3883080197400002,42,7,1
cc,2,1,2,1,0.49359405517800004,0.35226132143,0.658983588291,43,7,0
cc,1,2,1,3,0.564275244836,0.6933916953139999,0.32949660673799996,44,7,0
cc,1,1,1,1,0.458296581173,0.599341329423,0.31778006301,45,7,1
cc,2,2,2,1,0.387672757611,0.38764388206,0.306078149562,46,7,1
cc,2,2,2,2,0.47011823190800006,1.71689061903,0.7059756606059999,47,7,1
cc,2,2,3,2,0.328854029468,1.9286546726599998,0.317837429106,48,7,1
cc,1,1,1,1,0.340691465504,0.7051802354160001,0.270755650079,49,7,1
cc,1,1,2,2,0.599288583416,0.9637269173649999,1.0941958986700002,0,8,1
cc,2,1,2,2,0.529037061963,0.528759086655,0.32940458998000005,1,8,0
cc,2,2,3,2,0.634822836942,0.516951681192,0.8000999479080001,2,8,1
cc,1,1,3,2,0.540752835675,1.71687637375,0.5765331089,3,8,1
cc,2,2,3,3,0.5877553031880001,0.38755456035499997,0.376602641227,4,8,1
cc,1,1,1,1,0.5525390657329999,0.669784584537,0.27076758530699996,5,8,1
cc,2,2,2,2,1.26993635443,0.528573513111,0.717855832457,6,8,1
cc,1,1,3,3,0.528903849418,0.434718345947,1.18830132061,7,8,1
cc,1,1,2,2,0.458281565887,0.399433577184,0.600138679648,8,8,1
cc,2,1,1,1,1.03477001393,0.352280571798,0.235453170978,9,8,0
cc,2,2,3,3,0.564241364189,0.352226670768,0.8471590115009999,10,8,1
cc,2,2,2,1,0.940655736821,0.516979016715,1.8823817940799998,11,8,1
cc,1,1,2,2,1.03478271918,0.505344094545,0.611862153508,12,8,1
cc,1,1,3,2,0.540697394616,0.587475017835,0.341297467075,13,8,1
cc,2,2,3,2,0.411281793426,0.411086594699,0.353055976604,14,8,1
cc,2,2,3,2,0.481899841878,0.7051448147399999,1.0589065098200001,15,8,1
cc,1,1,3,3,1.17588098345,0.528744071368,0.43546333517200003,16,8,1
cc,2,2,3,3,0.881829693538,0.42287667483,0.305935696842,17,8,1
cc,1,1,1,1,0.811304431858,0.469942668556,0.435367468342,18,8,1
cc,1,1,3,3,0.681833389609,0.622867973664,1.9294054369999998,19,8,1
cc,2,2,2,2,0.870027678178,0.43462093908699995,0.9295217092170001,20,8,1
cc,2,2,3,2,0.705355798769,0.646392307862,0.294275364187,21,8,1
cc,1,1,3,3,0.85816444665,0.33999999229999994,0.88246187561,22,8,1
cc,1,1,1,1,0.552298821146,0.5993189989959999,0.270727159535,23,8,1
cc,1,1,3,3,0.9522879639380001,0.564019599955,0.317909810487,24,8,1
cc,2,2,3,3,1.18766336343,0.399351185612,0.564803089916,25,8,1
cc,2,2,3,2,0.469888767526,0.422896695212,0.282681637806,26,8,1
cc,1,1,2,2,0.599533833099,0.799377674117,0.282450633395,27,8,1
cc,1,2,2,2,1.1288581105500002,0.575775029424,0.34133596781099995,28,8,0
cc,2,2,2,2,0.434833078138,0.728727670055,0.29426111891600004,29,8,1
cc,2,1,1,1,0.528945815221,0.316996188042,0.047190736107,30,8,0
cc,1,1,2,1,1.7525195843599999,0.8463712864599999,0.69405236793,31,8,1
cc,2,2,1,1,0.528930799934,0.858155976488,0.34126743650200003,32,8,1
cc,1,2,1,1,0.634753150612,0.705274947225,0.294264198975,33,8,0
cc,2,1,1,1,1.12894050212,0.752038710179,0.247155084427,34,8,0
cc,1,1,2,2,0.811258230976,0.364071806951,0.329552432803,35,8,1
cc,2,1,1,1,0.364223114841,0.31696153738,0.306023478518,36,8,0
cc,1,1,1,1,0.317137870748,0.281688703845,0.611889874037,37,8,1
cc,2,1,1,1,0.293630861881,0.25819401521499996,0.270703674087,38,8,0
cc,1,1,1,1,0.281962444073,0.23457727925299998,0.282490289152,39,8,1
cc,1,1,3,3,0.623050852156,0.316986947866,0.47069266287600003,40,8,1
cc,1,1,2,2,0.48188636662100004,0.38753877505199996,1.22356452896,41,8,1
cc,2,2,3,3,0.622967690568,0.35230213221,1.0472007463,42,8,1
cc,2,2,3,3,0.5514448748399999,0.459179788038,0.7530609046979999,43,8,1
cc,2,2,3,3,0.5642455992700001,0.458118322769,0.541282605791,44,8,1
cc,1,1,3,3,0.41130450886,0.434598223654,0.752901511654,45,8,1
cc,2,2,2,2,0.399499028435,0.44642834454999997,0.329521247209,46,8,1
cc,1,1,1,1,0.35243457473800005,0.6464011630300001,0.294274209166,47,8,1
cc,2,2,2,2,0.458337391952,0.493389616275,0.32955089277399996,48,8,1
cc,1,1,2,2,0.47015442259900003,0.505218197141,0.894209219925,49,8,1
cc,1,1,1,1,0.305229593358,0.751957473628,0.564837355569,0,9,1
cc,1,1,3,2,0.52892694986,0.940493648726,0.28249914432100004,1,9,1
cc,2,1,1,1,0.305345095564,0.599359039761,0.306014623349,2,9,0
cc,2,2,3,3,0.528930029919,0.399338865375,0.600134829574,3,9,1
cc,1,1,3,2,0.399491713295,0.799329933206,0.7413228005589999,4,9,1
cc,1,1,3,2,0.54057919736,0.669923957197,0.38844546736599994,5,9,1
cc,2,1,1,1,0.34073920641500005,0.5874831029909999,0.306000763085,6,9,0
cc,2,2,3,2,0.7642091775740001,0.869881375385,0.294254188784,7,9,1
cc,1,1,3,2,0.446494180806,0.822861967549,1.7295331054299998,8,9,1
cc,2,2,3,2,0.569783160009,0.42286281456600006,0.48873603241499997,9,9,1
cc,1,1,3,2,0.564355711373,1.10518246846,0.37643939811,10,9,1
cc,2,1,1,1,0.375929263369,0.7523163004800001,0.294294614555,11,9,0
cc,1,1,1,1,0.340657199849,0.258191320163,0.17659517208500003,12,9,1
cc,2,2,2,2,0.34068800043799996,0.6816374208670001,0.30603348870999997,13,9,1
cc,1,1,1,1,0.328917555681,0.269317262613,0.282521089741,14,9,1
cc,2,2,3,2,0.587689851938,0.775817919243,0.329585158428,15,9,1
cc,2,2,1,1,1.04655085389,0.9287101137200001,1.23538232963,16,9,1
cc,1,1,3,2,0.45907352600900003,1.09343165908,0.305221508205,17,9,1
cc,2,1,1,1,0.293598906272,0.364076812047,0.36487762733900003,18,9,0
cc,1,1,1,1,0.28187312236699996,0.234627715216,0.576546584158,19,9,1
cc,1,1,1,1,0.18779426593100002,0.18760253227,0.47069805298,20,9,1
cc,1,2,2,2,0.42305300819700004,0.375761785172,0.294241868548,21,9,0
cc,1,1,2,2,0.42300873235200004,0.634628793237,0.43543368960600004,22,9,1
cc,1,1,1,1,0.29360545139600003,0.61041529588,0.317804318473,23,9,1
cc,2,1,1,1,0.623197924964,0.552056266514,0.494239327501,24,9,0
cc,2,1,1,1,0.37598085435500006,0.364064106804,0.09423786447219999,25,9,0
cc,2,1,1,1,0.328901385372,0.281702564111,0.29428729941599996,26,9,0
cc,2,2,2,2,0.340673370159,0.8699487516709999,0.294299619651,27,9,1
cc,2,1,1,1,0.28184771188200003,0.211198092828,0.29419451264400004,28,9,0
cc,1,1,1,1,0.293613151543,0.23463310531999998,0.317830113966,29,9,1
cc,1,1,2,2,0.42304569305699996,0.7522935850460001,0.353068296839,30,9,1
cc,1,1,3,2,0.975972076187,0.35223090584899996,0.36484528672100003,31,9,1
cc,2,1,1,1,0.340685690394,0.34052706736500005,0.4353809436,32,9,0
cc,2,1,1,1,0.36417806898,0.316997728071,0.153112033674,33,9,0
cc,1,1,1,1,0.281850406934,0.24645591107599998,0.306023478519,34,9,1
cc,1,1,3,2,0.5526514878800001,0.43441996525,0.753037034242,35,9,1
cc,2,1,1,1,0.293584275993,0.317013898381,0.282526479843,36,9,0
cc,1,1,3,2,0.599468381849,0.26992518922200004,0.388434687161,37,9,1
cc,2,2,3,3,0.92873475419,0.340657584857,0.341332502744,38,9,1
cc,2,1,1,1,0.364188849187,0.693442516285,0.22372854209600002,39,9,0
cc,2,2,3,2,0.458342012041,0.540351273007,0.329567063083,40,9,1
cc,2,2,3,2,0.44656040207099995,0.764018598935,2.2117486533400004,41,9,1
cc,1,1,3,2,0.47009821152599995,0.5052436076269999,0.364638537772,42,9,1
cc,1,1,3,2,0.4465938977100001,0.317008508277,0.294236093438,43,9,1
cc,2,1,1,1,0.340658354871,0.29352267481600003,0.10605066003699999,44,9,0
cc,1,1,2,2,0.45834355206999994,0.528725206008,0.329552432803,45,9,1
cc,1,1,1,1,0.317115155314,0.25813241403799997,0.270821486336,46,9,1
cc,2,2,2,2,0.646574031332,0.422820848764,0.306022323496,47,9,1
cc,1,1,2,2,0.38773204874399997,0.7640386193179999,0.317779292996,48,9,1
cc,2,2,2,2,0.493652191289,1.21102868959,0.764810559058,49,9,1
ck,2,1,2,2,2.4697478548400005,5.01054265631,0.694195205659,0,0,0
ck,2,1,1,2,0.811279021373,1.4816434269799998,1.08240081344,1,0,0
ck,1,1,1,1,7.5401472191100005,1.1522858079,0.541324956599,2,0,1
ck,1,1,2,1,0.799555162506,1.35218547498,2.2235117829599997,3,0,1
ck,1,1,2,1,0.881937495597,1.71684364813,1.37647597381,4,0,1
ck,2,1,2,2,0.611132564576,4.46984757174,2.84701809881,5,0,0
ck,1,1,1,1,2.02293142287,0.84640593712,0.0119336878743,6,0,1
ck,2,1,1,1,1.12889815131,2.8462450040499996,2.0706099633,7,0,0
ck,2,2,2,2,0.9054056187200001,0.8228342470190001,1.61174203121,8,0,1
ck,1,1,2,1,1.19958858114,1.9050082911300001,1.16474926589,9,0,1
ck,1,1,2,1,0.41126677813900003,2.32867615607,1.0000731514,10,0,1
ck,2,2,3,3,2.8111442688,0.669896621675,0.647176567836,11,0,1
ck,2,2,2,2,1.15240708521,2.63454794169,2.8469630427599997,12,0,1
ck,1,1,2,2,1.42302105259,1.57576039914,3.5763252049300003,13,0,1
ck,2,2,2,1,1.340612539,1.78750635743,0.882414904712,14,0,1
ck,1,1,1,1,2.14062278019,1.17561725341,0.35303749625200004,15,0,1
ck,1,1,3,1,1.34063140436,1.16399734653,3.2704888399799996,16,0,1
ck,2,2,1,1,0.646595591743,1.44635134308,2.5528925024799998,17,0,1
ck,2,1,1,1,1.3523991540600002,0.8700727240389999,1.4118023233599999,18,0,0
ck,1,2,2,2,1.64650858008,1.34042619544,0.282484129035,19,0,0
ck,1,1,1,1,0.8700503936120001,1.45818415903,0.24720051529399997,20,0,1
ck,2,2,1,2,0.5047346279079999,1.2351636454500001,0.78838378919,21,0,1
ck,1,1,1,1,0.8936513442730001,1.29336790186,0.294207987901,22,0,1
ck,1,2,1,2,1.1053722770799999,0.8934461353550001,0.317737327194,23,0,0
ck,2,1,1,1,0.7995116566760001,1.18753900606,0.7647489578810001,24,0,0
ck,2,2,1,1,1.49359405518,1.14054808876,0.282441778225,25,0,1
ck,2,2,1,1,0.91711754236,0.9993566527159999,1.0824416242200001,26,0,1
ck,1,2,2,1,4.7757925087599995,1.66953009468,3.7410721607699995,27,0,0
ck,2,2,3,2,0.952417711416,2.89335026852,4.4704100674800005,28,0,1
ck,1,1,2,1,1.71712046842,1.41103307868,0.6941609400040001,29,0,1
ck,1,1,3,2,1.07006325286,1.37576101516,2.0117257839,30,0,1
ck,2,1,2,1,0.811292881639,2.6344998157700004,0.04719497118819999,31,0,0
ck,2,1,1,2,0.9406626669529999,1.59925739782,1.24711311862,32,0,0
ck,1,1,3,3,0.623018126531,0.6817121122930001,1.83531657037,33,0,1
ck,1,1,2,2,0.67014726146,3.46968432862,0.435354378093,34,0,1
ck,2,1,3,1,0.9043068077390001,0.9764487152879999,0.718143047941,35,0,0
ck,2,1,1,1,0.752289349966,1.8346693730099999,2.3411854299400003,36,0,0
ck,2,1,3,1,0.858313829503,1.7875852839400002,0.847113195627,37,0,0
ck,1,1,2,1,1.4935986752700001,1.16397617112,0.7059575652600001,38,0,1
ck,1,1,2,2,0.681895375792,1.08163772887,0.823573846143,39,0,1
ck,2,1,2,2,0.858324994717,2.64625948032,2.71759441247,40,0,0
ck,2,1,1,1,1.2936016013200002,0.7640274541050001,0.258926684206,41,0,0
ck,1,1,3,2,0.40024132260799994,1.18755440635,0.340520522241,42,0,1
ck,1,2,3,3,0.693889509821,0.646092772142,3.39986517043,43,0,0
ck,1,2,1,2,1.28085554794,1.8817496120099997,0.317814328664,44,0,0
ck,1,1,2,1,0.846564945157,3.1756018531200003,5.3291801307,45,0,1
ck,2,1,1,2,1.31691572151,1.61101167227,0.741440227801,46,0,0
ck,1,1,2,1,1.89352005676,0.669943592573,0.341293231993,47,0,1
ck,2,2,3,3,0.83481644582,0.846377831584,0.341297852081,48,0,1
ck,2,1,2,1,0.670111070771,1.05812186484,0.12955266380799998,49,0,0
ck,2,2,2,2,2.69326926298,0.7049858067039999,3.03524280296,0,1,1
ck,1,1,1,1,1.21134786069,1.1286763870799998,0.282475658872,1,1,1
ck,1,2,1,2,0.9406168510799999,1.2933956223899998,0.27074140480500003,2,1,0
ck,2,2,1,2,0.634797811465,0.9992657909810001,2.62347012516,3,1,1
ck,1,1,3,1,0.64660175186,0.7169410549899999,0.6353891827570001,4,1,1
ck,2,1,2,2,0.399507498594,0.822881602924,4.02333722062,5,1,0
ck,2,1,1,1,1.48179935496,0.481671532518,0.306010388269,6,1,0
ck,1,2,2,2,0.493610225489,0.799341868433,1.34121892558,7,1,0
ck,1,2,3,2,1.31705278412,0.8581713767839999,1.18829862556,8,1,0
ck,2,2,2,3,1.94057411526,0.587610925431,0.54127413563,9,1,1
ck,1,1,2,2,0.340842773392,1.8580905252400002,0.34104490225199996,10,1,1
ck,2,1,2,2,1.7170769625799998,6.33996649666,4.25864408881,11,1,0
ck,1,1,2,1,1.56413972225,3.37564897802,0.294250338709,12,1,1
ck,2,2,1,2,0.611258076973,1.05813649512,2.7175647669,13,1,1
