"Subj_idx","Run","Block","Trial","Difficulty_col","Difficulty_let","Number_blues","Number_os","Stimulus_col","Stimulus_let","Response_col","Response_let","Accuracy_col","Accuracy_let","RT_dec_col","RT_dec_let","Confidence_col","Confidence_let","RT_confidence_col","RT_confidence_let","Taskorder","Locationchoice_col","Locationchoice_let","Initposconf_col","Initposconf_let"
1,1,1,1,90,90,35,20,2,2,1,2,0,1,0.4814,4.0563,88.0948,86.7631,0.51648,0.74977,2,1,1,73.5574,64.0137
1,1,1,2,90,90,35,20,2,2,2,2,1,1,0.44951,1.0896,84.3217,74.7781,0.63311,0.78296,2,2,2,89.3155,59.5748
1,1,1,3,90,90,35,60,2,1,2,1,1,1,0.85307,0.70519,69.4513,71.3379,0.68307,0.5497,1,2,1,94.5312,73.2244
1,1,1,4,60,60,41,44,1,1,1,1,1,1,0.39491,0.95733,79.8828,61.3503,0.66641,0.59976,2,1,1,77.7743,57.4663
1,1,1,5,60,60,39,44,2,1,2,1,1,1,1.9169,0.33776,59.4638,61.7942,0.58302,0.83302,1,2,1,59.4638,99.3031
1,1,1,6,60,60,41,44,1,1,2,2,0,0,0.55531,2.2892,68.7855,70.894,0.34988,0.53314,2,1,1,68.7855,69.4513
1,1,1,7,60,90,39,60,2,1,2,1,1,1,1.1853,0.87129,59.4638,79.9938,0.78295,0.68308,2,2,2,99.1921,63.1259
1,1,1,8,90,60,45,36,1,2,1,2,1,1,0.38756,0.70217,93.0886,81.2145,0.86631,0.49981,2,2,1,60.4625,68.7855
1,1,1,9,90,60,45,36,1,2,1,2,1,1,0.32936,1.426,90.7582,70.4501,0.6331,0.833,2,2,1,72.1147,58.465
1,1,1,10,90,60,35,36,2,2,2,1,1,0,0.4116,2.1241,86.9851,60.5735,0.79967,0.89965,2,1,1,84.2108,77.5524
1,1,1,11,90,60,45,36,1,2,1,2,1,1,1.3191,1.507,90.2033,69.2294,0.56648,0.63309,1,2,1,81.1035,76.1097
1,1,1,12,90,90,35,20,2,2,1,2,0,1,1.5628,0.43249,87.6509,98.9702,0.64978,0.5831,1,1,2,59.6857,78.7731
1,1,1,13,90,60,45,36,1,2,1,2,1,1,0.83963,0.37085,94.8642,67.4538,0.98295,0.64976,1,2,1,54.359,86.7631
1,1,1,14,60,60,41,44,1,1,1,1,1,1,0.38874,1.5083,78.8841,63.4588,0.76636,0.61643,2,2,2,85.2095,73.2244
1,1,1,15,60,90,39,60,2,1,1,1,0,1,0.33579,1.4784,74.6671,67.3429,0.93298,0.983,2,2,1,78.7731,98.0824
1,1,1,16,60,60,39,36,2,2,2,2,1,1,1.2156,0.38967,96.4178,70.783,0.58311,0.48317,1,2,1,95.641,75.4439
1,1,1,17,90,90,45,60,1,1,1,2,1,0,0.62324,0.43585,83.101,72.3366,0.6331,0.58311,1,2,2,92.0898,79.3279
1,1,1,18,90,90,35,60,2,1,2,1,1,1,0.67392,0.39718,89.3155,81.6584,0.49982,0.94965,1,2,1,86.3192,59.2418
1,1,1,19,60,90,41,20,1,2,1,2,1,1,0.90737,0.58198,65.2344,94.5312,0.69978,0.44984,2,1,2,59.4638,90.0923
1,1,1,20,90,60,35,36,2,2,2,2,1,1,1.281,0.42024,74.2232,81.6584,0.5831,0.6831,1,2,1,58.2431,55.5797
1,1,1,21,60,90,41,20,1,2,1,2,1,1,0.6602,0.44964,71.005,85.9863,0.48315,0.81635,1,1,2,75.7768,98.1934
1,1,1,22,60,60,41,44,1,1,2,1,0,1,0.63935,0.50312,83.9888,81.5474,0.89971,0.84965,1,1,1,50.0311,65.7892
1,1,1,23,60,90,39,60,2,1,1,1,0,1,0.73782,0.36516,82.9901,87.6509,0.68309,0.49982,1,2,2,56.1346,73.7793
1,1,1,24,60,90,41,60,1,1,2,1,0,1,1.323,1.3201,85.0985,80.8816,0.58312,0.58311,2,1,2,59.6857,80.1048
1,1,2,1,90,90,35,60,2,1,1,1,0,1,0.82804,0.69438,63.1259,83.323,0.68307,0.88302,2,2,2,81.8803,70.1172
1,1,2,2,90,90,35,60,2,1,1,1,0,1,0.44004,1.1595,75.6658,89.3155,0.61642,0.53318,2,2,1,82.4352,72.6696
1,1,2,3,90,60,35,36,2,2,2,2,1,1,1.3158,0.39759,88.2058,81.3255,0.6331,0.53313,1,1,1,97.5275,84.0998
1,1,2,4,60,60,41,44,1,1,1,2,1,0,0.76685,0.39231,84.6547,85.0985,0.46649,1.1662,1,1,2,83.5449,54.9139
1,1,2,5,90,60,35,44,2,1,2,1,1,1,0.69455,0.52788,86.2083,85.6534,0.61643,0.63309,1,2,1,70.6721,84.6547
1,1,2,6,90,90,35,20,2,2,2,2,1,1,0.43821,0.83642,81.4364,85.4315,0.69978,0.56645,2,2,1,97.9714,69.2294
1,1,2,7,90,60,45,36,1,2,1,1,1,0,0.69998,0.36084,84.5437,78.1072,0.49978,0.59982,1,2,2,71.4489,64.3466
1,1,2,8,90,60,45,44,1,1,1,1,1,1,0.33389,1.0412,83.6559,67.4538,0.38315,0.61641,2,1,2,74.5561,93.9764
1,1,2,9,90,60,45,44,1,1,1,2,1,0,0.69852,0.42747,94.5312,90.6472,0.98296,0.4832,1,2,2,60.3516,82.4352
1,1,2,10,60,60,39,36,2,2,1,1,0,0,0.47981,0.9269,75.3329,66.899,0.88299,0.66641,2,2,1,57.2443,55.0249
1,1,2,11,60,90,39,20,2,2,2,2,1,1,0.72175,0.60803,85.2095,81.1035,0.6831,0.66642,2,2,1,89.0936,93.4215
1,1,2,12,60,90,41,20,1,2,1,2,1,1,1.4564,0.36634,77.6634,96.4178,0.86634,0.89964,1,2,1,68.1197,59.6857
1,1,2,13,90,90,45,60,1,1,1,1,1,1,0.5973,0.48143,76.2207,82.6571,0.89965,0.59973,1,2,1,61.4613,64.1246
1,1,2,14,60,90,39,60,2,1,1,1,0,1,0.33097,1.2014,82.4352,86.4302,0.71636,0.48315,2,1,2,51.0298,79.3279
1,1,2,15,90,60,45,44,1,1,1,1,1,1,1.7814,0.43688,77.7743,94.5312,0.4165,0.53314,1,1,1,66.2331,62.0162
1,1,2,16,60,60,41,36,1,2,1,2,1,1,0.90842,0.73067,78.2182,94.6422,0.39982,0.44983,2,1,2,87.207,81.1035
1,1,2,17,60,60,39,44,2,1,1,1,0,1,0.4565,0.66564,83.5449,79.106,0.68307,0.59977,2,1,1,90.8691,81.9913
1,1,2,18,60,60,41,44,1,1,1,2,1,0,0.29571,1.268,84.9876,62.3491,0.53312,1.0663,2,2,1,50.364,98.8592
1,1,2,19,90,90,45,20,1,2,1,2,1,1,0.4125,0.56034,80.3267,96.1958,0.54979,0.68302,2,1,2,91.313,95.752
1,1,2,20,60,90,39,20,2,2,1,2,0,1,0.87401,0.3884,61.0174,97.4165,0.76639,0.53314,1,2,1,50.253,61.1284
1,1,2,21,60,90,41,20,1,2,1,2,1,1,0.35794,0.76094,97.3056,91.424,1.4495,0.93303,2,2,1,72.5586,52.3615
1,1,2,22,60,90,41,60,1,1,2,1,0,1,0.65185,0.40293,83.212,87.8729,0.74972,0.66641,1,1,1,68.3416,65.5673
1,1,2,23,60,60,39,36,2,2,1,1,0,0,0.81579,0.31032,88.2058,81.2145,0.6998,0.58317,1,1,2,70.1172,98.4153
1,1,2,24,90,90,35,20,2,2,1,2,0,1,1.2509,0.31029,70.2282,90.7582,0.78304,0.54979,1,1,2,56.2456,65.4563
1,1,3,1,90,90,35,20,2,2,1,2,0,1,0.90959,0.55708,70.5611,89.2045,0.84968,0.58311,1,1,1,92.7557,98.0824
1,1,3,2,90,60,45,44,1,1,1,2,1,0,0.39008,0.98408,88.4277,69.6733,1.0829,1.0496,2,1,2,82.2132,61.5723
1,1,3,3,60,60,41,36,1,2,2,2,0,1,1.1196,0.54102,76.7756,65.1234,0.61644,0.61643,1,1,1,88.8716,92.2008
1,1,3,4,60,90,41,60,1,1,1,1,1,1,0.35135,0.6972,88.8716,91.8679,0.76643,0.39984,2,2,1,61.2393,84.6547
1,1,3,5,90,60,35,44,2,1,2,1,1,1,0.41619,0.69397,72.5586,64.2356,0.91632,0.59981,2,2,2,86.2083,75.7768
1,1,3,6,90,90,35,60,2,1,2,1,1,1,0.58408,0.34281,96.4178,91.2021,0.61643,0.883,1,2,2,93.7544,68.4526
1,1,3,7,90,90,45,60,1,1,2,1,0,1,0.73248,0.40603,79.217,82.8791,0.48313,0.81635,1,2,1,86.9851,54.8029
1,1,3,8,60,90,39,60,2,1,2,1,1,1,0.66809,0.35677,81.1035,82.7681,0.58308,0.51646,1,1,1,75.2219,68.7855
1,1,3,9,60,60,39,36,2,2,2,2,1,1,0.8777,0.37901,72.0037,61.1284,0.53311,0.69977,1,2,1,55.5797,90.6472
1,1,3,10,60,60,41,44,1,1,2,1,0,1,0.3808,1.295,79.106,67.6758,0.51644,0.73295,2,1,1,63.3478,87.9838
1,1,3,11,60,90,39,20,2,2,1,2,0,1,0.40659,0.60546,84.8766,88.9826,0.81636,0.49975,2,2,1,51.0298,86.9851
1,1,3,12,60,60,41,36,1,2,1,2,1,1,0.40775,3.1261,85.8754,65.1234,0.48312,0.61643,2,2,1,63.9027,88.3168
1,1,3,13,90,90,45,20,1,2,1,2,1,1,0.35098,0.74071,85.2095,90.9801,0.58306,0.39986,2,2,2,99.9689,86.7631
1,1,3,14,90,90,35,60,2,1,2,1,1,1,1.1672,0.37231,62.46,95.53,0.64968,0.41652,1,2,1,95.9739,82.1023
1,1,3,15,90,60,45,36,1,2,1,2,1,1,0.35927,0.74191,90.3143,89.3155,0.61648,0.81633,2,2,2,97.1946,64.2356
1,1,3,16,60,60,39,44,2,1,1,2,0,0,0.32029,1.8426,61.0174,59.7967,0.39987,0.64971,2,2,1,67.8977,62.9039
1,1,3,17,90,60,35,36,2,2,2,2,1,1,0.30388,2.8529,75.111,59.4638,0.56647,0.833,2,1,2,56.4675,96.6397
1,1,3,18,90,60,45,36,1,2,1,2,1,1,1.2243,0.84795,69.6733,74.3342,0.79972,0.96627,1,1,2,69.6733,90.8691
1,1,3,19,60,90,39,60,2,1,2,2,1,0,1.8967,0.40262,64.0137,63.6808,0.59978,0.38313,1,2,2,87.429,67.8977
1,1,3,20,90,60,45,44,1,1,1,2,1,0,0.42479,0.84841,68.5636,61.9052,0.61647,0.78304,2,1,2,99.3031,96.4178
1,1,3,21,60,90,41,20,1,2,1,1,1,0,0.88503,0.34921,59.4638,59.0199,0.69974,0.53314,1,1,2,54.9139,64.6795
1,1,3,22,60,60,39,36,2,2,1,2,0,1,0.84937,0.33726,67.3429,74.1122,0.58308,0.86633,1,2,1,77.4414,71.1159
1,1,3,23,60,90,39,60,2,1,1,1,0,1,0.34318,0.77728,74.1122,79.6609,0.6331,0.48315,2,2,2,70.894,75.3329
1,1,3,24,90,90,45,20,1,2,1,2,1,1,0.8052,0.72021,100,92.4228,0.51651,0.73306,1,1,1,93.8654,81.7694
1,1,4,1,90,90,45,20,1,2,1,2,1,1,0.54926,0.38069,98.1934,93.6435,0.51646,0.54976,1,1,2,83.8778,87.6509
1,1,4,2,90,60,35,36,2,2,2,2,1,1,0.53533,1.1234,71.3379,71.7818,0.66645,0.51644,2,2,2,92.6447,85.2095
1,1,4,3,90,90,35,20,2,2,1,2,0,1,0.4773,0.58847,67.3429,84.3217,0.63308,0.6997,2,2,1,66.677,99.1921
1,1,4,4,90,90,35,20,2,2,2,2,1,1,0.7753,0.37418,70.6721,77.5524,0.49981,0.63313,1,2,2,63.3478,54.6919
1,1,4,5,90,90,45,60,1,1,1,1,1,1,1.0763,0.39575,72.1147,82.1023,0.73305,0.9663,1,1,1,56.2456,90.6472
1,1,4,6,90,90,35,60,2,1,1,1,0,1,0.8224,0.71513,67.4538,94.3093,0.61644,0.63312,2,2,1,57.9102,70.6721
1,1,4,7,60,90,41,60,1,1,2,1,0,1,0.51184,2.2027,77.3304,74.5561,0.7997,0.58317,2,1,2,53.9151,56.6895
1,1,4,8,60,60,41,44,1,1,1,1,1,1,1.871,0.47393,61.1284,70.1172,0.83307,0.7164,1,2,2,91.8679,77.8853
1,1,4,9,90,60,35,44,2,1,2,1,1,1,0.8895,1.1508,75.8878,67.3429,0.6331,0.76635,1,2,1,81.9913,93.4215
1,1,4,10,60,60,39,36,2,2,1,2,0,1,1.1649,0.37257,60.3516,65.9002,0.78307,0.44979,1,1,2,98.4153,61.9052
1,1,4,11,60,60,39,44,2,1,2,2,1,0,0.69142,0.45246,73.4464,76.9975,0.66643,0.7331,1,1,1,57.0224,87.7619
1,1,4,12,60,90,41,20,1,2,1,2,1,1,0.94988,0.43962,82.9901,76.9975,0.48315,0.64981,1,1,1,73.3354,64.6795
1,1,4,13,60,90,41,60,1,1,1,1,1,1,0.40676,1.6453,94.1983,84.8766,0.34992,0.39994,2,1,1,90.5362,81.7694
1,1,4,14,90,60,45,44,1,1,1,1,1,1,0.30155,1.9865,96.9727,69.2294,0.79966,0.83302,2,2,1,52.4725,56.4675
1,1,4,15,60,90,41,20,1,2,1,2,1,1,0.33604,0.65605,96.4178,90.9801,0.66637,0.56645,2,2,1,78.5511,65.5673
1,1,4,16,90,60,35,36,2,2,2,2,1,1,0.40738,0.9409,99.4141,63.1259,0.54975,0.66643,2,1,1,75.111,68.8965
1,1,4,17,60,60,41,36,1,2,1,2,1,1,0.87195,0.40242,81.2145,66.899,1.0163,0.58309,1,1,1,76.6646,81.3255
1,1,4,18,60,90,39,60,2,1,2,1,1,1,0.34046,0.58756,71.6708,92.5337,0.39985,0.84967,2,2,2,75.3329,69.4513
1,1,4,19,60,60,41,36,1,2,2,2,0,1,1.6903,0.29821,71.005,81.3255,1.1829,0.48315,1,2,1,66.899,64.3466
1,1,4,20,90,60,35,36,2,2,2,2,1,1,1.4687,0.42183,67.2319,84.9876,0.66647,0.44986,1,1,1,89.6484,73.5574
1,1,4,21,90,60,45,44,1,1,2,2,0,0,0.59923,1.3181,65.2344,63.0149,0.43314,0.51642,2,1,1,65.2344,67.4538
1,1,4,22,60,90,39,60,2,1,2,1,1,1,0.44831,1.7727,63.7917,62.46,0.56637,0.81636,2,1,1,73.5574,95.752
1,1,4,23,60,60,41,44,1,1,1,2,1,0,0.35863,0.67834,67.5648,67.7868,0.98295,0.76637,2,2,2,92.3118,80.6596
1,1,4,24,90,90,35,20,2,2,2,2,1,1,0.65554,0.35732,84.7656,63.7917,1.0163,0.51647,1,2,2,71.7818,67.7868
1,2,1,1,60,90,39,60,2,1,2,1,1,1,0.77596,0.40189,79.7718,94.8642,1.1995,0.51653,1,1,1,90.5362,82.5462
1,2,1,2,60,90,39,60,2,1,1,1,0,1,0.34865,1.2282,87.318,96.6397,0.74963,0.71639,2,2,1,70.1172,72.1147
1,2,1,3,90,90,45,20,1,2,1,2,1,1,0.38077,0.62141,93.6435,91.424,0.7496,0.53312,2,1,1,67.5648,83.101
1,2,1,4,90,60,35,36,2,2,2,2,1,1,0.37878,0.99986,87.7619,78.6621,0.46651,0.78309,2,2,2,71.7818,92.2008
1,2,1,5,60,60,39,44,2,1,1,2,0,0,0.6043,0.41464,82.4352,70.0062,0.51646,0.7997,1,2,2,69.1184,82.1023
1,2,1,6,90,60,45,44,1,1,1,1,1,1,0.79123,0.33995,82.4352,68.4526,0.66642,0.63298,1,1,2,66.677,91.535
1,2,1,7,60,90,41,60,1,1,1,1,1,1,2.6772,0.36439,57.4663,96.7507,0.49981,0.48316,1,1,1,60.0186,73.3354
1,2,1,8,90,60,35,44,2,1,1,2,0,0,0.5527,1.6695,65.6783,58.9089,0.93299,0.71639,2,2,2,86.6522,95.0861
1,2,1,9,60,60,41,36,1,2,1,1,1,0,0.43924,1.9181,87.8729,59.2418,0.51645,0.84966,2,1,1,65.1234,56.9114
1,2,1,10,90,90,35,20,2,2,2,2,1,1,0.65635,1.1816,59.9077,69.0075,0.86631,0.81636,2,1,1,92.3118,96.4178
1,2,1,11,60,60,39,36,2,2,2,1,1,0,0.34298,0.78569,73.1135,65.1234,0.66632,0.61632,2,2,1,98.0824,83.9888
1,2,1,12,90,60,45,36,1,2,1,2,1,1,0.41137,0.86203,90.3143,64.2356,0.54981,0.63312,2,2,1,66.3441,83.8778
1,2,1,13,90,90,45,20,1,2,1,2,1,1,0.59189,0.37474,72.8915,100,0.48315,0.4332,1,2,1,72.8915,79.3279
1,2,1,14,60,60,39,36,2,2,1,2,0,1,0.67858,0.3122,77.1085,77.6634,0.49981,0.36653,1,2,1,89.4265,72.8915
1,2,1,15,60,60,41,36,1,2,1,2,1,1,1.9324,0.26607,87.8729,79.8828,0.6997,0.88298,1,1,1,61.7942,50.0311
1,2,1,16,90,90,35,20,2,2,2,2,1,1,0.45229,0.71227,86.0973,83.101,0.44976,0.63306,2,1,1,79.6609,58.9089
1,2,1,17,90,60,45,44,1,1,2,1,0,1,2.108,0.42228,62.682,67.0099,1.3162,0.63309,1,2,2,97.8604,72.4476
1,2,1,18,90,90,35,60,2,1,1,1,0,1,0.35868,1.663,90.7582,79.7718,0.29988,0.51648,2,1,1,88.8716,73.5574
1,2,1,19,60,90,39,60,2,1,2,1,1,1,1.0755,0.5302,89.0936,72.1147,0.38322,0.41651,1,2,2,87.318,77.6634
1,2,1,20,60,90,41,60,1,1,1,1,1,1,0.53618,1.3212,83.9888,60.7955,1.0163,0.6831,2,1,2,75.111,57.2443
1,2,1,21,90,60,35,44,2,1,2,2,1,0,1.0937,0.44362,81.6584,82.6571,0.81636,0.54976,1,1,1,54.581,89.0936
1,2,1,22,90,90,45,20,1,2,2,2,0,1,0.49109,0.73176,68.7855,90.4252,0.43317,0.68311,2,1,2,76.7756,65.6783
1,2,1,23,60,60,41,36,1,2,1,2,1,1,0.90359,0.49412,92.4228,86.2083,0.76639,0.71641,1,1,2,98.4153,96.5288
1,2,1,24,60,90,41,60,1,1,1,1,1,1,1.0312,0.59072,90.2033,98.3043,0.74972,0.74969,1,2,1,90.2033,89.0936
1,2,2,1,60,60,39,44,2,1,1,1,0,1,0.84654,0.3765,76.5536,90.2033,0.48316,0.46646,1,2,1,79.9938,74.0012
1,2,2,2,60,90,39,20,2,2,1,2,0,1,0.64961,1.0986,100,99.3031,0.51648,1.1163,1,2,2,93.7544,66.4551
1,2,2,3,60,60,39,44,2,1,2,1,1,1,0.34239,1.5614,65.3453,66.3441,0.59977,0.53314,2,1,1,76.6646,57.2443
1,2,2,4,90,90,45,60,1,1,1,1,1,1,0.66418,0.37038,85.3205,94.0874,0.84966,0.59976,1,1,2,96.9727,92.4228
1,2,2,5,60,90,41,20,1,2,1,2,1,1,1.0096,0.44376,62.793,100,0.63308,1.5494,1,1,1,56.3565,54.8029
1,2,2,6,90,60,45,36,1,2,1,2,1,1,0.41281,1.0776,79.4389,94.6422,0.74972,0.7164,2,1,1,68.7855,60.4625
1,2,2,7,90,60,35,36,2,2,1,2,0,1,0.54402,1.0299,83.5449,83.101,0.81636,0.68308,2,1,1,59.1309,93.4215
1,2,2,8,90,90,35,20,2,2,2,2,1,1,1.5872,0.36795,88.3168,94.6422,0.44988,0.5998,1,2,1,82.8791,73.3354
1,2,2,9,90,90,45,20,1,2,1,2,1,1,0.64807,0.37084,77.7743,99.3031,0.54979,0.4664,1,1,2,85.5424,88.0948
1,2,2,10,60,90,39,60,2,1,2,1,1,1,0.5383,0.75475,79.8828,97.1946,0.83302,0.59979,2,1,2,50.8079,98.7482
1,2,2,11,60,90,39,20,2,2,1,2,0,1,0.43787,0.73519,64.7905,100,0.66638,0.66642,2,2,1,87.54,58.1321
1,2,2,12,60,90,39,20,2,2,2,2,1,1,0.72754,0.38142,74.4451,91.9789,0.39981,0.69977,1,1,1,71.005,53.6932
1,2,2,13,90,90,45,60,1,1,1,1,1,1,0.34907,0.81694,85.3205,90.7582,0.6498,0.59974,2,2,1,99.747,92.4228
1,2,2,14,60,60,41,36,1,2,1,1,1,0,0.79545,1.2625,68.5636,58.0211,0.46649,0.56645,2,1,2,61.5723,94.3093
1,2,2,15,90,60,35,44,2,1,1,2,0,0,0.48449,1.175,64.2356,61.6832,0.6331,0.61643,2,1,2,98.7482,67.5648
1,2,2,16,60,90,41,20,1,2,1,2,1,1,0.40161,1.691,96.1958,88.6497,0.56643,0.78304,2,1,2,65.5673,63.5698
1,2,2,17,60,60,39,44,2,1,2,2,1,0,0.88948,1.06,65.2344,61.4613,0.64975,0.38319,1,1,2,52.4725,70.0062
1,2,2,18,60,60,41,44,1,1,2,2,0,0,0.88588,0.70407,65.2344,61.6832,0.78305,0.43314,1,2,2,89.3155,66.5661
1,2,2,19,90,60,45,36,1,2,2,2,0,1,0.90573,0.70328,80.5487,61.5723,0.58308,0.58311,1,1,2,78.2182,62.9039
1,2,2,20,90,90,45,60,1,1,1,1,1,1,0.34615,0.81234,85.5424,87.207,0.66643,0.54981,2,1,2,82.8791,67.6758
1,2,2,21,90,90,35,20,2,2,2,2,1,1,0.9218,0.40799,89.2045,90.9801,0.46649,0.5831,1,1,2,84.4327,73.2244
1,2,2,22,90,60,35,44,2,1,1,2,0,0,0.35034,1.2955,93.7544,83.7669,0.39979,0.59977,2,2,1,86.8741,65.9002
1,2,2,23,90,60,45,44,1,1,1,2,1,0,0.34313,1.2473,98.1934,59.5748,1.083,0.66642,2,2,2,59.7967,61.2393
1,2,2,24,60,60,41,44,1,1,1,1,1,1,1.0162,0.80864,89.9814,67.5648,0.53313,0.36653,1,1,2,95.8629,72.8915
1,2,3,1,90,60,45,36,1,2,1,2,1,1,0.51517,0.40896,94.3093,87.54,1.2995,0.36649,1,2,2,91.646,87.54
1,2,3,2,60,90,41,60,1,1,1,1,1,1,0.29159,0.61742,81.3255,84.7656,0.73306,0.43315,2,2,2,62.571,93.8654
1,2,3,3,60,90,41,20,1,2,1,2,1,1,0.33855,1.0295,97.9714,80.3267,0.48312,0.7164,2,1,2,74.6671,50.9189
1,2,3,4,60,90,39,60,2,1,2,1,1,1,0.84432,0.39946,64.5685,66.4551,0.46653,0.56645,1,2,1,81.2145,58.7979
1,2,3,5,60,60,41,44,1,1,1,2,1,0,0.71792,0.3808,77.7743,73.2244,0.46649,0.69973,1,2,2,66.0112,81.6584
1,2,3,6,60,90,39,20,2,2,2,1,1,0,0.61369,0.37314,70.0062,50.0311,0.64976,1.666,1,2,1,83.9888,92.4228
1,2,3,7,90,90,45,20,1,2,1,2,1,1,0.86249,0.7495,77.7743,71.005,0.69979,0.63303,2,2,2,97.0836,81.5474
1,2,3,8,90,90,35,20,2,2,2,2,1,1,0.68616,0.33221,71.1159,80.3267,0.84968,0.53315,1,1,2,62.0162,74.6671
1,2,3,9,90,60,35,44,2,1,2,1,1,1,2.3652,0.44513,65.3453,77.3304,0.54983,0.83303,1,2,2,83.9888,93.0886
1,2,3,10,90,60,45,44,1,1,1,2,1,0,0.3693,1.5169,82.8791,62.3491,0.68304,0.61643,2,1,1,84.4327,62.571
1,2,3,11,60,60,39,44,2,1,1,1,0,1,0.61314,1.4687,58.1321,58.465,0.81642,0.56643,2,2,1,99.4141,53.9151
1,2,3,12,60,90,39,20,2,2,1,2,0,1,0.37515,0.89453,67.8977,98.7482,0.51647,0.54976,2,2,1,88.9826,57.0224
1,2,3,13,60,90,41,60,1,1,1,1,1,1,0.41238,0.60951,77.5524,99.858,0.43316,0.48315,2,1,2,97.6385,81.8803
1,2,3,14,90,60,35,44,2,1,2,1,1,1,2.1598,0.43325,73.3354,93.5325,0.76639,0.33321,1,2,2,80.9925,83.323
1,2,3,15,60,60,41,44,1,1,1,1,1,1,0.35384,0.62789,72.4476,87.7619,0.36652,0.83303,2,2,2,76.6646,79.217
1,2,3,16,90,90,45,60,1,1,1,1,1,1,0.45651,0.86159,71.7818,98.5263,0.71644,0.71642,2,1,1,61.4613,57.2443
1,2,3,17,90,60,35,36,2,2,2,2,1,1,0.35444,0.80222,88.8716,89.9814,0.51645,0.48316,2,2,1,81.4364,65.1234
1,2,3,18,90,90,35,20,2,2,1,2,0,1,0.44807,0.69811,83.5449,89.0936,0.66641,0.63309,2,1,1,60.4625,61.1284
1,2,3,19,60,60,39,36,2,2,2,2,1,1,0.74864,0.48236,82.5462,80.8816,0.51647,0.59979,1,1,2,78.4402,82.1023
1,2,3,20,90,90,45,60,1,1,1,1,1,1,0.58885,0.38528,88.7607,83.9888,0.58311,0.63309,1,1,1,88.3168,68.0087
1,2,3,21,60,60,39,44,2,1,2,2,1,0,0.51767,1.1065,83.323,78.6621,0.49981,0.73306,2,2,1,77.8853,92.4228
1,2,3,22,90,90,45,20,1,2,1,2,1,1,0.64834,0.33695,95.3081,97.4165,0.54985,0.49986,1,2,1,95.9739,88.8716
1,2,3,23,90,60,35,36,2,2,2,2,1,1,0.61019,0.60632,85.8754,90.5362,0.51644,0.54979,1,1,1,77.9963,84.0998
1,2,3,24,60,60,41,36,1,2,1,2,1,1,0.75719,0.42484,89.0936,89.2045,0.73309,0.66638,1,2,2,72.5586,98.7482
1,2,4,1,90,90,35,20,2,2,1,2,0,1,0.40587,0.72757,82.5462,93.4215,0.56648,0.68302,2,2,1,88.7607,97.9714
1,2,4,2,90,60,45,44,1,1,1,1,1,1,0.59748,0.39445,89.6484,86.7631,0.51646,0.51648,1,2,1,82.2132,79.6609
1,2,4,3,60,60,41,44,1,1,2,1,0,1,0.43777,0.32433,88.7607,90.7582,0.53313,0.36661,1,2,2,90.0923,85.6534
1,2,4,4,60,60,41,36,1,2,1,2,1,1,0.67163,0.44175,83.5449,88.4277,0.59975,0.59976,1,2,1,99.4141,89.7594
1,2,4,5,60,90,41,20,1,2,1,2,1,1,0.49226,0.71371,80.5487,95.1971,0.69974,0.73306,2,2,1,56.5785,76.5536
1,2,4,6,60,90,41,20,1,2,1,2,1,1,0.40121,0.51751,81.3255,91.9789,0.93298,0.883,2,1,2,50.9189,65.3453
1,2,4,7,90,90,35,60,2,1,2,1,1,1,1.0733,0.32773,66.788,96.7507,0.61647,0.51647,1,1,1,56.8004,62.682
1,2,4,8,90,90,45,60,1,1,2,1,0,1,0.9556,0.34344,66.2331,92.7557,0.48315,0.36654,1,2,2,58.465,76.5536
1,2,4,9,90,90,45,20,1,2,1,2,1,1,0.80027,0.2919,89.4265,95.419,1.9326,0.79967,1,1,1,51.5847,96.5288
1,2,4,10,60,60,39,36,2,2,1,2,0,1,0.35442,1.3203,78.5511,67.5648,0.31654,0.66641,2,1,2,74.4451,74.1122
1,2,4,11,60,90,39,60,2,1,1,1,0,1,0.36156,0.82963,76.5536,92.3118,0.5331,0.56645,2,1,1,93.1996,68.3416
1,2,4,12,60,60,39,44,2,1,2,2,1,0,1.1585,0.39334,86.5412,80.2157,0.44979,0.54981,1,2,2,76.4426,97.3056
1,2,4,13,90,60,45,44,1,1,1,2,1,0,0.37336,1.4226,75.3329,76.3317,0.6331,0.61646,2,1,1,85.2095,65.6783
1,2,4,14,90,60,35,44,2,1,2,2,1,0,0.30263,0.7932,92.2008,62.571,0.41651,0.46649,2,2,1,74.6671,73.2244
1,2,4,15,90,60,35,44,2,1,2,1,1,1,0.34628,0.67513,93.5325,72.5586,0.59979,0.68304,2,1,2,59.7967,56.2456
1,2,4,16,60,60,41,36,1,2,2,2,0,1,0.87569,0.37035,89.2045,64.4576,0.49985,0.33322,1,1,1,73.6683,75.2219
1,2,4,17,90,90,45,20,1,2,1,2,1,1,0.31463,0.78441,77.9963,91.8679,0.83301,0.71643,2,2,2,57.9102,54.8029
1,2,4,18,60,90,39,60,2,1,1,1,0,1,0.33268,0.66185,79.7718,86.2083,0.58312,0.64984,2,2,1,85.2095,89.8704
1,2,4,19,90,60,35,44,2,1,2,1,1,1,1.1723,0.50039,86.5412,78.8841,0.66643,0.68308,1,1,1,57.7992,51.6957
1,2,4,20,90,90,45,20,1,2,1,2,1,1,0.69907,0.35201,79.217,83.7669,0.54978,0.63309,1,1,2,51.0298,82.7681
1,2,4,21,90,60,35,44,2,1,2,1,1,1,1.1392,0.33612,95.8629,76.5536,0.39985,0.49984,1,1,2,73.2244,69.2294
1,2,4,22,60,90,39,20,2,2,2,2,1,1,0.61065,0.33898,87.8729,79.6609,0.53313,0.51646,1,2,2,93.3105,67.3429
1,2,4,23,60,60,39,36,2,2,2,2,1,1,0.32222,0.73003,98.4153,75.2219,0.61641,0.5831,2,2,1,52.1396,58.687
1,2,4,24,60,90,41,20,1,2,1,2,1,1,1.2937,1.6456,62.682,88.4277,0.89966,0.63311,2,2,2,84.4327,85.6534
1,3,1,1,90,60,35,44,2,1,2,1,1,1,1.9011,0.3064,70.6721,95.8629,0.96629,0.56646,1,2,1,92.4228,61.6832
1,3,1,2,60,90,39,20,2,2,2,2,1,1,0.61864,0.39416,86.4302,93.9764,0.34987,0.43322,1,1,1,78.5511,87.0961
1,3,1,3,60,60,41,36,1,2,1,2,1,1,0.42835,0.63145,75.2219,91.0911,0.58306,0.61644,2,1,2,95.9739,53.3603
1,3,1,4,60,90,39,20,2,2,2,2,1,1,0.47399,0.73582,78.3292,86.5412,0.58313,0.68308,2,1,1,81.7694,98.7482
1,3,1,5,90,90,45,20,1,2,2,2,0,1,0.45033,0.63072,74.7781,86.9851,0.86631,0.53313,2,1,1,52.6944,58.9089
1,3,1,6,90,90,45,20,1,2,1,2,1,1,0.39432,0.71038,83.101,93.0886,0.73303,0.43321,2,2,2,62.46,82.4352
1,3,1,7,60,90,41,20,1,2,1,2,1,1,0.62706,1.1434,69.2294,94.8642,0.63315,0.56647,2,1,1,54.6919,92.4228
1,3,1,8,60,90,39,60,2,1,1,1,0,1,1.0631,0.43873,68.4526,89.3155,0.56645,0.58311,1,1,1,53.2493,54.47
1,3,1,9,90,90,45,20,1,2,1,2,1,1,1.0462,0.3549,74.3342,95.0861,0.73308,0.54982,1,1,1,98.0824,60.1296
1,3,1,10,60,60,39,44,2,1,1,1,0,1,0.81419,0.34252,65.6783,89.0936,0.61644,0.41648,1,2,1,59.0199,80.2157
1,3,1,11,90,60,45,36,1,2,2,2,0,1,0.31904,1.4535,75.3329,88.8716,0.51648,0.76641,2,2,1,60.9064,60.1296
1,3,1,12,90,60,45,44,1,1,1,1,1,1,0.63591,0.30641,74.0012,80.5487,0.54985,0.33317,1,2,2,60.9064,76.6646
1,3,1,13,60,60,39,44,2,1,2,2,1,0,0.57167,0.35934,87.0961,66.3441,0.5998,0.53313,1,2,1,64.5685,61.2393
1,3,1,14,60,60,39,44,2,1,2,1,1,1,0.24666,1.3865,55.0249,66.3441,0.78303,0.59977,2,2,1,82.9901,79.6609
1,3,1,15,60,60,41,44,1,1,1,2,1,0,1.6315,0.39846,61.3503,83.323,0.84966,0.49982,1,2,2,94.1983,59.5748
1,3,1,16,60,90,41,20,1,2,1,2,1,1,0.33519,0.71686,84.5437,97.7495,0.59976,0.44983,2,1,2,76.3317,86.2083
1,3,1,17,90,90,45,20,1,2,1,2,1,1,0.66192,0.44541,100,95.752,0.54979,0.49979,1,1,2,60.1296,81.9913
1,3,1,18,90,90,45,60,1,1,1,1,1,1,0.74014,0.3431,89.2045,82.5462,0.74972,0.46646,1,2,2,63.0149,85.7644
1,3,1,19,90,60,35,36,2,2,1,1,0,0,0.40719,1.1213,84.3217,78.7731,0.63314,0.79969,2,1,2,89.6484,62.0162
1,3,1,20,90,60,35,44,2,1,2,1,1,1,0.33185,3.2059,89.5375,57.0224,0.59975,0.64976,2,2,2,87.54,57.0224
1,3,1,21,60,90,39,20,2,2,1,2,0,1,0.38748,0.58873,73.5574,87.8729,0.56652,0.56645,2,2,2,96.8617,77.4414
1,3,1,22,60,60,41,44,1,1,1,1,1,1,1.3747,0.40326,76.3317,77.6634,0.48314,0.49982,1,2,1,58.2431,63.9027
1,3,1,23,90,60,35,44,2,1,2,1,1,1,0.75261,0.34563,83.5449,94.7532,0.76638,0.61648,1,1,2,93.5325,51.8066
1,3,1,24,90,90,35,60,2,1,2,1,1,1,0.46936,0.75137,91.313,88.8716,0.71641,0.71634,2,1,1,60.3516,53.1383
1,3,2,1,90,60,35,36,2,2,2,1,1,0,0.83356,0.6454,92.0898,92.3118,0.59977,0.51646,1,2,2,85.4315,97.9714
1,3,2,2,60,90,41,20,1,2,1,2,1,1,0.44249,0.55312,91.424,95.53,0.48315,0.49979,2,2,1,72.3366,98.4153
1,3,2,3,60,60,41,36,1,2,2,1,0,0,0.94141,0.33581,77.3304,81.1035,0.5498,0.49982,1,2,2,81.4364,67.3429
1,3,2,4,60,90,39,20,2,2,1,2,0,1,0.93841,0.39774,68.8965,92.3118,0.58311,0.54979,1,2,2,78.5511,68.6745
1,3,2,5,60,90,41,20,1,2,2,2,0,1,2.2794,0.38155,76.2207,97.1946,0.66641,0.58308,1,1,2,97.5275,53.0273
1,3,2,6,90,90,45,20,1,2,1,2,1,1,1.3015,0.48568,86.4302,89.9814,0.54979,0.54977,1,1,1,98.4153,60.6845
1,3,2,7,60,60,41,44,1,1,1,1,1,1,0.35043,0.94459,82.2132,90.2033,0.49978,0.5831,2,2,1,73.6683,93.9764
1,3,2,8,60,90,39,20,2,2,1,2,0,1,0.31633,0.78224,77.4414,91.424,0.33318,0.51641,2,2,2,82.9901,74.2232
1,3,2,9,60,60,39,36,2,2,1,1,0,0,0.31717,1.4029,65.4563,67.7868,0.66641,0.49984,2,2,2,92.9776,74.7781
1,3,2,10,60,90,41,60,1,1,1,1,1,1,0.35028,0.91462,80.3267,80.3267,0.76641,0.61643,2,2,2,55.5797,82.4352
1,3,2,11,90,60,35,36,2,2,1,1,0,0,0.36735,0.92999,54.9139,68.3416,0.64981,0.63307,2,2,2,62.2381,58.687
1,3,2,12,90,90,45,60,1,1,1,1,1,1,0.58907,0.38773,82.8791,95.53,0.63311,0.883,1,2,1,94.0874,64.9015
1,3,2,13,60,60,41,44,1,1,2,1,0,1,0.33974,0.7947,75.111,93.8654,0.58307,0.74975,2,2,1,86.3192,89.3155
1,3,2,14,60,90,39,60,2,1,1,1,0,1,0.78545,0.33707,89.3155,92.3118,0.38318,0.59977,1,1,1,71.7818,73.3354
1,3,2,15,90,90,35,60,2,1,2,1,1,1,1.4344,0.33365,72.7805,100,1.1496,0.36651,1,1,1,98.7482,98.6373
1,3,2,16,90,90,35,20,2,2,2,1,1,0,0.39304,0.95388,85.4315,62.1271,0.48315,0.9663,2,2,2,59.1309,76.6646
1,3,2,17,60,60,39,44,2,1,1,2,0,0,0.35672,1.6233,90.5362,58.354,0.43319,0.58308,2,1,2,73.1135,54.1371
1,3,2,18,90,60,35,36,2,2,2,1,1,0,0.48344,2.034,90.4252,71.8928,0.56648,0.91632,2,2,1,53.8042,50.253
1,3,2,19,90,90,45,60,1,1,1,1,1,1,0.843,0.3574,90.7582,87.0961,0.51644,0.46656,1,2,2,65.1234,65.5673
1,3,2,20,60,60,41,44,1,1,1,1,1,1,0.81361,0.82893,78.995,89.0936,0.48315,0.53311,1,1,1,70.3391,54.8029
1,3,2,21,90,90,45,20,1,2,1,2,1,1,0.6504,0.45984,82.2132,91.0911,0.51648,0.7164,1,2,1,64.9015,94.3093
1,3,2,22,90,60,35,44,2,1,2,1,1,1,0.635,0.33621,87.8729,84.6547,0.54979,0.54985,1,2,2,93.5325,88.2058
1,3,2,23,90,60,45,44,1,1,1,2,1,0,0.42184,1.8184,92.3118,84.4327,0.59977,0.54981,2,1,2,60.1296,64.2356
1,3,2,24,90,60,35,44,2,1,2,1,1,1,0.36261,1.4661,93.3105,80.3267,0.61644,0.48315,2,2,2,84.3217,67.1209
1,3,3,1,90,90,35,20,2,2,2,2,1,1,0.64323,0.45309,94.5312,79.9938,0.66646,0.51648,1,2,2,51.1408,97.3056
1,3,3,2,90,90,35,60,2,1,2,1,1,1,0.36495,0.62113,84.8766,94.6422,0.46654,0.51647,2,1,2,92.9776,95.752
1,3,3,3,60,60,39,44,2,1,1,1,0,1,1.3846,0.30571,68.5636,62.571,0.5498,0.54979,1,1,2,61.0174,57.2443
1,3,3,4,60,60,41,36,1,2,1,1,1,0,0.37448,1.055,77.6634,66.0112,0.59977,0.58311,2,2,1,80.9925,74.889
1,3,3,5,60,90,41,60,1,1,1,1,1,1,1.6317,0.33559,65.0124,87.6509,0.51654,0.54977,1,1,2,73.4464,92.5337
1,3,3,6,90,60,35,36,2,2,2,1,1,0,0.45095,1.4802,89.7594,74.889,0.58315,0.39985,2,1,1,91.0911,73.4464
1,3,3,7,90,60,45,44,1,1,1,2,1,0,0.38181,1.5517,80.4377,66.788,0.3998,0.41655,2,2,1,80.3267,73.8903
1,3,3,8,90,60,45,44,1,1,1,2,1,0,0.34185,1.1255,84.8766,67.3429,0.4665,0.53302,2,2,1,73.3354,81.2145
1,3,3,9,60,90,39,20,2,2,2,2,1,1,1.4637,0.36854,64.3466,81.8803,0.38316,0.51644,1,1,2,68.5636,61.9052
1,3,3,10,60,60,39,36,2,2,2,2,1,1,0.6264,0.3314,79.8828,88.9826,0.56645,0.43316,1,1,2,84.5437,75.111
1,3,3,11,60,90,41,20,1,2,1,2,1,1,0.39958,0.78994,80.1048,78.4402,0.63314,0.66645,2,2,2,84.8766,55.8017
1,3,3,12,60,60,39,36,2,2,1,2,0,1,0.51312,1.4531,76.7756,88.0948,0.48313,0.48311,2,1,1,63.1259,83.323
1,3,3,13,90,90,45,20,1,2,1,2,1,1,0.30995,1.4493,70.4501,88.5387,0.38321,0.4332,2,1,2,75.6658,82.4352
1,3,3,14,90,90,45,60,1,1,1,1,1,1,0.96883,0.50912,82.5462,88.6497,0.64977,0.81643,1,2,1,97.7495,61.3503
1,3,3,15,60,60,39,36,2,2,1,2,0,1,0.36054,1.0172,87.54,76.5536,0.51644,0.48315,2,2,1,62.3491,66.1222
1,3,3,16,90,60,45,44,1,1,1,2,1,0,0.70924,0.45912,81.5474,73.3354,0.53317,0.44982,1,1,1,62.46,69.4513
1,3,3,17,60,60,41,36,1,2,1,2,1,1,1.0233,0.45026,70.5611,83.8778,0.78303,0.71633,1,1,2,90.0923,94.3093
1,3,3,18,60,90,41,60,1,1,2,1,0,1,1.6917,0.38861,71.3379,96.8617,0.64976,0.49981,1,2,1,96.6397,64.6795
1,3,3,19,90,60,45,44,1,1,1,2,1,0,1.1595,0.31944,63.6808,84.7656,0.63312,0.33324,1,2,1,55.6907,74.7781
1,3,3,20,90,90,35,60,2,1,2,1,1,1,0.36408,0.65331,81.9913,80.6596,0.61644,0.53313,2,2,1,65.1234,76.6646
1,3,3,21,60,90,39,60,2,1,2,1,1,1,0.33543,0.5473,87.429,79.9938,0.63309,0.58311,2,2,2,96.9727,92.5337
1,3,3,22,90,60,35,36,2,2,1,2,0,1,1.1919,0.38844,69.8952,82.6571,0.34987,0.31657,1,1,1,74.1122,77.8853
1,3,3,23,60,90,41,60,1,1,2,1,0,1,1.0174,0.32853,77.2195,80.4377,0.49979,0.5165,1,2,2,88.2058,57.7992
1,3,3,24,90,90,35,20,2,2,2,2,1,1,0.47601,0.56818,79.7718,85.0985,0.53313,0.51647,2,1,2,57.2443,63.0149
1,3,4,1,60,60,41,44,1,1,1,2,1,0,0.69303,0.36924,81.7694,95.3081,0.51645,0.33324,1,1,2,71.7818,91.7569
1,3,4,2,60,60,39,36,2,2,1,1,0,0,0.50535,1.253,76.8865,74.4451,0.48319,0.51647,2,1,1,75.7768,85.8754
1,3,4,3,90,60,35,36,2,2,2,1,1,0,0.68559,0.42333,80.1048,79.7718,0.83301,0.64977,1,2,1,98.5263,61.5723
1,3,4,4,60,60,39,44,2,1,1,1,0,1,1.1122,0.36322,76.3317,71.4489,0.5831,0.54985,1,1,2,95.53,64.2356
1,3,4,5,90,90,35,20,2,2,2,2,1,1,0.38768,0.55571,80.2157,85.6534,0.56648,0.54976,2,1,2,64.4576,66.5661
1,3,4,6,60,60,41,36,1,2,1,2,1,1,0.65918,0.43922,88.3168,86.4302,0.39986,0.51643,1,1,1,79.7718,54.581
1,3,4,7,60,90,41,60,1,1,1,1,1,1,0.43116,0.64513,90.7582,88.5387,0.6164,0.51651,2,2,2,55.4688,83.5449
1,3,4,8,90,90,35,60,2,1,1,1,0,1,0.37325,0.86504,70.2282,90.5362,0.73308,0.53314,2,1,2,93.9764,65.3453
1,3,4,9,60,90,41,60,1,1,1,1,1,1,0.96392,0.31529,75.111,94.4203,0.53313,0.48316,1,2,1,85.5424,72.4476
1,3,4,10,60,90,41,20,1,2,1,2,1,1,0.64837,0.44409,81.6584,100,0.43317,0.54976,1,1,1,79.3279,69.2294
1,3,4,11,60,90,41,20,1,2,1,2,1,1,0.61187,0.35966,82.1023,100,0.71641,0.69965,1,2,2,53.0273,63.6808
1,3,4,12,90,60,35,44,2,1,2,2,1,0,1.1765,1.0383,62.3491,69.7843,0.61642,0.83296,2,1,1,85.6534,97.0836
1,3,4,13,90,90,35,20,2,2,2,2,1,1,0.25067,0.89654,85.8754,71.3379,0.44983,0.6664,2,1,2,82.7681,83.101
1,3,4,14,90,60,35,36,2,2,2,1,1,0,1.5947,0.89026,60.0186,70.4501,0.64975,0.51649,2,1,2,95.1971,77.2195
1,3,4,15,60,60,39,36,2,2,2,2,1,1,1.3163,0.42086,70.1172,75.6658,0.66649,0.63313,1,2,2,93.8654,87.8729
1,3,4,16,60,90,39,60,2,1,1,1,0,1,0.55878,0.64976,77.7743,67.6758,0.71646,0.58309,2,1,1,83.8778,83.5449
1,3,4,17,60,90,41,60,1,1,2,1,0,1,0.42242,0.64585,85.0985,100,0.48312,0.71638,2,2,2,98.3043,75.6658
1,3,4,18,60,60,41,44,1,1,2,1,0,1,0.65072,1.1103,72.0037,66.899,0.76638,0.56645,2,2,1,91.0911,65.2344
1,3,4,19,90,90,35,60,2,1,2,1,1,1,1.9592,0.44491,74.3342,91.9789,0.73297,0.58308,1,1,2,65.1234,52.8054
1,3,4,20,90,90,35,60,2,1,1,1,0,1,1.5327,0.43998,76.3317,93.8654,0.39987,0.48312,1,2,1,72.8915,67.7868
1,3,4,21,90,60,45,44,1,1,1,2,1,0,0.33678,1.4713,96.8617,74.889,0.48315,0.41652,2,2,2,74.0012,74.889
1,3,4,22,90,60,45,36,1,2,1,2,1,1,0.79526,0.40928,86.5412,84.8766,0.51642,0.34993,1,1,1,89.5375,78.1072
1,3,4,23,90,60,45,36,1,2,1,2,1,1,0.35582,0.9561,86.2083,78.1072,0.58311,0.64979,2,2,1,97.8604,91.9789
1,3,4,24,90,90,45,20,1,2,1,2,1,1,0.86342,0.40266,86.4302,89.7594,0.93297,0.56651,1,2,1,57.5772,97.8604
1,4,1,1,60,60,41,36,1,2,2,2,0,1,0.5656,1.259,74.5561,80.5487,0.39983,1.5494,2,2,1,78.6621,51.3627
1,4,1,2,90,90,35,20,2,2,1,2,0,1,1.8633,0.36341,67.3429,81.8803,0.58312,0.38315,1,1,2,53.4712,74.2232
1,4,1,3,90,90,35,20,2,2,1,2,0,1,1.1782,0.37394,69.4513,90.6472,0.56647,0.59978,1,1,1,89.2045,89.0936
1,4,1,4,90,90,45,60,1,1,2,1,0,1,0.42285,0.66065,62.682,86.2083,0.6997,0.71636,2,2,2,93.3105,95.1971
1,4,1,5,60,60,39,44,2,1,1,2,0,0,0.38593,1.0336,65.6783,99.3031,0.73305,0.84967,2,2,1,53.3603,61.7942
1,4,1,6,90,60,35,44,2,1,2,1,1,1,1.1741,0.3861,78.995,73.3354,0.69973,0.68308,1,1,1,86.5412,61.5723
1,4,1,7,60,90,41,20,1,2,1,2,1,1,0.96211,0.31655,71.2269,94.1983,0.81633,0.4998,1,2,1,50.364,73.2244
1,4,1,8,60,90,41,60,1,1,2,1,0,1,1.0823,0.43266,76.2207,98.4153,0.46649,0.44988,1,2,1,74.4451,97.7495
1,4,1,9,60,90,39,60,2,1,1,1,0,1,0.91133,0.80867,80.3267,99.636,0.73302,0.3832,2,2,1,62.682,93.6435
1,4,1,10,90,60,35,36,2,2,2,2,1,1,0.36234,0.8269,86.2083,90.2033,0.5498,0.68319,2,2,1,81.7694,57.0224
1,4,1,11,60,60,41,44,1,1,2,1,0,1,0.38419,0.75782,66.4551,76.7756,0.46647,0.74969,2,2,2,75.9988,56.4675
1,4,1,12,90,60,35,36,2,2,2,2,1,1,1.251,0.39313,73.8903,72.6696,0.59977,0.66647,1,1,2,88.3168,91.7569
1,4,1,13,90,90,35,60,2,1,1,1,0,1,2.4725,0.45655,59.6857,89.7594,0.49985,0.48319,1,2,1,71.3379,66.3441
1,4,1,14,60,60,41,36,1,2,1,1,1,0,0.30159,1.6557,84.3217,62.2381,0.33326,0.38325,2,2,1,79.217,64.5685
1,4,1,15,60,60,39,44,2,1,2,1,1,1,0.79526,0.35136,85.0985,82.3242,0.53319,0.48319,1,2,1,75,67.8977
1,4,1,16,90,90,45,20,1,2,1,2,1,1,0.46321,0.80611,79.6609,100,0.69974,0.51647,2,2,1,57.4663,87.9838
1,4,1,17,90,60,35,36,2,2,2,1,1,0,0.49634,1.1446,79.3279,70.4501,0.61644,0.58311,2,1,1,93.9764,63.0149
1,4,1,18,60,90,41,60,1,1,1,1,1,1,1.4842,0.40248,66.677,85.0985,0.54981,0.33317,1,1,1,80.6596,79.8828
1,4,1,19,60,90,39,20,2,2,1,2,0,1,1.2659,0.37145,78.6621,89.9814,0.59975,0.68305,1,2,1,90.5362,61.7942
1,4,1,20,60,60,41,44,1,1,2,1,0,1,0.38856,1.1797,83.8778,80.3267,0.3166,0.58308,2,2,1,76.6646,52.4725
1,4,1,21,90,60,45,36,1,2,1,2,1,1,0.42493,0.87216,63.1259,79.3279,0.31661,0.61644,2,2,1,65.1234,97.4165
1,4,1,22,60,90,39,60,2,1,1,1,0,1,0.39409,1.0402,61.7942,92.2008,0.61641,1.1662,2,1,2,55.6907,76.6646
1,4,1,23,90,90,45,60,1,1,1,1,1,1,1.2983,0.3706,67.2319,82.3242,0.61642,0.68305,1,1,1,78.1072,90.4252
1,4,1,24,90,60,45,36,1,2,1,2,1,1,1.2124,0.40844,79.4389,83.9888,0.74972,0.66644,1,2,1,55.0249,50.253
1,4,2,1,60,90,39,20,2,2,1,2,0,1,0.71963,0.35132,78.3292,100,0.68307,0.41645,1,2,2,54.9139,97.8604
1,4,2,2,90,90,45,60,1,1,1,1,1,1,1.0245,0.34476,83.323,94.7532,0.63309,0.73307,1,1,2,69.2294,64.9015
1,4,2,3,90,90,45,60,1,1,1,1,1,1,0.34926,0.71877,92.3118,100,0.58311,0.41649,2,2,2,83.9888,90.9801
1,4,2,4,60,90,39,20,2,2,2,2,1,1,1.3432,0.3861,79.4389,96.7507,0.5165,0.83305,1,2,2,92.4228,52.0286
1,4,2,5,90,60,35,36,2,2,2,2,1,1,0.51804,1.3297,67.5648,82.2132,0.36654,0.59977,2,2,1,73.2244,50.9189
1,4,2,6,60,60,39,36,2,2,1,2,0,1,0.35238,1.2602,90.0923,73.7793,0.31651,0.56645,2,2,1,86.9851,63.4588
1,4,2,7,90,60,45,36,1,2,2,2,0,1,2.3383,0.34667,70.5611,82.2132,0.71637,0.56642,1,2,1,50.9189,85.7644
1,4,2,8,90,60,45,44,1,1,1,2,1,0,2.1252,0.83996,68.4526,62.682,0.53317,0.58308,1,1,2,83.5449,72.4476
1,4,2,9,60,90,39,20,2,2,2,2,1,1,0.393,1.1406,70.0062,92.4228,0.56645,0.51643,2,2,2,97.1946,75.5549
1,4,2,10,60,60,41,44,1,1,2,2,0,0,0.37748,1.5077,86.8741,75.2219,0.43313,0.56644,2,1,2,82.1023,88.7607
1,4,2,11,60,90,39,60,2,1,1,1,0,1,0.39536,1.2173,79.9938,88.9826,0.64975,0.83302,2,1,2,77.3304,57.5772
1,4,2,12,90,60,45,44,1,1,1,1,1,1,0.85147,0.81678,84.8766,87.6509,0.59978,0.56655,2,2,2,62.2381,86.9851
1,4,2,13,90,90,45,60,1,1,1,1,1,1,0.63394,0.41351,87.54,89.4265,0.56642,0.39985,1,2,1,96.3068,80.7706
1,4,2,14,90,90,35,20,2,2,2,2,1,1,0.48732,0.68934,98.9702,91.424,0.44983,0.91632,2,1,1,99.3031,95.53
1,4,2,15,60,60,41,36,1,2,1,2,1,1,1.1218,0.40666,92.8667,91.535,0.53313,0.61644,1,1,1,88.8716,67.1209
1,4,2,16,60,60,41,36,1,2,2,1,0,0,0.43901,1.4977,76.6646,70.4501,0.43314,0.58312,2,2,1,75.111,94.5312
1,4,2,17,90,60,45,44,1,1,1,1,1,1,1.0214,0.59729,96.3068,55.0249,0.36653,0.59977,1,2,2,91.7569,61.2393
1,4,2,18,60,60,39,36,2,2,1,2,0,1,0.37192,0.68348,92.0898,85.7644,0.71634,0.98293,2,1,1,53.8042,95.641
1,4,2,19,90,60,35,44,2,1,2,1,1,1,0.66295,0.43897,91.9789,90.5362,0.63312,0.49979,1,1,1,91.2021,79.8828
1,4,2,20,60,60,39,36,2,2,2,2,1,1,1.2839,0.44157,83.9888,95.53,0.54975,0.6331,1,1,2,99.4141,92.9776
1,4,2,21,90,90,45,20,1,2,1,2,1,1,0.75661,0.36985,78.8841,67.7868,0.58314,0.64969,1,1,2,62.2381,86.2083
1,4,2,22,60,90,39,60,2,1,1,2,0,0,0.59628,0.38062,88.2058,88.8716,0.56638,0.34988,1,2,2,93.5325,73.6683
1,4,2,23,60,90,39,60,2,1,1,1,0,1,0.43408,0.61111,79.106,92.8667,0.46649,0.5665,2,1,2,91.8679,78.995
1,4,2,24,90,90,45,60,1,1,1,1,1,1,0.41567,0.83521,72.2257,94.4203,0.34986,0.61644,2,2,1,75,67.4538
1,4,3,1,90,90,35,20,2,2,1,2,0,1,0.6679,0.75256,64.6795,93.8654,0.56646,0.96637,2,2,2,61.2393,59.3528
1,4,3,2,90,90,35,20,2,2,2,2,1,1,2.1118,0.3463,62.682,100,0.59979,0.4166,1,1,2,80.1048,75.8878
1,4,3,3,60,60,39,36,2,2,2,2,1,1,1.9498,0.34449,67.6758,73.2244,0.63315,0.46649,1,2,2,50.253,73.0025
1,4,3,4,60,60,41,44,1,1,1,1,1,1,0.29917,0.68677,86.0973,77.9963,0.48313,0.48324,2,2,1,79.4389,66.0112
1,4,3,5,90,90,45,60,1,1,1,1,1,1,0.46136,1.291,86.0973,89.2045,0.58316,0.68308,2,1,2,92.2008,57.5772
1,4,3,6,60,90,41,20,1,2,1,2,1,1,0.37428,0.58512,87.9838,91.424,0.71634,0.5165,2,1,2,87.207,69.0075
1,4,3,7,90,60,45,44,1,1,1,2,1,0,2.1177,0.91468,88.8716,90.3143,0.94971,0.56645,2,2,1,66.4551,98.5263
1,4,3,8,60,60,39,36,2,2,1,2,0,1,1.1944,0.51594,91.313,88.4277,0.74972,0.51644,1,1,1,82.9901,70.6721
1,4,3,9,60,90,41,60,1,1,2,1,0,1,0.33563,1.0522,69.3404,78.3292,0.78303,0.49981,2,2,1,94.1983,68.2306
1,4,3,10,90,90,35,20,2,2,2,2,1,1,0.79097,0.59528,94.0874,80.8816,0.58312,0.41645,1,1,1,50.9189,80.9925
1,4,3,11,60,60,41,44,1,1,2,2,0,0,0.47166,0.93151,72.7805,82.3242,0.51649,0.48315,2,2,1,92.0898,73.7793
1,4,3,12,60,60,39,36,2,2,2,2,1,1,0.39372,1.4994,89.2045,66.5661,0.38319,0.43318,2,2,1,83.212,66.5661
1,4,3,13,90,60,45,36,1,2,1,2,1,1,0.41545,0.83774,91.9789,79.5499,0.58312,0.5665,2,2,2,53.1383,94.5312
1,4,3,14,60,90,39,20,2,2,1,2,0,1,0.61586,0.47421,81.7694,85.8754,0.5498,0.49981,1,2,2,69.0075,92.9776
1,4,3,15,60,90,39,60,2,1,1,1,0,1,0.36192,0.66311,92.2008,97.8604,0.69976,0.59986,2,1,1,69.7843,67.7868
1,4,3,16,90,60,35,44,2,1,2,1,1,1,0.58951,0.34143,89.9814,92.3118,0.39984,0.39982,1,2,2,78.6621,82.4352
1,4,3,17,90,90,45,20,1,2,1,2,1,1,0.61252,0.33192,90.5362,89.0936,0.48321,0.63309,1,2,1,83.9888,56.6895
1,4,3,18,90,60,45,44,1,1,1,1,1,1,0.4457,0.55347,85.5424,93.4215,0.63311,0.44982,2,1,2,50.364,71.6708
1,4,3,19,90,60,35,44,2,1,2,1,1,1,0.66639,0.4083,89.6484,85.0985,0.53308,0.69974,1,1,1,57.9102,93.4215
1,4,3,20,90,90,35,20,2,2,1,2,0,1,0.78742,0.37191,85.2095,88.9826,0.54979,0.54978,1,2,2,65.6783,66.0112
1,4,3,21,60,90,41,60,1,1,1,1,1,1,1.2705,0.34728,77.1085,90.7582,0.56646,0.58311,1,2,2,50.0311,95.0861
1,4,3,22,90,60,45,44,1,1,1,1,1,1,0.63703,0.574,88.5387,89.2045,0.6331,0.56645,1,2,1,64.1246,93.6435
1,4,3,23,60,90,41,20,1,2,1,2,1,1,1.8041,0.67295,69.2294,95.1971,0.56646,0.49981,2,1,1,85.7644,74.4451
1,4,3,24,60,60,39,44,2,1,2,1,1,1,1.4694,0.37667,81.5474,87.318,0.63309,0.36652,1,2,2,89.7594,79.4389
1,4,4,1,90,90,45,60,1,1,1,1,1,1,0.35811,0.638,96.8617,93.7544,0.44981,0.56646,2,1,2,77.6634,66.5661
1,4,4,2,60,90,39,20,2,2,2,2,1,1,0.4335,1.2669,70.4501,97.5275,0.6331,0.59978,2,2,1,55.5797,52.8054
1,4,4,3,60,60,41,44,1,1,1,2,1,0,0.41716,1.2729,75.6658,71.8928,0.64977,0.48316,2,1,1,94.4203,55.3578
1,4,4,4,60,90,39,60,2,1,1,1,0,1,0.62978,0.34356,83.5449,88.5387,0.36653,0.59974,1,1,1,78.1072,50.475
1,4,4,5,60,60,39,36,2,2,2,2,1,1,0.92446,0.68321,64.6795,94.7532,0.54977,0.51647,2,1,2,97.4165,66.788
1,4,4,6,90,60,35,44,2,1,2,1,1,1,1.4288,0.31577,70.2282,69.2294,0.61644,0.36658,1,1,2,81.9913,68.6745
1,4,4,7,60,90,41,20,1,2,1,2,1,1,0.92941,0.34388,67.5648,100,0.66644,0.33317,1,2,2,95.3081,86.2083
1,4,4,8,60,90,39,60,2,1,1,2,0,0,0.38921,1.4374,74.7781,76.1097,0.58308,0.5665,2,1,1,88.7607,85.3205
1,4,4,9,60,60,39,44,2,1,2,1,1,1,0.48462,0.60137,82.6571,84.0998,0.73305,0.51647,2,2,2,54.248,68.3416
1,4,4,10,90,90,45,20,1,2,1,2,1,1,0.38019,1.1518,85.6534,91.9789,0.43314,0.54986,2,1,1,66.2331,56.6895
1,4,4,11,60,90,41,20,1,2,1,2,1,1,0.47094,0.68649,85.2095,88.6497,0.51645,0.83308,2,2,2,60.7955,52.6944
1,4,4,12,90,90,35,60,2,1,2,1,1,1,1.3797,0.33678,68.0087,100,0.71638,0.38316,1,2,2,93.1996,86.5412
1,4,4,13,90,60,35,36,2,2,2,2,1,1,0.3695,1.4717,84.6547,62.3491,0.58308,0.51653,2,1,2,91.424,86.4302
1,4,4,14,90,60,45,36,1,2,1,2,1,1,0.80343,0.36157,93.1996,84.6547,0.78301,0.56645,1,2,2,69.0075,97.1946
1,4,4,15,90,90,45,60,1,1,1,1,1,1,2.1326,0.38289,72.5586,100,0.5832,0.38322,1,2,1,76.9975,97.3056
1,4,4,16,60,90,41,60,1,1,1,1,1,1,1.0469,0.45789,78.1072,94.8642,0.5664,0.86633,1,2,2,90.6472,50.475
1,4,4,17,90,90,35,20,2,2,2,2,1,1,0.59087,0.41133,76.4426,64.2356,0.71639,0.66645,1,2,2,65.1234,98.5263
1,4,4,18,90,60,35,36,2,2,2,2,1,1,0.32529,0.91312,68.0087,84.2108,0.54979,0.58311,2,2,1,88.7607,50.475
1,4,4,19,60,60,41,44,1,1,2,2,0,0,0.64857,0.75956,84.3217,71.2269,0.6997,0.68304,1,1,1,98.5263,53.1383
1,4,4,20,60,60,39,36,2,2,2,1,1,0,0.60561,0.74544,64.0137,70.894,0.7997,0.43317,2,2,2,86.3192,67.6758
1,4,4,21,90,60,45,44,1,1,1,2,1,0,0.6679,0.43213,75.2219,75.9988,0.6331,1.0329,1,2,2,55.3578,89.7594
1,4,4,22,90,60,45,36,1,2,1,2,1,1,0.30224,0.60674,80.3267,81.8803,0.58316,0.68307,2,2,2,66.788,88.2058
1,4,4,23,90,90,35,20,2,2,2,2,1,1,1.6644,0.40721,79.6609,100,0.48316,0.36652,1,1,2,76.1097,97.9714
1,4,4,24,60,60,41,44,1,1,2,1,0,1,0.50269,0.38271,70.6721,80.1048,0.41655,0.56646,1,2,1,77.7743,67.2319
2,1,1,1,90,60,46,37,1,2,1,1,1,0,2.2307,4.9718,54.9139,57.5772,1.0995,0.86635,2,1,1,54.47,57.5772
2,1,1,2,60,90,41,55,1,1,2,1,0,1,1.0286,0.4149,74.5561,86.4302,0.94965,0.833,1,2,1,52.6944,63.3478
2,1,1,3,90,90,46,55,1,1,2,1,0,1,1.5861,0.8169,50.0311,88.9826,1.0163,0.99961,2,2,2,51.5847,54.47
2,1,1,4,60,60,41,43,1,1,1,2,1,0,3.2314,1.007,50.0311,84.0998,0.99965,0.84971,2,1,1,98.8592,60.3516
2,1,1,5,90,90,34,25,2,2,2,2,1,1,0.46812,0.95802,85.2095,82.4352,1.3661,0.5998,2,1,1,66.3441,67.1209
2,1,1,6,60,60,41,43,1,1,2,2,0,0,3.8576,0.71951,74.2232,83.6559,1.3828,1.1495,1,1,1,59.4638,80.5487
2,1,1,7,60,60,39,43,2,1,1,1,0,1,6.1435,1.4018,53.2493,79.5499,1.3162,1.2329,2,2,1,51.0298,60.5735
2,1,1,8,60,60,41,37,1,2,1,2,1,1,0.80909,7.9241,62.46,52.1396,1.616,1.5661,2,2,1,99.525,85.4315
2,1,1,9,90,90,46,55,1,1,1,2,1,0,1.0973,5.8516,86.8741,58.0211,0.91634,1.0162,2,2,2,99.1921,74.4451
2,1,1,10,90,90,46,55,1,1,1,1,1,1,0.96154,1.8556,83.4339,52.6944,1.2495,0.84967,1,1,1,84.0998,74.889
2,1,1,11,60,90,39,25,2,2,2,2,1,1,2.6603,0.3396,62.1271,96.5288,0.84966,0.78301,1,2,2,72.3366,53.3603
2,1,1,12,90,60,34,43,2,1,1,2,0,0,4.2249,1.6085,91.313,54.359,1.7993,0.63306,1,2,1,90.7582,54.6919
2,1,1,13,60,90,39,25,2,2,1,2,0,1,6.0764,1.4398,51.6957,95.8629,1.716,0.96629,2,2,2,99.636,82.2132
2,1,1,14,60,90,41,25,1,2,1,2,1,1,6.6305,2.3946,71.3379,85.4315,1.1829,1.8659,1,2,1,79.5499,71.5598
2,1,1,15,90,60,34,37,2,2,1,2,0,1,0.56386,2.617,66.2331,85.8754,0.4498,0.73305,2,1,2,70.2282,66.5661
2,1,1,16,90,90,34,25,2,2,1,2,0,1,0.39866,6.1992,81.1035,54.1371,0.81642,0.58311,2,2,1,88.8716,55.4688
2,1,1,17,90,60,46,37,1,2,1,2,1,1,5.2036,2.0049,55.6907,71.7818,1.6161,0.66641,1,1,2,71.7818,60.7955
2,1,1,18,60,60,39,43,2,1,2,2,1,0,4.3663,1.2465,55.5797,89.9814,0.64974,0.78303,2,2,1,57.2443,90.6472
2,1,1,19,60,90,39,55,2,1,1,1,0,1,3.292,0.74958,82.8791,56.4675,0.56644,0.83301,1,1,2,82.8791,54.1371
2,1,1,20,60,90,39,25,2,2,2,2,1,1,1.5978,1.3809,71.3379,58.687,0.64974,0.78303,1,2,2,71.2269,79.4389
2,1,1,21,90,60,46,43,1,1,1,1,1,1,0.88584,0.38678,60.2406,67.5648,1.766,0.41649,1,2,1,56.8004,66.899
2,1,1,22,90,60,34,43,2,1,2,2,1,0,1.5279,4.458,81.1035,65.1234,1.1829,1.0163,2,2,1,51.1408,83.323
2,1,1,23,60,60,39,37,2,2,2,1,1,0,5.9033,2.8649,59.6857,53.2493,1.2495,1.3495,1,1,2,64.4576,53.9151
2,1,1,24,90,90,46,25,1,2,1,2,1,1,1.062,1.1391,85.7644,55.9126,1.0163,1.0996,1,2,2,63.5698,96.9727
2,1,2,1,60,90,39,55,2,1,2,1,1,1,0.56924,1.8218,90.6472,89.0936,0.83301,1.0829,2,2,1,79.217,91.646
2,1,2,2,90,90,34,25,2,2,2,2,1,1,1.9599,0.86454,58.1321,90.5362,0.86634,1.4995,2,2,1,85.9863,71.1159
2,1,2,3,90,60,46,43,1,1,2,2,0,0,1.4633,1.9246,85.8754,54.8029,1.2995,0.68307,1,2,2,86.0973,67.7868
2,1,2,4,60,60,41,43,1,1,2,2,0,0,1.6622,5.3354,55.5797,59.5748,1.1496,0.88299,2,1,2,90.7582,95.9739
2,1,2,5,90,90,46,25,1,2,1,2,1,1,0.84823,1.3692,61.2393,89.3155,0.99961,1.3495,2,2,2,81.1035,51.6957
2,1,2,6,90,60,46,43,1,1,2,2,0,0,1.308,1.0339,78.995,57.7992,1.2162,0.66641,1,1,1,61.7942,87.207
2,1,2,7,90,60,46,43,1,1,1,2,1,0,1.8935,1.2847,94.6422,64.5685,0.68309,0.68309,1,2,1,93.9764,93.0886
2,1,2,8,90,90,34,55,2,1,1,2,0,0,1.2744,3.1004,59.4638,93.7544,0.79969,0.74975,2,2,2,82.3242,94.6422
2,1,2,9,90,60,34,37,2,2,2,2,1,1,0.7909,0.39276,89.6484,70.2282,1.0829,1.2828,1,1,1,55.6907,99.525
2,1,2,10,60,60,39,43,2,1,1,2,0,0,1.5549,0.69289,88.2058,51.6957,0.94965,2.1492,1,1,2,88.2058,50.6969
2,1,2,11,90,90,34,25,2,2,2,1,1,0,1.59,5.9968,90.2033,64.9015,0.64974,1.4328,2,1,2,82.5462,94.7532
2,1,2,12,60,60,41,37,1,2,2,2,0,1,3.2733,1.7762,80.3267,55.1358,1.3662,0.98295,1,2,1,51.6957,94.6422
2,1,2,13,60,90,41,55,1,1,2,2,0,0,3.1069,11.7167,50.0311,50.0311,0.89965,1.1329,2,2,1,66.3441,61.2393
2,1,2,14,90,60,34,43,2,1,1,1,0,1,2.4381,3.9972,66.2331,50.0311,1.2495,0.69976,1,1,2,99.747,80.8816
2,1,2,15,90,90,46,25,1,2,1,2,1,1,0.53849,2.3724,94.4203,75.5549,0.68312,0.53317,2,2,1,76.4426,75.5549
2,1,2,16,90,90,34,25,2,2,2,2,1,1,1.9082,0.73889,61.6832,97.9714,0.83301,0.51649,2,1,2,54.248,91.424
2,1,2,17,60,90,39,25,2,2,2,2,1,1,1.2193,0.54712,64.6795,98.7482,0.99965,0.61643,2,2,2,96.7507,80.9925
2,1,2,18,60,60,41,43,1,1,1,2,1,0,4.5533,0.61819,50.0311,95.1971,0.86634,1.1162,1,1,2,78.2182,67.5648
2,1,2,19,90,60,46,43,1,1,2,1,0,1,7.5522,0.70779,54.1371,90.5362,1.0996,1.0829,2,2,2,81.5474,77.1085
2,1,2,20,60,60,39,37,2,2,2,2,1,1,1.6263,0.61439,97.5275,66.3441,0.64978,0.5998,1,1,2,97.5275,83.101
2,1,2,21,60,90,41,25,1,2,1,2,1,1,4.9335,0.69923,58.0211,90.0923,0.89969,1.1496,1,1,1,64.7905,54.0261
2,1,2,22,60,60,39,43,2,1,1,1,0,1,0.655,0.6791,78.1072,80.5487,1.0496,1.1995,2,2,1,95.8629,73.5574
2,1,2,23,60,90,39,25,2,2,1,2,0,1,1.307,0.4426,77.3304,92.9776,0.74974,0.61643,1,2,2,92.4228,64.1246
2,1,2,24,60,90,41,25,1,2,1,2,1,1,1.6254,0.6946,88.0948,90.2033,0.94963,0.58311,1,1,1,58.2431,86.5412
2,1,3,1,60,90,39,25,2,2,2,2,1,1,3.4723,0.46269,50.5859,97.7495,0.79975,0.84963,1,2,2,73.5574,92.8667
2,1,3,2,60,60,41,43,1,1,2,1,0,1,1.2036,2.3614,91.7569,51.9176,0.76637,0.79967,2,1,2,97.4165,66.1222
2,1,3,3,90,60,46,37,1,2,1,2,1,1,1.2991,4.5648,50.0311,50.0311,1.1162,0.6497,2,2,1,70.3391,73.8903
2,1,3,4,60,90,39,25,2,2,1,2,0,1,2.0504,0.42143,81.4364,92.7557,0.89968,0.68306,1,2,1,70.0062,95.1971
2,1,3,5,90,90,34,25,2,2,2,2,1,1,2.983,0.38214,68.4526,93.5325,1.7993,1.0496,1,1,1,83.6559,57.7992
2,1,3,6,90,90,46,55,1,1,1,1,1,1,1.7464,1.3457,71.005,88.6497,0.59985,1.4494,2,2,1,81.8803,53.0273
2,1,3,7,60,60,39,37,2,2,1,2,0,1,3.5196,1.9233,72.3366,59.9077,0.89959,2.0159,1,1,1,51.9176,93.0886
2,1,3,8,60,60,41,43,1,1,2,2,0,0,1.0971,4.0209,62.9039,56.4675,1.2328,1.1662,2,1,2,96.4178,65.9002
2,1,3,9,60,90,41,55,1,1,1,1,1,1,1.5762,8.0264,75.5549,50.0311,0.83304,0.84967,1,1,1,62.0162,89.0936
2,1,3,10,90,60,34,43,2,1,1,2,0,0,3.2223,0.65171,62.682,89.3155,1.0829,1.0662,1,1,2,89.6484,51.1408
2,1,3,11,60,60,41,37,1,2,1,1,1,0,0.62295,0.63156,91.424,90.6472,0.43316,0.91631,2,2,2,88.6497,84.0998
2,1,3,12,90,60,34,43,2,1,1,2,0,0,1.4935,0.83364,91.646,63.7917,1.1662,0.88299,1,2,1,57.3553,54.6919
2,1,3,13,60,60,39,37,2,2,1,1,0,0,0.8146,3.2663,93.3105,55.2468,0.76636,1.0497,2,1,1,99.0811,78.6621
2,1,3,14,90,60,46,43,1,1,1,1,1,1,0.48265,2.9492,92.0898,62.0162,0.6664,0.96631,2,1,2,65.6783,87.6509
2,1,3,15,90,90,46,25,1,2,1,2,1,1,0.55941,0.88084,96.1958,86.0973,1.0995,1.1162,2,2,2,60.0186,81.1035
2,1,3,16,90,90,34,25,2,2,2,2,1,1,0.80457,1.7341,90.7582,84.2108,0.94964,1.0496,2,1,2,51.6957,99.4141
2,1,3,17,90,90,46,25,1,2,1,2,1,1,1.9649,0.63058,91.646,90.5362,0.64976,0.76636,1,1,1,85.9863,73.1135
2,1,3,18,60,90,41,25,1,2,1,2,1,1,2.2819,0.55102,88.9826,90.6472,0.8497,0.71639,1,1,2,93.9764,68.7855
2,1,3,19,90,60,46,43,1,1,1,1,1,1,1.1912,2.9695,82.6571,88.0948,0.86632,1.1329,2,1,1,55.6907,54.8029
2,1,3,20,60,90,39,55,2,1,2,1,1,1,1.5538,1.763,56.3565,53.4712,0.94962,1.1663,2,2,1,78.6621,84.2108
2,1,3,21,60,90,41,25,1,2,1,1,1,0,6.4437,1.4472,72.0037,56.0236,1.3995,0.64975,1,2,2,94.5312,62.682
2,1,3,22,60,60,39,43,2,1,2,1,1,1,2.0632,2.4681,53.0273,55.0249,0.78303,0.94964,2,2,2,51.5847,98.3043
2,1,3,23,90,90,34,55,2,1,2,2,1,0,0.73622,0.74381,60.4625,61.3503,1.3828,0.71639,1,1,2,84.8766,71.4489
2,1,3,24,90,60,34,43,2,1,2,1,1,1,8.9486,0.4741,54.359,74.1122,2.1658,0.81634,1,2,2,79.9938,55.1358
2,1,4,1,60,60,41,43,1,1,2,2,0,0,3.1791,5.0605,52.3615,52.9164,1.9826,1.3828,2,1,1,93.6435,99.858
2,1,4,2,60,60,39,37,2,2,2,2,1,1,0.74713,1.7042,86.9851,62.0162,0.96629,1.1829,1,1,1,98.9702,51.8066
2,1,4,3,90,60,46,43,1,1,1,2,1,0,1.4229,0.80059,71.1159,69.2294,0.84968,1.5494,2,1,1,86.9851,61.6832
2,1,4,4,90,90,34,25,2,2,2,2,1,1,1.003,0.44379,80.4377,87.54,0.59981,0.63309,1,2,2,77.5524,81.6584
2,1,4,5,60,60,41,37,1,2,1,2,1,1,0.90645,4.2193,50.0311,72.5586,2.2325,0.84964,2,1,2,52.1396,57.9102
2,1,4,6,60,90,39,25,2,2,2,2,1,1,1.1547,1.2823,100,55.1358,0.51641,0.83303,1,2,2,85.2095,54.0261
2,1,4,7,60,90,39,55,2,1,2,1,1,1,0.33777,2.4765,73.8903,60.6845,0.38321,0.98299,2,2,2,73.8903,72.7805
2,1,4,8,60,60,39,37,2,2,1,2,0,1,7.6029,2.1379,56.3565,50.0311,0.71644,0.58314,1,2,1,80.1048,52.9164
2,1,4,9,60,90,41,55,1,1,1,1,1,1,0.3537,0.68328,95.0861,89.2045,0.99965,1.1829,2,1,1,52.8054,53.3603
2,1,4,10,90,90,46,55,1,1,1,1,1,1,0.30435,0.6695,99.0811,82.6571,0.29988,0.51646,2,1,1,99.0811,82.6571
2,1,4,11,90,90,34,25,2,2,2,2,1,1,2.0634,2.0768,51.8066,57.9102,2.2992,0.94961,1,1,2,54.0261,57.9102
2,1,4,12,60,90,41,25,1,2,1,2,1,1,1.0989,0.61535,99.858,95.1971,0.58311,0.84967,2,1,2,99.858,83.5449
2,1,4,13,90,60,34,37,2,2,1,2,0,1,2.2876,2.108,94.9751,92.2008,0.54982,0.44984,2,1,1,94.9751,92.2008
2,1,4,14,60,90,41,55,1,1,2,1,0,1,0.81304,0.79126,75.4439,93.7544,0.68306,0.56646,1,2,1,75.4439,93.7544
2,1,4,15,90,90,46,55,1,1,1,1,1,1,5.6657,0.41616,53.3603,79.5499,1.033,0.91633,1,2,2,73.6683,75.6658
2,1,4,16,90,90,46,25,1,2,1,2,1,1,0.6643,0.67007,86.2083,93.8654,0.68305,1.2495,2,2,2,86.2083,79.4389
2,1,4,17,90,60,34,43,2,1,2,1,1,1,1.2724,5.395,90.6472,53.4712,0.48318,2.2325,1,1,2,90.6472,58.465
2,1,4,18,60,60,39,43,2,1,1,2,0,0,2.6315,0.49414,95.9739,64.5685,0.44985,1.2329,1,2,2,95.9739,64.5685
2,1,4,19,60,90,39,55,2,1,2,1,1,1,2.0402,0.78089,96.5288,94.8642,0.59975,1.7493,1,1,2,96.5288,51.3627
2,1,4,20,90,60,46,37,1,2,1,2,1,1,1.0015,1.0274,89.4265,61.1284,1.2495,1.1329,1,2,1,56.1346,89.6484
2,1,4,21,90,60,46,43,1,1,1,2,1,0,0.70371,0.8784,85.8754,92.5337,0.99962,0.78304,2,2,2,54.47,59.7967
2,1,4,22,90,60,34,37,2,2,2,2,1,1,0.52709,0.75825,96.4178,86.4302,0.96629,0.91637,1,2,1,76.8865,53.0273
2,1,4,23,90,90,46,55,1,1,2,1,0,1,0.45764,0.98795,90.5362,89.3155,0.79969,0.98295,2,2,2,59.1309,60.2406
2,1,4,24,60,60,39,37,2,2,2,1,1,0,1.4836,1.8032,75.111,62.0162,0.81635,0.73304,2,1,1,82.6571,62.46
2,2,1,1,90,90,46,55,1,1,1,1,1,1,1.6689,2.4881,81.4364,66.4551,1.2662,3.0988,2,1,1,99.0811,69.4513
2,2,1,2,60,60,39,43,2,1,1,1,0,1,1.8516,0.85334,75.111,77.8853,1.1496,0.68312,2,1,2,94.7532,75.7768
2,2,1,3,60,90,39,25,2,2,2,2,1,1,4.3166,0.88872,59.3528,92.3118,1.616,0.66642,1,1,2,79.4389,84.4327
2,2,1,4,60,60,41,43,1,1,1,2,1,0,5.1419,1.3124,83.323,52.1396,1.0329,0.76637,1,2,2,83.323,59.0199
2,2,1,5,90,90,34,25,2,2,2,2,1,1,0.36871,0.56199,88.3168,93.5325,0.89965,0.64974,2,1,1,76.6646,86.3192
2,2,1,6,60,90,39,25,2,2,2,2,1,1,5.6887,0.76602,57.0224,88.7607,0.61643,0.8164,2,1,2,57.0224,76.3317
2,2,1,7,60,90,39,25,2,2,1,2,0,1,3.977,0.47444,60.4625,96.0849,0.81635,0.83301,1,1,1,60.4625,78.995
2,2,1,8,60,60,41,43,1,1,1,1,1,1,2.0137,1.6846,91.646,66.2331,0.71645,0.99969,2,2,1,80.5487,92.4228
2,2,1,9,90,90,34,25,2,2,2,2,1,1,1.0701,1.0916,90.6472,86.5412,0.49984,1.4661,2,2,1,90.2033,59.9077
2,2,1,10,90,60,46,37,1,2,1,1,1,0,1.3698,5.2208,88.2058,53.3603,0.99961,1.1829,2,2,2,87.318,75.8878
2,2,1,11,90,90,46,55,1,1,1,1,1,1,0.48179,0.69393,83.9888,84.5437,0.79969,2.8156,2,1,1,60.4625,71.5598
2,2,1,12,90,60,34,43,2,1,1,2,0,0,3.2918,2.0905,61.4613,80.2157,0.94963,0.54979,1,1,2,86.3192,72.6696
2,2,1,13,90,90,46,25,1,2,1,2,1,1,0.48045,1.2328,87.207,93.8654,1.3661,0.88298,2,2,2,71.7818,82.1023
2,2,1,14,60,90,41,25,1,2,2,2,0,1,2.1932,0.45627,84.6547,90.2033,1.2662,1.0329,1,1,2,55.8017,63.9027
2,2,1,15,60,60,41,43,1,1,1,2,1,0,3.9676,2.4288,89.6484,77.8853,1.716,1.2495,1,1,1,58.7979,64.6795
2,2,1,16,90,90,46,25,1,2,1,2,1,1,1.9471,0.88486,53.6932,83.6559,0.79969,0.86634,2,2,1,52.9164,73.8903
2,2,1,17,90,60,46,43,1,1,1,2,1,0,1.8531,3.992,81.8803,84.3217,0.93296,1.0663,1,1,1,74.4451,98.9702
2,2,1,18,60,90,39,55,2,1,1,2,0,0,0.84889,5.6331,92.4228,73.4464,0.833,1.1662,2,2,1,62.2381,82.3242
2,2,1,19,60,60,41,37,1,2,2,1,0,0,0.55108,0.71111,86.0973,50.0311,0.91633,0.74974,1,2,2,71.4489,70.2282
2,2,1,20,90,60,34,43,2,1,2,1,1,1,2.2753,0.38916,83.4339,64.5685,0.8997,0.56649,1,1,1,67.3429,71.4489
2,2,1,21,60,60,39,43,2,1,2,1,1,1,3.3274,0.47459,63.2369,89.9814,0.71639,0.74976,1,1,2,66.0112,96.3068
2,2,1,22,60,90,39,25,2,2,2,2,1,1,3.6736,0.60713,78.1072,84.6547,0.66644,1.0829,2,2,2,78.1072,53.3603
2,2,1,23,90,60,34,37,2,2,2,2,1,1,0.76303,1.8728,50.9189,51.8066,1.2828,1.6827,1,2,1,62.682,89.2045
2,2,1,24,90,60,46,43,1,1,2,2,0,0,2.2879,0.78259,50.0311,60.4625,0.99962,0.68307,1,2,2,74.4451,74.4451
2,2,2,1,90,60,46,37,1,2,1,2,1,1,1.5886,0.51451,89.8704,66.4551,0.78303,0.96629,1,2,1,89.8704,93.6435
2,2,2,2,60,60,39,43,2,1,1,1,0,1,0.65507,0.74196,83.7669,83.4339,0.7997,1.1829,2,1,1,80.1048,83.4339
2,2,2,3,60,90,41,25,1,2,1,2,1,1,2.0403,0.44533,84.6547,87.318,0.86635,0.64978,1,2,1,65.9002,83.5449
2,2,2,4,60,60,39,37,2,2,2,2,1,1,0.97802,3.3107,88.5387,55.6907,1.616,0.86634,1,1,1,53.0273,97.6385
2,2,2,5,90,90,34,55,2,1,2,1,1,1,1.5657,0.88668,78.5511,84.6547,0.86633,1.0496,1,1,2,75.3329,52.1396
2,2,2,6,60,90,39,25,2,2,1,2,0,1,0.43669,0.85776,95.9739,89.2045,0.91632,1.0329,2,1,2,57.5772,99.747
2,2,2,7,90,60,46,37,1,2,1,2,1,1,4.6107,0.45022,50.0311,87.54,0.76634,0.59983,1,1,1,85.4315,58.0211
2,2,2,8,60,90,39,25,2,2,1,2,0,1,0.57629,0.6813,88.0948,88.9826,0.61639,0.79969,2,2,1,77.7743,55.4688
2,2,2,9,90,60,34,37,2,2,1,1,0,0,0.48386,0.89209,85.4315,55.2468,0.48315,1.0829,2,1,1,86.8741,86.4302
2,2,2,10,90,60,46,43,1,1,1,1,1,1,3.8327,0.91523,58.354,89.7594,1.0163,1.716,2,2,1,83.4339,78.995
2,2,2,11,60,90,39,25,2,2,1,2,0,1,1.7079,0.46333,87.7619,90.2033,0.74973,1.2495,1,1,2,58.465,72.0037
2,2,2,12,60,90,41,55,1,1,2,1,0,1,1.0845,0.60075,87.6509,92.8667,0.71639,1.0663,2,1,1,62.46,99.636
2,2,2,13,60,90,39,55,2,1,1,1,0,1,1.1246,0.47215,95.419,94.9751,0.66641,0.81636,1,1,2,65.6783,59.0199
2,2,2,14,90,90,46,55,1,1,1,1,1,1,0.25983,1.1927,91.9789,95.641,0.74972,0.6164,2,1,1,72.8915,90.4252
2,2,2,15,90,60,46,37,1,2,1,1,1,0,0.65951,1.1795,62.3491,91.8679,0.71639,0.66641,2,1,1,81.9913,80.2157
2,2,2,16,90,90,46,25,1,2,1,2,1,1,2.8872,0.76049,90.5362,56.9114,1.1162,1.2828,1,1,1,54.47,89.2045
2,2,2,17,90,60,34,37,2,2,2,2,1,1,1.8476,2.6368,91.9789,87.207,0.83303,0.93301,1,1,1,65.3453,59.6857
2,2,2,18,60,60,39,43,2,1,2,1,1,1,1.7372,0.49262,91.646,93.0886,0.46647,1.1162,1,1,2,75.4439,50.253
2,2,2,19,60,60,41,43,1,1,1,1,1,1,5.4002,0.75999,50.0311,90.2033,1.1329,0.69976,2,1,2,96.5288,83.9888
2,2,2,20,90,90,34,55,2,1,2,1,1,1,4.0799,0.34326,58.1321,90.5362,0.74974,0.73305,1,2,1,76.4426,93.9764
2,2,2,21,90,90,46,55,1,1,1,1,1,1,0.63198,0.661,89.2045,94.9751,1.0496,0.73306,2,2,1,74.6671,50.0311
2,2,2,22,60,60,39,43,2,1,1,1,0,1,3.1724,5.2065,55.9126,62.3491,1.5994,0.86633,2,2,1,99.9689,71.6708
2,2,2,23,90,90,46,25,1,2,1,2,1,1,1.8575,0.54956,56.6895,99.3031,0.86633,0.61643,2,1,2,94.5312,61.7942
2,2,2,24,60,60,41,43,1,1,2,2,0,0,2.3101,0.48822,86.9851,95.419,0.84968,0.48315,1,1,1,93.0886,90.5362
2,2,3,1,60,90,39,55,2,1,2,1,1,1,0.41462,0.60515,89.2045,93.1996,0.86632,0.99965,2,2,2,68.7855,86.6522
2,2,3,2,90,90,46,55,1,1,1,2,1,0,1.8387,1.6546,91.9789,52.8054,0.93299,1.3995,1,2,2,50.364,59.6857
2,2,3,3,90,90,46,55,1,1,2,1,0,1,1.6146,0.35156,90.5362,85.0985,0.48317,0.34986,1,1,1,81.7694,83.5449
2,2,3,4,60,60,39,43,2,1,2,2,1,0,0.67914,0.88955,76.2207,94.4203,0.84967,0.56644,2,2,2,59.0199,85.4315
2,2,3,5,60,90,39,25,2,2,2,1,1,0,0.7214,1.9611,89.3155,55.4688,0.7164,0.71638,2,2,2,50.5859,54.248
2,2,3,6,90,90,46,55,1,1,2,1,0,1,4.5758,0.40332,50.0311,95.8629,0.66641,0.66643,1,2,1,53.4712,74.889
2,2,3,7,60,60,41,37,1,2,2,2,0,1,1.3532,0.82089,57.3553,85.5424,1.0662,0.96631,2,1,2,92.4228,77.1085
2,2,3,8,90,90,34,55,2,1,2,1,1,1,1.3272,0.71683,89.6484,52.0286,0.86634,0.7831,1,1,2,74.3342,95.419
2,2,3,9,90,90,34,25,2,2,2,2,1,1,2.775,0.54246,84.4327,92.4228,0.61644,0.63309,2,1,2,77.7743,92.4228
2,2,3,10,90,90,34,25,2,2,1,2,0,1,1.6388,0.92547,61.6832,97.0836,0.74971,1.0663,2,1,1,92.4228,52.2505
2,2,3,11,60,60,41,37,1,2,1,2,1,1,0.60316,2.5187,85.4315,53.9151,0.44983,0.56648,2,1,1,82.2132,53.0273
2,2,3,12,60,60,41,43,1,1,1,1,1,1,1.7832,0.34615,63.1259,80.9925,0.66641,0.58314,1,2,1,59.6857,70.6721
2,2,3,13,90,60,46,37,1,2,1,1,1,0,2.0931,0.75964,78.5511,50.0311,0.89969,0.64977,1,1,2,55.8017,98.6373
2,2,3,14,60,60,41,37,1,2,2,2,0,1,5.4691,1.5702,77.8853,50.364,1.4661,0.83302,1,1,1,70.0062,84.3217
2,2,3,15,90,60,46,43,1,1,1,1,1,1,3.1511,0.45746,75.7768,81.2145,0.78306,0.63311,1,1,1,75.7768,67.2319
2,2,3,16,90,60,34,37,2,2,2,2,1,1,0.44552,1.4271,82.3242,60.3516,0.48315,0.88301,2,2,1,70.1172,92.4228
2,2,3,17,60,90,39,25,2,2,1,2,0,1,2.0417,0.50137,58.465,78.8841,0.78303,0.39984,1,2,1,92.2008,69.5623
2,2,3,18,90,60,46,43,1,1,2,2,0,0,2.0269,1.6451,50.0311,82.4352,0.89965,0.76636,1,2,2,83.5449,53.4712
2,2,3,19,90,60,34,43,2,1,2,2,1,0,2.3142,1.1946,82.2132,71.8928,0.93297,0.5498,1,1,2,98.6373,67.8977
2,2,3,20,60,90,41,25,1,2,2,2,0,1,2.1337,0.48202,78.4402,78.995,0.46649,0.63307,1,2,1,77.4414,72.4476
2,2,3,21,60,90,39,25,2,2,1,2,0,1,0.32935,0.95307,87.8729,79.4389,0.33319,0.44989,2,2,2,85.9863,74.1122
2,2,3,22,60,90,39,55,2,1,1,1,0,1,0.39737,0.68859,50.5859,91.7569,0.38318,0.66641,2,2,2,50.5859,90.3143
2,2,3,23,90,60,34,43,2,1,1,1,0,1,0.70165,0.69973,90.7582,87.429,0.44984,0.63307,2,2,1,82.9901,62.3491
2,2,3,24,60,60,41,37,1,2,1,1,1,0,0.79457,2.9736,91.535,95.1971,0.39984,0.61647,2,1,2,91.535,95.1971
2,2,4,1,90,90,46,55,1,1,2,2,0,0,2.8429,0.40654,89.9814,57.5772,0.69976,0.63307,1,2,1,89.9814,83.323
2,2,4,2,90,60,34,43,2,1,2,2,1,0,0.63265,0.44678,89.8704,62.0162,1.1995,0.68306,1,1,2,56.0236,56.6895
2,2,4,3,60,60,41,37,1,2,1,1,1,0,1.4986,0.64513,64.9015,91.0911,1.0163,0.73303,2,2,2,96.5288,71.6708
2,2,4,4,60,90,41,55,1,1,1,1,1,1,6.0006,0.86597,50.0311,92.4228,1.2828,0.56643,1,2,2,88.2058,78.2182
2,2,4,5,90,90,46,55,1,1,1,1,1,1,1.0069,0.43254,91.8679,92.0898,0.61643,1.1329,1,1,2,74.1122,64.0137
2,2,4,6,90,60,46,43,1,1,1,1,1,1,1.755,0.5745,95.8629,60.6845,1.0663,0.76636,1,2,1,98.0824,93.0886
2,2,4,7,60,60,41,43,1,1,2,1,0,1,2.8474,0.91551,58.465,62.1271,0.88299,0.86634,2,2,1,92.0898,65.4563
2,2,4,8,90,90,34,25,2,2,1,2,0,1,3.5073,0.42487,57.9102,95.8629,0.8996,0.39987,1,2,1,63.9027,88.5387
2,2,4,9,60,90,41,25,1,2,1,2,1,1,0.52785,1.4935,90.3143,78.7731,0.73305,0.73304,2,2,2,52.6944,78.7731
2,2,4,10,60,90,39,25,2,2,1,2,0,1,0.38873,1.6429,91.9789,87.318,0.94964,0.59973,2,2,2,52.2505,75.5549
2,2,4,11,90,60,34,37,2,2,1,2,0,1,2.475,0.45006,77.1085,61.0174,0.61642,0.64975,1,1,2,56.1346,82.7681
2,2,4,12,90,90,34,55,2,1,1,2,0,0,1.0931,6.6811,90.9801,69.3404,0.48315,1.0829,2,1,1,72.3366,57.7992
2,2,4,13,90,90,34,25,2,2,2,2,1,1,1.1617,0.39755,91.646,82.5462,0.83299,0.91635,1,1,2,97.0836,66.1222
2,2,4,14,90,60,46,37,1,2,1,2,1,1,1.2236,4.3152,53.5822,75.9988,0.73305,0.76637,2,1,1,91.0911,60.7955
2,2,4,15,60,90,39,55,2,1,1,1,0,1,1.7742,0.73053,72.3366,94.3093,0.71642,0.61643,2,1,1,70.894,80.4377
2,2,4,16,60,90,39,55,2,1,1,1,0,1,3.16,0.53815,90.6472,57.6882,1.3328,0.5831,1,1,1,61.6832,81.7694
2,2,4,17,60,90,39,25,2,2,2,2,1,1,0.41312,0.61534,91.646,92.7557,1.0829,0.59976,2,1,1,55.9126,68.1197
2,2,4,18,90,60,34,37,2,2,2,1,1,0,0.41688,0.68194,91.8679,94.8642,0.83305,0.4165,2,1,2,64.2356,84.5437
2,2,4,19,90,60,46,43,1,1,1,1,1,1,2.3939,2.2074,95.752,57.5772,0.56641,0.86633,1,2,2,82.6571,69.4513
2,2,4,20,60,60,39,37,2,2,1,1,0,0,4.0436,0.91889,50.0311,50.0311,0.4998,0.96629,1,1,2,66.1222,70.783
2,2,4,21,60,60,41,37,1,2,1,1,1,0,0.80861,5.3817,82.4352,57.7992,0.64975,0.94961,2,1,1,61.9052,55.5797
2,2,4,22,60,60,41,43,1,1,1,2,1,0,0.64879,1.1528,62.682,69.0075,1.0163,1.0329,2,1,2,95.3081,60.2406
2,2,4,23,60,60,39,37,2,2,1,2,0,1,0.42219,2.5656,79.8828,69.1184,0.64962,0.76633,2,2,1,63.6808,83.6559
2,2,4,24,90,90,46,55,1,1,1,1,1,1,1.5886,0.49378,87.318,87.429,0.48318,0.74977,1,1,1,77.3304,59.7967
2,3,1,1,90,60,34,43,2,1,2,1,1,1,1.56,1.693,89.4265,59.2418,2.0825,1.0329,1,2,2,66.5661,95.53
2,3,1,2,90,90,46,55,1,1,1,1,1,1,0.59221,0.51534,93.9764,85.8754,0.6831,0.76637,2,1,1,80.7706,98.3043
2,3,1,3,60,60,41,37,1,2,2,2,0,1,1.1826,0.60192,89.4265,50.0311,0.63309,0.46649,1,1,2,86.8741,56.4675
2,3,1,4,90,60,34,43,2,1,2,1,1,1,0.40629,0.9719,96.8617,92.2008,0.29993,0.99962,2,2,2,96.8617,61.7942
2,3,1,5,90,90,46,55,1,1,2,1,0,1,3.0059,0.39808,79.217,93.9764,0.98299,0.71635,1,1,1,81.8803,62.9039
2,3,1,6,60,60,41,37,1,2,2,2,0,1,1.2752,5.0981,60.3516,81.9913,0.89964,0.74971,2,2,2,92.5337,81.9913
2,3,1,7,90,60,34,37,2,2,2,2,1,1,2.3309,0.98648,90.3143,58.0211,1.8659,0.76637,1,1,1,88.6497,97.7495
2,3,1,8,90,90,34,25,2,2,1,2,0,1,3.5835,1.6792,56.9114,94.3093,1.0829,0.89965,2,1,1,93.3105,57.3553
2,3,1,9,60,90,41,55,1,1,1,1,1,1,2.6045,1.3166,51.4737,90.3143,0.74981,0.6164,1,1,1,51.4737,60.5735
2,3,1,10,60,90,41,25,1,2,2,2,0,1,4.4109,0.50313,69.5623,91.2021,0.58314,0.83298,1,1,2,69.5623,98.5263
2,3,1,11,60,90,41,25,1,2,1,2,1,1,0.47082,1.9435,92.7557,60.9064,0.81635,0.64975,2,2,2,70.6721,68.1197
2,3,1,12,90,90,46,55,1,1,1,1,1,1,0.61205,1.0281,93.3105,95.53,1.6827,0.81635,2,2,1,50.475,65.1234
2,3,1,13,60,90,41,55,1,1,1,1,1,1,1.4584,0.54788,97.9714,95.641,0.54979,0.74968,2,1,1,96.4178,79.3279
2,3,1,14,90,60,46,37,1,2,1,2,1,1,0.68364,3.9616,98.8592,66.0112,0.53309,0.88304,2,2,1,92.9776,89.9814
2,3,1,15,60,60,41,43,1,1,1,1,1,1,4.1395,3.7597,59.2418,92.2008,1.0829,0.66641,2,2,1,75.7768,86.5412
2,3,1,16,90,90,34,25,2,2,2,2,1,1,5.6433,0.41275,57.2443,94.3093,1.1163,0.54979,1,2,1,69.4513,63.5698
2,3,1,17,60,60,39,43,2,1,2,1,1,1,2.6381,0.67732,73.4464,74.1122,0.73309,0.88298,1,1,2,99.4141,52.1396
2,3,1,18,60,60,39,43,2,1,2,1,1,1,1.2076,1.9731,91.313,51.5847,0.69972,0.79969,2,1,2,95.752,84.5437
2,3,1,19,60,90,39,25,2,2,2,2,1,1,1.1336,1.6097,59.6857,56.8004,1.5994,0.78303,2,2,1,97.5275,90.4252
2,3,1,20,60,90,39,55,2,1,1,1,0,1,2.3012,0.35394,87.207,83.9888,0.89963,0.73306,1,1,2,93.7544,96.6397
2,3,1,21,90,60,34,37,2,2,2,1,1,0,3.7062,1.0383,81.8803,63.9027,0.98296,1.2328,2,2,2,96.6397,90.0923
2,3,1,22,90,60,34,37,2,2,2,2,1,1,1.8729,7.8412,63.2369,57.9102,1.2995,1.3994,1,1,1,91.2021,92.6447
2,3,1,23,60,60,41,37,1,2,1,2,1,1,1.7409,1.5366,86.7631,54.581,0.76646,1.4163,1,2,2,51.0298,51.2518
2,3,1,24,90,90,34,55,2,1,2,1,1,1,1.9734,0.41415,73.8903,88.3168,0.58317,0.76635,1,2,1,73.8903,70.1172
2,3,2,1,60,60,41,43,1,1,1,1,1,1,2.0324,9.8787,72.2257,53.8042,1.0163,1.6827,1,2,1,89.9814,74.6671
2,3,2,2,60,90,39,55,2,1,1,1,0,1,4.8412,0.50256,72.6696,89.4265,0.71642,0.66637,1,2,2,93.9764,96.9727
2,3,2,3,60,60,41,37,1,2,1,2,1,1,1.4425,1.0869,61.6832,88.5387,0.66642,0.74969,2,2,1,83.9888,77.1085
2,3,2,4,60,90,39,55,2,1,2,1,1,1,1.2857,0.47528,94.0874,90.5362,0.71639,0.98295,1,1,1,58.9089,68.8965
2,3,2,5,60,60,39,37,2,2,1,2,0,1,1.2692,11.3462,61.4613,65.6783,1.0496,0.91631,2,1,2,90.2033,66.4551
2,3,2,6,90,90,34,55,2,1,1,2,0,0,2.0615,3.0951,76.3317,85.5424,0.69976,1.1496,1,1,2,61.0174,92.2008
2,3,2,7,60,60,41,43,1,1,2,1,0,1,0.51913,1.9684,50.0311,50.0311,0.83301,0.74971,2,2,1,64.2356,79.9938
2,3,2,8,90,60,46,37,1,2,1,2,1,1,0.45293,0.75976,83.323,90.2033,0.4165,1.1662,2,1,2,83.323,54.9139
2,3,2,9,90,60,46,37,1,2,1,2,1,1,0.57426,4.3308,85.7644,79.9938,0.71639,0.61643,2,2,2,72.6696,88.4277
2,3,2,10,60,60,41,43,1,1,1,1,1,1,0.44514,3.2742,73.6683,72.8915,0.69973,0.84967,2,1,2,59.3528,69.8952
2,3,2,11,90,60,34,37,2,2,2,2,1,1,0.59571,0.82439,93.4215,89.5375,0.79968,0.68313,2,2,1,77.1085,82.8791
2,3,2,12,60,60,39,43,2,1,2,2,1,0,1.1859,3.961,55.6907,86.9851,1.1829,1.0663,2,1,1,99.4141,51.9176
2,3,2,13,90,60,34,43,2,1,2,2,1,0,0.43375,2.1518,91.313,91.313,0.81639,0.81634,2,2,1,70.6721,80.4377
2,3,2,14,60,90,41,25,1,2,2,2,0,1,2.1664,0.48466,55.8017,88.8716,1.4661,0.63309,1,2,1,78.995,77.9963
2,3,2,15,90,90,34,25,2,2,1,2,0,1,2.8834,0.45608,91.313,91.7569,0.833,1.1162,1,2,2,59.5748,56.6895
2,3,2,16,60,90,39,55,2,1,2,1,1,1,0.36781,0.51044,94.1983,93.0886,0.98296,1.033,2,1,2,72.2257,51.4737
2,3,2,17,90,90,46,25,1,2,2,2,0,1,3.0179,0.3992,91.646,95.3081,0.64975,0.73308,1,1,2,92.8667,97.5275
2,3,2,18,90,90,46,25,1,2,2,2,0,1,0.5596,0.64385,55.5797,94.8642,1.0329,1.0163,2,1,1,90.3143,66.677
2,3,2,19,90,60,34,43,2,1,1,1,0,1,5.3739,0.50573,61.0174,64.6795,0.93301,0.56646,1,1,1,61.0174,67.6758
2,3,2,20,90,60,46,43,1,1,1,1,1,1,3.3296,0.33061,70.783,83.7669,0.73305,0.71639,1,2,1,58.576,93.4215
2,3,2,21,90,90,34,55,2,1,1,1,0,1,1.7294,0.61098,92.4228,85.5424,1.2162,0.79969,1,1,2,96.3068,57.3553
2,3,2,22,60,90,41,25,1,2,1,2,1,1,0.3484,0.515,90.9801,93.6435,0.98302,0.6331,2,1,2,66.4551,76.7756
2,3,2,23,90,90,46,25,1,2,1,2,1,1,1.675,0.46284,93.9764,92.9776,0.69972,0.46648,1,2,1,57.5772,90.9801
2,3,2,24,60,90,39,25,2,2,1,2,0,1,1.6863,0.33621,93.9764,91.8679,0.48314,0.94964,1,1,1,88.8716,60.4625
2,3,3,1,60,90,39,25,2,2,1,2,0,1,0.3952,0.6788,94.6422,92.5337,0.61653,1.5494,2,1,2,75.8878,61.2393
2,3,3,2,90,60,46,37,1,2,1,1,1,0,3.6915,0.50201,85.7644,88.7607,0.48318,0.89964,1,1,1,75.6658,61.5723
2,3,3,3,90,90,34,25,2,2,2,2,1,1,0.38869,2.6048,84.7656,89.6484,0.41654,0.76637,2,1,2,79.7718,79.5499
2,3,3,4,90,60,34,37,2,2,1,1,0,0,4.97,0.68434,91.0911,81.5474,0.71636,0.68307,1,2,2,55.0249,91.9789
2,3,3,5,60,90,41,25,1,2,1,2,1,1,2.6698,1.2108,90.9801,90.3143,6.4143,1.0996,1,2,1,90.9801,61.3503
2,3,3,6,90,90,46,25,1,2,1,2,1,1,1.4377,0.53202,99.0811,100,0.63308,0.3665,1,2,1,62.682,98.3043
2,3,3,7,90,60,34,37,2,2,2,2,1,1,1.6596,0.69505,71.2269,92.0898,0.51646,0.73299,2,1,2,71.2269,98.0824
2,3,3,8,60,60,39,43,2,1,1,1,0,1,2.0455,0.66174,90.0923,60.9064,0.69973,0.833,1,1,1,96.1958,53.1383
2,3,3,9,60,60,39,43,2,1,1,1,0,1,2.3772,1.109,61.7942,87.429,0.76637,0.69973,2,1,2,85.6534,77.4414
2,3,3,10,90,60,46,37,1,2,1,1,1,0,0.47543,0.79018,93.7544,88.3168,0.28322,0.63306,2,2,2,92.8667,76.7756
2,3,3,11,90,90,46,55,1,1,1,1,1,1,0.40556,0.87606,86.3192,89.8704,0.46648,0.91639,2,1,1,83.9888,81.7694
2,3,3,12,90,60,34,37,2,2,1,2,0,1,4.1172,0.3958,89.9814,87.6509,0.71639,0.53313,1,1,1,78.2182,84.2108
2,3,3,13,60,90,41,55,1,1,1,1,1,1,3.4158,0.42489,93.0886,89.8704,0.78299,1.1829,1,2,2,95.53,79.5499
2,3,3,14,60,60,39,43,2,1,1,1,0,1,0.45688,2.6362,86.3192,89.0936,0.71639,0.4165,2,2,1,68.2306,89.0936
2,3,3,15,60,90,41,25,1,2,1,2,1,1,0.41997,2.045,92.4228,92.5337,1.0829,0.64977,2,2,2,61.3503,65.6783
2,3,3,16,60,90,41,25,1,2,1,2,1,1,0.45367,1.0104,92.2008,91.9789,0.78302,0.99961,2,1,2,61.6832,63.6808
2,3,3,17,90,90,34,55,2,1,2,1,1,1,0.60586,0.39263,96.5288,92.6447,0.61645,1.2329,1,2,1,63.0149,67.6758
2,3,3,18,60,60,41,43,1,1,1,1,1,1,0.44083,0.72497,91.313,95.3081,0.68311,0.41651,2,1,2,96.7507,85.6534
2,3,3,19,90,90,34,55,2,1,2,1,1,1,0.34444,1.0997,92.4228,89.5375,0.68305,0.36652,2,2,1,95.752,67.0099
2,3,3,20,90,60,34,43,2,1,1,1,0,1,2.3773,1.7434,94.1983,59.7967,0.76621,0.96629,1,2,2,99.525,50.142
2,3,3,21,60,60,41,43,1,1,1,1,1,1,1.5272,0.36664,87.207,52.0286,0.58311,0.66641,1,1,2,82.4352,99.525
2,3,3,22,60,60,41,37,1,2,1,2,1,1,2.0456,0.36734,93.8654,82.5462,0.64975,0.34986,1,1,1,67.7868,82.5462
2,3,3,23,60,90,39,55,2,1,1,1,0,1,1.4142,1.3603,92.8667,91.8679,0.49981,0.68307,1,2,2,88.2058,68.2306
2,3,3,24,90,90,46,55,1,1,1,1,1,1,0.42446,0.61593,84.5437,91.2021,0.3499,0.78305,2,2,1,84.5437,67.7868
2,3,4,1,90,90,46,25,1,2,1,2,1,1,1.7402,0.41738,93.0886,75.6658,0.71646,0.84966,1,1,2,93.0886,59.0199
2,3,4,2,60,90,39,25,2,2,1,2,0,1,0.43263,8.2438,93.8654,58.2431,0.39984,0.91634,2,2,2,85.9863,97.0836
2,3,4,3,60,90,39,25,2,2,2,2,1,1,0.54938,0.67769,55.9126,90.8691,0.4998,0.69977,2,2,1,80.4377,69.4513
2,3,4,4,60,60,39,43,2,1,2,1,1,1,5.565,2.1397,91.9789,60.4625,0.61646,1.1327,1,2,1,69.6733,53.6932
2,3,4,5,90,60,34,43,2,1,2,2,1,0,1.047,1.2706,83.212,63.2369,0.61643,0.74975,1,1,2,75.7768,50.9189
2,3,4,6,60,60,39,43,2,1,1,1,0,1,2.8866,0.53256,91.313,89.3155,0.71635,1.1162,2,1,1,64.9015,50.142
2,3,4,7,60,60,41,37,1,2,2,1,0,0,2.9555,0.43145,50.0311,92.6447,0.79968,0.89975,1,1,1,92.7557,62.793
2,3,4,8,90,60,34,43,2,1,2,2,1,0,0.40879,2.3847,57.3553,55.4688,0.78305,1.0829,2,2,1,55.2468,93.4215
2,3,4,9,60,60,39,43,2,1,2,2,1,0,3.239,1.2191,89.7594,67.0099,0.74971,0.99959,1,2,1,56.9114,52.2505
2,3,4,10,60,60,41,43,1,1,1,1,1,1,1.3532,0.55749,56.5785,92.7557,0.64975,0.76636,2,2,2,94.0874,68.0087
2,3,4,11,90,60,46,43,1,1,2,1,0,1,5.8932,3.3046,54.0261,92.8667,1.2995,1.2995,1,1,2,67.6758,75.4439
2,3,4,12,90,90,34,55,2,1,1,1,0,1,1.141,0.71181,53.6932,98.5263,0.83301,1.7493,2,2,2,69.1184,53.8042
2,3,4,13,90,90,46,25,1,2,1,2,1,1,1.598,0.43938,90.2033,81.6584,0.99961,0.83302,1,1,2,58.354,55.4688
2,3,4,14,90,90,46,25,1,2,1,2,1,1,0.60441,0.63263,53.9151,95.641,2.3491,0.64977,2,1,1,71.5598,85.8754
2,3,4,15,60,90,39,55,2,1,1,1,0,1,1.4266,0.54191,91.0911,93.3105,0.71644,0.64974,2,2,2,54.1371,70.5611
2,3,4,16,90,60,34,37,2,2,2,2,1,1,0.34593,1.3953,88.5387,75.3329,0.38324,1.3995,2,1,2,79.5499,75.2219
2,3,4,17,90,90,46,55,1,1,1,1,1,1,0.87022,0.79707,92.3118,62.571,1.3828,0.91632,1,1,2,50.5859,62.1271
2,3,4,18,90,90,46,25,1,2,1,2,1,1,0.88615,0.43116,93.5325,90.9801,0.89965,0.88306,1,1,2,99.636,61.2393
2,3,4,19,90,60,46,37,1,2,1,2,1,1,0.4203,2.639,90.3143,94.1983,1.083,0.79969,2,1,2,65.9002,56.6895
2,3,4,20,60,90,41,25,1,2,1,2,1,1,0.72175,0.34882,91.9789,93.5325,0.69972,0.59977,1,2,1,94.4203,80.6596
2,3,4,21,60,60,39,37,2,2,1,2,0,1,1.346,0.93246,91.9789,51.3627,0.81641,0.34986,1,1,2,55.5797,51.3627
2,3,4,22,60,90,41,55,1,1,2,1,0,1,2.1222,0.45316,92.2008,93.4215,0.63309,0.96634,1,1,2,72.0037,56.4675
2,3,4,23,60,90,41,25,1,2,1,2,1,1,0.45699,1.7314,92.0898,69.8952,0.6831,0.6664,2,2,2,88.2058,68.2306
2,3,4,24,90,60,34,43,2,1,1,1,0,1,0.97758,2.215,56.2456,91.313,0.76641,0.61643,2,2,2,79.8828,80.4377
2,4,1,1,60,60,41,37,1,2,1,2,1,1,0.91813,0.37298,92.7557,52.2505,0.83297,0.76634,1,2,1,62.46,84.9876
2,4,1,2,90,90,46,55,1,1,1,2,1,0,0.55287,0.73639,89.9814,50.0311,0.68302,0.8996,1,1,1,94.9751,76.6646
2,4,1,3,60,60,39,37,2,2,2,2,1,1,4.7684,3.5216,54.9139,53.9151,1.2162,0.89967,1,2,1,75.9988,83.101
2,4,1,4,60,60,39,43,2,1,2,1,1,1,1.6639,1.4528,69.1184,93.6435,0.46657,0.7997,2,1,1,63.0149,52.0286
2,4,1,5,90,60,34,37,2,2,1,2,0,1,0.74572,0.91601,83.6559,83.8778,0.34987,0.84967,2,1,2,82.6571,58.576
2,4,1,6,90,60,46,43,1,1,2,1,0,1,0.80053,0.78061,69.0075,92.0898,0.71639,0.66641,2,2,2,95.53,89.4265
2,4,1,7,60,60,41,43,1,1,1,1,1,1,0.58088,1.4961,79.106,84.4327,0.74971,0.6664,2,2,2,99.3031,62.571
2,4,1,8,60,90,41,55,1,1,1,1,1,1,0.36859,0.70019,93.7544,88.2058,0.68314,0.54985,2,2,2,60.0186,72.0037
2,4,1,9,90,60,46,43,1,1,2,1,0,1,0.73864,0.67843,50.0311,93.4215,1.3495,0.6664,2,2,1,93.0886,89.4265
2,4,1,10,90,60,46,37,1,2,1,1,1,0,1.2029,1.0649,84.2108,50.0311,0.63312,0.88296,2,2,2,89.2045,62.3491
2,4,1,11,90,60,46,43,1,1,1,1,1,1,1.1078,0.33652,90.5362,97.1946,0.66643,0.74976,1,2,2,89.6484,70.783
2,4,1,12,90,60,34,43,2,1,1,1,0,1,21.4166,1.0278,75.9988,93.8654,0.91631,0.68313,2,1,1,94.7532,73.7793
2,4,1,13,60,90,41,55,1,1,2,1,0,1,1.5389,0.82887,80.4377,86.2083,0.78307,0.69973,1,1,2,62.1271,73.3354
2,4,1,14,90,90,34,25,2,2,1,2,0,1,0.67385,0.569,84.6547,93.4215,0.78303,0.61644,2,2,1,58.354,70.5611
2,4,1,15,60,60,39,37,2,2,1,1,0,0,2.159,0.91738,85.0985,58.354,0.66641,0.49984,1,2,1,61.4613,84.9876
2,4,1,16,60,90,39,25,2,2,2,2,1,1,0.83488,1.5492,83.101,50,0.56644,0.61643,1,2,1,64.5685,77.5524
2,4,1,17,60,90,41,55,1,1,1,1,1,1,1.6351,0.43442,93.9764,97.4165,0.66638,0.36653,1,1,1,54.47,97.4165
2,4,1,18,60,60,39,43,2,1,1,1,0,1,2.2139,0.44117,53.8042,87.8729,0.78303,0.33319,1,1,1,57.7992,73.2244
2,4,1,19,90,90,46,25,1,2,1,2,1,1,1.1014,0.50344,79.106,90.6472,0.23325,1.1995,2,2,2,78.4402,91.424
2,4,1,20,90,90,46,25,1,2,1,2,1,1,1.4009,1.2757,95.419,94.6422,0.6664,1.0163,1,2,2,95.419,50.475
2,4,1,21,60,90,39,55,2,1,1,1,0,1,1.2719,1.0334,92.4228,84.6547,0.58306,0.74971,2,1,2,64.0137,66.788
2,4,1,22,90,90,34,25,2,2,2,2,1,1,0.39577,0.511,93.4215,92.9776,1.2661,0.54978,2,1,2,55.8017,63.0149
2,4,1,23,60,90,39,25,2,2,2,2,1,1,1.0136,0.73975,93.5325,94.1983,0.74971,0.56643,1,2,2,74.4451,83.5449
2,4,1,24,90,90,34,25,2,2,2,2,1,1,0.86573,0.36753,93.8654,88.6497,0.89964,0.94963,1,2,2,98.6373,60.1296
2,4,2,1,60,60,41,37,1,2,1,2,1,1,1.5031,0.40923,85.7644,68.0087,0.6831,0.56646,1,2,1,79.7718,80.7706
2,4,2,2,60,60,39,37,2,2,2,2,1,1,0.63048,1.3598,87.429,92.2008,0.46646,0.94964,2,2,1,87.429,60.1296
2,4,2,3,60,90,41,25,1,2,2,2,0,1,2.4098,0.62068,86.3192,60.1296,0.59966,0.76634,1,2,2,81.1035,63.9027
2,4,2,4,60,60,41,43,1,1,2,1,0,1,0.39332,0.61934,88.6497,89.4265,0.86622,0.59977,2,1,2,63.4588,89.4265
2,4,2,5,90,90,46,55,1,1,1,1,1,1,0.3638,0.54838,93.4215,88.7607,0.76637,0.43316,2,1,1,98.6373,88.6497
2,4,2,6,60,60,39,37,2,2,1,1,0,0,0.37507,0.65169,91.313,93.3105,0.98295,0.39984,2,2,1,65.1234,93.3105
2,4,2,7,90,60,46,43,1,1,2,1,0,1,0.38499,1.9129,82.4352,93.9764,0.31655,0.81642,2,2,2,82.4352,93.0886
2,4,2,8,60,90,39,55,2,1,2,1,1,1,3.6419,0.38636,90.7582,90.7582,0.59976,0.76635,1,1,2,77.2195,70.0062
2,4,2,9,90,60,34,37,2,2,2,1,1,0,0.37695,0.55262,91.424,93.4215,0.88298,0.63309,2,1,2,60.3516,87.9838
2,4,2,10,90,60,46,43,1,1,2,1,0,1,2.0304,0.67594,95.0861,50.0311,0.66642,0.59975,1,2,2,65.5673,59.0199
2,4,2,11,90,60,34,43,2,1,2,1,1,1,3.0522,0.47962,94.6422,72.2257,0.48315,0.71639,1,1,1,87.0961,72.3366
2,4,2,12,60,60,41,43,1,1,2,2,0,0,0.87152,0.53005,88.8716,92.7557,0.74969,0.44982,1,2,1,59.7967,86.2083
2,4,2,13,90,60,34,37,2,2,2,2,1,1,2.6595,0.36943,95.8629,52.0286,0.61642,0.58314,1,2,2,95.1971,72.7805
2,4,2,14,90,90,34,55,2,1,1,1,0,1,1.1232,0.54926,60.7955,93.4215,0.2499,0.69972,2,2,2,60.7955,92.3118
2,4,2,15,60,90,39,55,2,1,2,1,1,1,1.0626,0.70297,50.0311,88.6497,0.78301,1.2495,2,1,1,75.8878,57.0224
2,4,2,16,60,90,41,25,1,2,1,2,1,1,0.42652,0.73132,88.7607,95.1971,0.49973,0.56646,2,1,2,82.7681,88.5387
2,4,2,17,60,90,41,55,1,1,1,1,1,1,2.1826,0.45488,55.2468,92.8667,0.66645,0.78304,2,2,2,84.8766,81.5474
2,4,2,18,60,90,41,25,1,2,1,2,1,1,2.5395,0.34201,93.4215,77.6634,0.58311,0.44981,1,1,2,76.4426,87.0961
2,4,2,19,90,90,46,25,1,2,1,2,1,1,2.3526,0.41058,91.313,89.4265,0.51646,0.76642,1,1,2,75.4439,65.3453
2,4,2,20,90,90,34,55,2,1,1,1,0,1,1.8684,0.45304,92.9776,83.7669,0.66645,0.74976,1,1,1,96.3068,70.0062
2,4,2,21,90,60,46,37,1,2,1,2,1,1,0.76152,0.67464,86.0973,92.2008,0.61643,1.3162,2,2,2,83.7669,68.1197
2,4,2,22,90,90,34,55,2,1,1,1,0,1,0.75958,0.57234,84.9876,94.9751,0.69972,0.54978,2,2,2,67.1209,88.4277
2,4,2,23,90,90,34,25,2,2,2,2,1,1,3.786,0.71657,100,80.3267,0.68307,0.51646,1,1,2,59.9077,93.5325
2,4,2,24,60,60,39,37,2,2,2,1,1,0,2.877,0.32408,71.1159,78.3292,0.58312,0.31654,1,2,2,58.354,80.4377
2,4,3,1,60,90,39,25,2,2,2,2,1,1,0.78711,0.81019,93.3105,93.0886,0.68309,1.2995,2,1,1,85.6534,65.9002
2,4,3,2,90,60,34,43,2,1,1,1,0,1,0.72449,0.80519,87.207,89.5375,0.48321,1.0496,2,2,2,86.4302,75.7768
2,4,3,3,60,90,39,25,2,2,1,2,0,1,0.84717,0.48424,93.0886,93.0886,2.4158,0.54984,1,1,2,50.142,93.0886
2,4,3,4,90,60,34,37,2,2,2,2,1,1,0.37193,0.92806,81.7694,91.424,1.3661,0.98297,2,1,2,51.0298,67.6758
2,4,3,5,90,90,34,25,2,2,1,2,0,1,1.52,0.41244,87.0961,89.7594,0.58315,0.73305,1,1,1,91.313,63.9027
2,4,3,6,90,90,34,55,2,1,1,1,0,1,5.1047,0.31343,88.6497,94.3093,0.4665,0.31656,1,2,1,84.3217,92.2008
2,4,3,7,60,90,41,25,1,2,1,2,1,1,3.8537,0.41868,79.106,91.7569,0.94967,0.54979,1,2,2,53.9151,91.424
2,4,3,8,90,90,46,55,1,1,1,1,1,1,1.7951,0.38692,91.8679,88.4277,0.56645,0.76638,1,2,2,72.3366,67.6758
2,4,3,9,60,60,41,43,1,1,1,1,1,1,1.9697,0.76777,50.0311,91.424,0.69977,0.43322,1,1,1,95.53,88.5387
2,4,3,10,90,90,46,25,1,2,1,2,1,1,1.0633,0.46426,91.424,90.2033,0.64981,0.71627,1,1,2,72.0037,72.2257
2,4,3,11,90,60,34,37,2,2,2,1,1,0,1.0891,3.191,64.0137,88.5387,0.61648,0.64975,2,2,2,93.4215,75.9988
2,4,3,12,60,60,41,37,1,2,1,2,1,1,0.29986,0.76603,84.8766,89.8704,0.59976,0.54979,2,2,2,69.6733,69.1184
2,4,3,13,60,90,41,55,1,1,2,1,0,1,4.2469,0.37463,84.7656,77.6634,0.73308,0.68306,1,2,2,53.1383,58.9089
2,4,3,14,90,90,34,55,2,1,2,2,1,0,0.85762,3.5095,67.8977,57.1333,0.64975,0.66642,2,1,1,80.3267,87.318
2,4,3,15,60,90,41,55,1,1,2,1,0,1,0.59604,0.64833,90.2033,88.5387,0.38318,0.64977,2,2,2,90.2033,63.9027
2,4,3,16,60,90,41,55,1,1,1,1,1,1,0.53924,0.35441,92.7557,89.3155,0.6664,0.71639,1,2,2,57.4663,68.8965
2,4,3,17,60,60,41,37,1,2,1,1,1,0,1.3608,1.2234,91.0911,50.0311,0.56645,0.56645,1,1,2,61.1284,84.2108
2,4,3,18,90,60,34,37,2,2,1,2,0,1,2.7946,0.79686,57.3553,99.1921,0.61643,0.59974,2,1,2,56.3565,59.1309
2,4,3,19,90,60,34,37,2,2,1,2,0,1,1.4513,1.6951,56.0236,81.7694,0.78304,0.73307,2,1,2,64.0137,61.6832
2,4,3,20,90,60,34,43,2,1,1,1,0,1,0.83448,0.59272,65.4563,62.1271,0.66645,1.3328,2,2,1,80.4377,96.5288
2,4,3,21,60,60,39,43,2,1,1,1,0,1,2.4163,0.34392,61.9052,89.5375,0.89963,0.69975,1,1,1,92.6447,50.253
2,4,3,22,60,60,41,37,1,2,1,1,1,0,1.6076,1.0334,69.4513,56.9114,0.66641,0.74972,2,2,2,69.4513,60.1296
2,4,3,23,60,60,41,43,1,1,2,2,0,0,1.803,0.39618,83.5449,61.9052,0.6331,0.69973,1,1,1,73.4464,61.9052
2,4,3,24,90,90,46,55,1,1,2,1,0,1,0.39494,0.62626,85.4315,94.4203,0.64975,1.1163,2,2,1,76.3317,95.1971
2,4,4,1,60,60,41,37,1,2,1,1,1,0,0.71427,3.197,88.2058,72.7805,0.6831,0.56644,2,1,1,88.4277,66.5661
2,4,4,2,60,90,41,25,1,2,1,2,1,1,0.447,0.70023,84.5437,88.3168,0.38321,1.5994,2,2,1,84.3217,56.9114
2,4,4,3,60,90,41,55,1,1,2,1,0,1,2.0175,0.39238,65.4563,90.8691,1.5328,0.66646,1,2,2,58.2431,93.9764
2,4,4,4,90,90,46,25,1,2,1,2,1,1,0.42933,0.61137,93.4215,91.424,1.0162,0.64971,2,2,1,59.7967,59.1309
2,4,4,5,90,90,46,25,1,2,1,2,1,1,0.49557,0.4342,96.0849,100,0.76632,1.1495,1,1,2,63.2369,57.3553
2,4,4,6,60,90,41,55,1,1,1,1,1,1,0.40347,0.62773,98.1934,90.7582,0.73304,0.68309,2,1,2,65.7892,86.9851
2,4,4,7,90,90,34,25,2,2,2,2,1,1,1.4728,0.65297,72.3366,93.1996,0.99962,0.68306,1,1,2,58.354,80.8816
2,4,4,8,90,60,34,43,2,1,2,1,1,1,1.3286,0.44529,85.6534,64.7905,0.94964,0.81634,1,1,1,65.0124,96.9727
2,4,4,9,90,90,34,25,2,2,2,2,1,1,0.58657,1.61,78.6621,57.6882,0.44985,0.91629,2,2,2,69.7843,94.8642
2,4,4,10,60,90,41,55,1,1,1,2,1,0,0.8795,0.45618,89.9814,87.429,0.69977,0.54979,1,1,1,54.0261,80.1048
2,4,4,11,60,60,39,43,2,1,1,2,0,0,0.76834,0.33023,89.3155,86.7631,0.58311,1.1829,1,2,2,64.6795,54.47
2,4,4,12,90,60,34,43,2,1,2,1,1,1,1.0812,0.40174,85.4315,84.5437,0.63308,1.083,1,1,1,85.6534,65.3453
2,4,4,13,90,90,46,55,1,1,1,1,1,1,1.3193,0.6599,57.3553,57.0224,0.91637,1.0829,2,2,2,97.8604,58.2431
2,4,4,14,90,60,34,37,2,2,1,1,0,0,1.7564,3.3926,87.9838,51.2518,0.94967,0.69969,1,2,1,67.2319,55.3578
2,4,4,15,60,60,41,43,1,1,1,1,1,1,1.602,0.30919,88.0948,93.4215,0.39985,0.51645,1,2,1,75,81.2145
2,4,4,16,90,60,46,37,1,2,1,1,1,0,1.922,1.8846,52.3615,60.4625,1.1495,0.71638,1,1,2,58.687,76.6646
2,4,4,17,90,60,34,37,2,2,2,1,1,0,1.2142,0.56161,95.53,95.1971,0.71639,0.78304,2,2,1,98.1934,93.8654
2,4,4,18,60,60,41,43,1,1,1,1,1,1,1.5299,0.94523,92.3118,89.5375,0.8497,0.9663,1,1,2,79.5499,59.2418
2,4,4,19,90,90,34,25,2,2,2,2,1,1,0.35661,0.52185,87.54,88.9826,0.94963,0.41651,2,2,2,59.1309,80.5487
2,4,4,20,60,60,41,43,1,1,1,1,1,1,0.54118,0.6655,86.3192,54.8029,0.43317,0.56644,2,2,2,79.8828,59.9077
2,4,4,21,60,90,39,25,2,2,2,2,1,1,1.022,1.2174,94.3093,89.7594,0.66642,0.76637,1,2,2,95.641,69.6733
2,4,4,22,90,60,34,43,2,1,2,1,1,1,0.32216,3.4093,93.1996,50.0311,0.78303,0.76642,2,1,2,79.106,73.3354
2,4,4,23,60,60,39,43,2,1,2,1,1,1,0.99676,2.9874,84.8766,53.0273,0.4165,0.73308,2,1,2,80.7706,69.8952
2,4,4,24,60,90,39,25,2,2,1,2,0,1,0.43136,1.6432,64.6795,89.3155,0.53312,0.59975,2,1,1,63.2369,71.4489
3,1,1,1,60,90,39,58,2,1,1,1,0,1,0.40963,0.75007,90.3143,100,2.8156,2.7489,2,1,1,50.5859,77.4414
3,1,1,2,90,90,33,22,2,2,1,2,0,1,0.95327,0.39283,85.2095,99.858,3.1488,0.46641,2,1,2,62.571,75
3,1,1,3,60,90,41,58,1,1,1,1,1,1,2.1518,0.40255,90.3143,100,2.2325,0.66636,1,1,1,87.429,51.6957
3,1,1,4,60,60,39,44,2,1,2,1,1,1,2.3282,0.45162,50.0311,81.2145,0.84967,3.5153,1,2,2,58.2431,82.1023
3,1,1,5,90,60,47,36,1,2,1,1,1,0,1.7281,0.75365,100,85.0985,0.6164,1.1162,1,1,1,89.4265,67.3429
3,1,1,6,90,90,47,22,1,2,1,2,1,1,0.32103,0.55987,100,100,0.33328,0.34989,2,1,1,91.0911,78.8841
3,1,1,7,60,90,41,22,1,2,1,2,1,1,0.76174,0.46134,100,100,0.61645,0.4165,1,1,2,60.6845,69.2294
3,1,1,8,60,60,39,36,2,2,1,2,0,1,0.37385,0.72324,74.7781,74.889,1.6327,3.0655,2,2,1,53.4712,55.2468
3,1,1,9,90,60,47,44,1,1,1,1,1,1,0.63238,0.5225,90.0923,89.9814,1.8326,2.1158,1,2,2,91.7569,57.3553
3,1,1,10,90,90,47,58,1,1,1,1,1,1,0.32788,0.79935,100,100,0.56628,0.43316,2,1,2,70.2282,79.217
3,1,1,11,60,90,39,22,2,2,2,2,1,1,1.6472,0.38768,90.2033,100,2.9155,0.44979,1,2,1,58.1321,79.9938
3,1,1,12,90,60,33,44,2,1,2,1,1,1,0.77096,0.72035,100,99.9689,0.51645,1.3662,1,1,1,50.253,51.1408
3,1,1,13,90,60,47,44,1,1,1,2,1,0,1.1132,0.49603,50.0311,50.253,1.9992,2.6823,1,1,2,73.5574,56.1346
3,1,1,14,90,90,47,58,1,1,1,1,1,1,0.88934,0.39791,90.0923,89.8704,2.5657,1.2828,1,2,2,75.7768,74.889
3,1,1,15,60,90,39,22,2,2,2,2,1,1,0.50514,0.6948,61.1284,100,4.5816,0.59977,2,2,2,97.8604,73.5574
3,1,1,16,90,60,33,36,2,2,2,2,1,1,0.56891,0.78621,89.8704,100,2.8156,0.46647,2,1,1,69.5623,81.6584
3,1,1,17,60,90,41,58,1,1,2,1,0,1,0.54957,0.60728,60.0186,60.0186,2.5823,1.7993,2,1,2,97.1946,64.0137
3,1,1,18,60,60,41,44,1,1,1,1,1,1,1.7942,0.99598,59.9077,59.7967,1.3995,3.1321,2,2,1,74.0012,91.2021
3,1,1,19,90,60,47,36,1,2,1,1,1,0,0.99799,0.80596,50.0311,56.9114,1.3329,0.4165,1,2,1,89.8704,77.5524
3,1,1,20,90,90,33,22,2,2,1,2,0,1,3.6534,0.42826,69.6733,94.7532,3.5653,2.2491,1,1,1,52.6944,62.0162
3,1,1,21,60,60,41,44,1,1,2,1,0,1,4.0565,0.51415,59.3528,59.7967,2.0825,2.1825,1,1,2,79.5499,80.2157
3,1,1,22,60,60,39,44,2,1,1,1,0,1,0.75494,0.73648,50.0311,50,0.51646,0.93288,2,2,1,50.142,82.6571
3,1,1,23,90,90,33,22,2,2,2,2,1,1,0.32217,0.57032,99.9689,100,0.69972,0.34986,2,1,2,66.2331,75.111
3,1,1,24,60,60,39,36,2,2,2,2,1,1,0.55981,2.5447,75.3329,85.4315,1.5327,2.5323,2,1,1,59.4638,82.5462
3,1,2,1,60,60,39,44,2,1,2,1,1,1,1.2846,0.56757,55.0249,55.3578,2.4491,1.2828,1,1,1,87.7619,99.3031
3,1,2,2,90,90,47,22,1,2,1,2,1,1,0.39577,0.59796,100,100,0.36653,0.36652,2,1,1,79.9938,73.6683
3,1,2,3,90,90,33,58,2,1,2,1,1,1,0.51922,0.38366,100,100,0.36652,0.5998,1,2,2,89.2045,64.3466
3,1,2,4,60,60,39,36,2,2,2,1,1,0,0.45132,1.3353,89.7594,60.9064,1.5827,3.2488,2,2,1,97.4165,82.9901
3,1,2,5,60,60,41,36,1,2,1,1,1,0,1.0016,1.5188,50.0311,55.1358,0.71633,3.4154,2,2,1,99.636,75.6658
3,1,2,6,90,90,33,22,2,2,2,2,1,1,0.36081,0.55818,100,100,0.44981,0.33326,2,1,2,68.3416,69.5623
3,1,2,7,60,60,39,44,2,1,2,1,1,1,0.65986,0.59437,69.7843,54.6919,3.6653,1.9493,1,1,2,64.2356,83.5449
3,1,2,8,90,90,47,22,1,2,1,2,1,1,0.55245,0.36315,100,100,0.33322,0.34986,1,1,2,67.7868,68.3416
3,1,2,9,60,60,39,36,2,2,2,2,1,1,0.41536,1.0608,59.6857,89.9814,2.1491,3.2488,2,2,1,65.6783,98.5263
3,1,2,10,90,60,33,44,2,1,2,1,1,1,0.64416,0.44817,100,55.2468,0.79966,5.3646,1,1,2,74.1122,53.1383
3,1,2,11,90,60,47,44,1,1,2,1,0,1,0.40869,0.60362,74.7781,90.4252,3.5486,1.9659,2,2,2,60.6845,62.9039
3,1,2,12,60,90,41,58,1,1,1,1,1,1,1.6275,0.53078,74.4451,75,2.1992,1.3828,1,2,1,59.9077,75.3329
3,1,2,13,90,60,47,44,1,1,1,2,1,0,0.60686,1.6032,84.7656,60.2406,3.8985,1.716,2,2,2,84.3217,78.7731
3,1,2,14,60,90,41,58,1,1,2,1,0,1,1.4681,0.35807,74.6671,100,2.1658,0.39981,1,2,2,58.2431,99.858
3,1,2,15,60,90,41,58,1,1,2,1,0,1,0.68915,0.50083,89.6484,90.0923,1.4661,3.0988,1,2,2,82.1023,50.9189
3,1,2,16,90,90,33,22,2,2,2,1,1,0,0.61944,1.2969,81.3255,50.0311,2.9155,1.9326,1,1,1,89.5375,75.9988
3,1,2,17,90,60,47,36,1,2,1,2,1,1,0.32776,1.1493,100,90.3143,0.59973,3.0989,2,2,2,92.3118,57.1333
3,1,2,18,90,60,33,44,2,1,2,1,1,1,0.62243,0.94036,89.7594,90.2033,2.649,1.1662,1,1,2,91.313,82.1023
3,1,2,19,60,90,41,22,1,2,1,2,1,1,1.1486,0.36766,74.7781,75,2.1658,2.6823,1,2,2,73.0025,81.4364
3,1,2,20,60,90,41,22,1,2,2,2,0,1,0.61001,0.70489,60.3516,100,2.3992,0.38319,2,1,1,93.4215,68.0087
3,1,2,21,90,60,47,36,1,2,1,2,1,1,0.64174,0.74726,60.3516,54.8029,2.5157,2.1325,2,1,2,78.2182,56.1346
3,1,2,22,60,60,39,44,2,1,2,1,1,1,2.5697,0.34691,50.0311,70.1172,2.7989,3.0822,1,2,2,64.5685,65.0124
3,1,2,23,90,90,33,58,2,1,2,1,1,1,0.31874,0.69191,100,100,1.1329,0.51652,2,2,1,58.465,67.7868
3,1,2,24,60,90,39,22,2,2,2,2,1,1,0.39899,0.59177,89.5375,100,1.8493,0.31655,2,2,1,89.7594,72.8915
3,1,3,1,60,60,41,44,1,1,1,1,1,1,1.334,0.33803,79.5499,95.0861,1.4494,2.3157,1,2,1,61.0174,75.111
3,1,3,2,60,90,41,58,1,1,1,1,1,1,0.52321,0.68354,85.0985,89.9814,2.4157,3.582,1,2,2,86.8741,75.5549
3,1,3,3,90,60,33,36,2,2,2,1,1,0,0.94775,1.006,50.0311,59.5748,0.78302,2.2991,2,2,1,95.53,78.4402
3,1,3,4,60,90,41,58,1,1,1,1,1,1,0.5804,1.644,74.889,50.0311,2.1992,0.66644,1,2,1,95.9739,77.4414
3,1,3,5,90,90,33,22,2,2,2,2,1,1,0.68703,0.66778,59.7967,100,1.866,0.36651,2,2,2,88.0948,63.3478
3,1,3,6,90,60,33,36,2,2,1,1,0,0,1.0501,0.76342,54.8029,50.0311,2.4657,0.79969,1,1,2,70.2282,98.4153
3,1,3,7,90,90,47,22,1,2,1,2,1,1,0.84296,0.33554,51.2518,60.3516,1.616,0.64976,1,2,1,95.9739,60.3516
3,1,3,8,90,60,33,44,2,1,2,1,1,1,0.36614,1.4782,98.4153,50.0311,3.0987,0.66644,2,2,2,57.2443,78.8841
3,1,3,9,90,60,47,36,1,2,1,2,1,1,0.43699,0.75868,74.7781,65.1234,2.6656,2.549,1,2,2,99.1921,79.3279
3,1,3,10,60,60,39,44,2,1,1,2,0,0,0.54698,0.51939,60.0186,50.0311,4.315,0.51646,1,2,1,54.47,52.6944
3,1,3,11,90,90,33,58,2,1,2,1,1,1,0.35788,0.89724,100,79.5499,0.6664,2.5324,2,2,2,99.0811,82.1023
3,1,3,12,90,90,33,58,2,1,2,1,1,1,0.74063,0.40511,100,100,1.0496,0.29988,1,1,1,52.0286,80.6596
3,1,3,13,60,90,41,22,1,2,2,2,0,1,1.9498,0.57851,50.0311,100,3.8985,0.31652,2,2,2,95.3081,90.4252
3,1,3,14,90,60,47,44,1,1,2,1,0,1,0.89978,0.5829,50.0311,60.4625,0.5164,4.4816,2,1,1,70.2282,71.5598
3,1,3,15,60,60,41,44,1,1,1,1,1,1,0.54015,0.59674,90.0923,90.0923,2.0992,4.7982,2,2,2,64.0137,60.1296
3,1,3,16,60,60,41,36,1,2,1,1,1,0,0.33029,1.0445,50,50.0311,0.64978,0.44971,2,1,2,87.429,81.8803
3,1,3,17,60,60,39,44,2,1,1,2,0,0,0.45171,0.57691,50.0311,50.0311,0.5998,0.49977,2,2,1,99.525,73.6683
3,1,3,18,90,60,33,36,2,2,1,1,0,0,0.82312,0.7737,50,59.7967,0.69969,2.8322,2,2,2,94.0874,72.3366
3,1,3,19,60,90,39,22,2,2,1,2,0,1,2.1328,0.51325,52.0286,90.3143,1.7826,2.2991,1,1,2,98.5263,81.7694
3,1,3,20,90,90,47,22,1,2,1,2,1,1,0.58679,0.33209,100,100,0.73306,0.31654,1,1,1,63.9027,89.3155
3,1,3,21,90,90,33,58,2,1,2,1,1,1,0.99439,0.37952,90.0923,99.9689,2.3991,0.73301,1,2,1,58.2431,52.3615
3,1,3,22,60,90,41,22,1,2,1,2,1,1,0.76048,0.39511,50.0311,59.9077,0.783,2.4657,1,2,1,77.5524,73.6683
3,1,3,23,60,90,41,58,1,1,2,1,0,1,0.68861,0.68513,50.0311,100,0.41647,0.31654,2,2,1,82.4352,66.0112
3,1,3,24,60,60,39,36,2,2,1,1,0,0,0.52531,0.67564,50,60.4625,0.38315,3.5653,2,1,1,53.0273,97.1946
3,1,4,1,60,90,39,22,2,2,2,2,1,1,1.1061,0.35804,100,100,1.2662,0.29984,1,1,1,83.8778,95.1971
3,1,4,2,90,90,33,22,2,2,2,2,1,1,0.58361,0.35093,100,98.6373,0.26656,2.1658,1,2,1,82.6571,73.8903
3,1,4,3,60,90,41,58,1,1,2,1,0,1,1.4099,0.53929,79.5499,90.0923,3.8152,3.2487,1,2,2,63.9027,66.3441
3,1,4,4,60,90,39,58,2,1,2,1,1,1,1.6599,0.35641,59.7967,100,3.0322,0.38318,1,1,1,53.8042,90.0923
3,1,4,5,60,60,39,44,2,1,1,1,0,1,0.8247,0.31707,50.0311,55.3578,0.48318,1.7493,1,2,1,68.6745,82.7681
3,1,4,6,60,90,41,22,1,2,2,2,0,1,0.46122,0.6572,50.0311,100,0.48318,0.39985,2,2,1,89.0936,59.0199
3,1,4,7,60,60,39,36,2,2,2,2,1,1,1.652,0.72957,50.0311,50.0311,2.2491,0.56645,1,2,1,98.4153,64.5685
3,1,4,8,90,60,33,44,2,1,2,1,1,1,1.4087,0.37547,59.7967,50,1.6493,0.61641,1,1,1,64.1246,81.3255
3,1,4,9,60,60,41,44,1,1,1,1,1,1,0.96418,0.31488,50.0311,75.2219,0.8663,1.8494,1,2,1,62.46,78.6621
3,1,4,10,90,90,47,58,1,1,1,1,1,1,0.78668,0.6278,80.5487,94.9751,1.7493,2.4158,2,2,2,56.5785,86.3192
3,1,4,11,60,90,41,22,1,2,1,2,1,1,0.33021,0.59853,100,100,0.43314,0.29988,2,1,2,71.4489,76.9975
3,1,4,12,90,60,47,44,1,1,1,2,1,0,0.72976,0.53913,50.0311,50.0311,0.64978,0.64964,1,2,2,68.0087,92.3118
3,1,4,13,90,90,47,58,1,1,1,1,1,1,0.48279,0.30388,74.889,50.0311,2.9489,0.3332,1,2,1,85.0985,75.4439
3,1,4,14,90,90,47,22,1,2,1,2,1,1,0.43694,0.85238,50.0311,50.0311,0.73304,1.2328,2,2,2,83.212,70.783
3,1,4,15,60,60,39,36,2,2,2,1,1,0,0.71562,1.1829,55.8017,50.0311,1.4828,0.34983,2,2,2,75.6658,62.0162
3,1,4,16,90,60,33,36,2,2,2,1,1,0,0.3965,0.74482,59.7967,60.1296,1.8493,2.9821,2,2,2,99.636,63.7917
3,1,4,17,60,90,39,22,2,2,2,2,1,1,0.4713,0.72077,59.4638,59.1309,1.3328,2.2658,2,2,2,65.5673,67.2319
3,1,4,18,90,60,47,44,1,1,1,2,1,0,0.73967,0.64098,50.0311,60.0186,0.54969,2.4324,2,2,2,69.5623,81.6584
3,1,4,19,60,60,39,36,2,2,1,2,0,1,0.58188,0.51659,50.0311,74.4451,1.0163,2.5157,2,2,1,95.9739,64.4576
3,1,4,20,90,60,33,44,2,1,2,2,1,0,0.36741,1.3836,100,50.0311,0.53312,0.61641,2,2,1,99.9689,55.6907
3,1,4,21,90,60,33,36,2,2,2,2,1,1,0.56704,0.59268,84.6547,50.0311,3.9485,0.61643,1,2,1,74.0012,91.7569
3,1,4,22,60,60,41,44,1,1,1,1,1,1,1.6962,0.88892,50.0311,50.0311,2.8489,0.53308,1,1,2,95.641,75.6658
3,1,4,23,90,90,47,22,1,2,1,2,1,1,0.34442,0.74761,100,100,0.44986,0.56644,2,2,2,80.3267,50.9189
3,1,4,24,90,90,47,58,1,1,1,1,1,1,0.34618,0.79086,100,90.2033,1.0663,2.1159,2,1,1,62.682,54.47
3,2,1,1,90,60,33,44,2,1,2,1,1,1,0.7011,0.84165,100,100,0.68302,0.51645,2,1,1,57.6882,90.8691
3,2,1,2,90,90,47,58,1,1,2,1,0,1,2.0166,0.57138,74.6671,100,2.5989,0.46641,1,2,2,53.6932,70.2282
3,2,1,3,60,60,39,36,2,2,2,2,1,1,0.55868,1.0856,80.3267,50.0311,3.0322,0.84967,1,1,1,71.1159,68.0087
3,2,1,4,60,90,39,22,2,2,2,2,1,1,0.59913,0.76542,50,100,1.1329,0.31655,2,2,2,99.1921,51.9176
3,2,1,5,90,90,47,58,1,1,1,1,1,1,0.39495,0.64355,100,100,0.38323,0.44983,2,2,2,67.8977,72.8915
3,2,1,6,60,60,41,36,1,2,1,2,1,1,2.4077,0.38168,50.0311,100,0.38316,1.2995,1,2,2,60.0186,60.3516
3,2,1,7,90,60,47,44,1,1,1,2,1,0,2.3385,0.41323,75,100,1.716,0.5331,1,1,1,86.4302,70.783
3,2,1,8,90,90,47,58,1,1,1,1,1,1,0.34648,0.55311,99.0811,100,0.71639,0.38319,2,1,2,54.0261,92.0898
3,2,1,9,60,90,41,58,1,1,2,1,0,1,0.97151,0.34311,90.2033,100,2.5324,0.5331,1,2,1,84.9876,77.2195
3,2,1,10,60,90,41,58,1,1,1,1,1,1,0.33465,0.44322,100,100,1.1662,0.29994,2,2,2,85.9863,83.9888
3,2,1,11,90,60,47,36,1,2,1,2,1,1,0.32889,0.54053,60.3516,100,1.9826,0.44984,2,2,2,79.106,98.6373
3,2,1,12,60,60,41,44,1,1,1,2,1,0,0.362,0.95157,50.0311,50.0311,0.79968,1.2162,2,1,2,87.429,58.7979
3,2,1,13,90,60,33,36,2,2,2,2,1,1,0.6038,0.54509,75.3329,50.0311,3.8652,1.1995,1,1,2,65.2344,55.2468
3,2,1,14,60,90,39,22,2,2,2,2,1,1,0.64817,0.5319,59.9077,100,1.5827,0.26656,2,2,2,84.6547,96.0849
3,2,1,15,90,90,47,22,1,2,1,2,1,1,2.5821,0.3201,59.7967,100,2.8323,0.44989,1,1,1,99.858,55.9126
3,2,1,16,60,60,39,36,2,2,1,2,0,1,1.4161,0.41733,59.9077,100,2.2991,0.49973,1,1,2,76.8865,85.5424
3,2,1,17,60,60,41,44,1,1,1,2,1,0,0.9339,0.61666,50.0311,50.0311,0.44976,0.66647,1,2,1,58.0211,92.6447
3,2,1,18,60,90,39,22,2,2,1,2,0,1,0.33804,0.54288,89.9814,100,1.4494,0.31654,2,2,2,91.2021,87.9838
3,2,1,19,90,60,33,44,2,1,1,1,0,1,0.86169,0.64982,74.6671,100,1.9159,0.39981,2,2,2,99.636,68.3416
3,2,1,20,90,90,33,58,2,1,2,1,1,1,0.44485,0.75551,60.1296,100,2.7489,0.4165,2,1,1,82.8791,94.9751
3,2,1,21,60,90,39,22,2,2,2,2,1,1,1.0178,0.5623,50.0311,100,0.54971,0.71636,2,1,2,77.6634,64.7905
3,2,1,22,60,60,39,36,2,2,1,1,0,0,1.0871,0.41748,75.111,50.0311,1.9326,0.7497,1,1,2,96.0849,86.4302
3,2,1,23,90,90,47,58,1,1,1,1,1,1,0.69575,0.50871,100,100,0.49968,0.43317,1,1,2,72.3366,85.2095
3,2,1,24,90,60,33,36,2,2,2,2,1,1,1.8297,0.45667,75.2219,75,1.3495,0.99961,1,2,1,98.6373,53.1383
3,2,2,1,90,60,47,44,1,1,1,1,1,1,0.34567,0.72933,74.889,74.7781,1.2995,2.1325,2,1,2,73.3354,56.9114
3,2,2,2,60,60,41,36,1,2,1,1,1,0,1.0375,0.73249,60.2406,50.0311,0.89965,0.68307,1,2,1,60.2406,95.641
3,2,2,3,60,60,39,36,2,2,1,2,0,1,0.71784,0.83825,50.0311,80.3267,0.51645,1.7328,2,2,1,77.9963,87.54
3,2,2,4,90,90,47,22,1,2,1,2,1,1,0.3414,0.5448,94.8642,100,3.1155,0.38316,2,2,2,72.7805,97.7495
3,2,2,5,90,90,33,58,2,1,2,1,1,1,0.29901,0.61034,94.7532,100,1.8827,0.43313,2,2,1,57.7992,77.8853
3,2,2,6,60,90,41,58,1,1,1,1,1,1,1.202,0.32576,79.6609,100,2.0993,0.44986,1,1,2,90.2033,68.7855
3,2,2,7,90,90,33,58,2,1,2,1,1,1,0.4194,0.54931,65.2344,100,1.8826,0.56643,2,2,2,92.4228,90.2033
3,2,2,8,60,60,39,44,2,1,1,1,0,1,0.61029,0.58675,50.0311,60.3516,0.61656,3.0155,2,2,2,92.2008,95.641
3,2,2,9,90,60,33,44,2,1,2,1,1,1,0.76502,0.38301,85.0985,99.636,2.0159,0.58308,1,2,1,85.7644,96.4178
3,2,2,10,90,90,33,22,2,2,2,2,1,1,0.3119,0.69298,89.9814,100,0.59989,0.56654,2,1,2,89.9814,62.2381
3,2,2,11,90,60,47,36,1,2,1,2,1,1,0.75847,0.74831,50.0311,50.0311,0.51646,0.98303,2,2,2,73.5574,54.47
3,2,2,12,60,90,41,58,1,1,2,1,0,1,1.2718,0.40649,55.2468,100,2.0992,0.3332,1,2,2,84.4327,98.0824
3,2,2,13,60,90,41,22,1,2,1,2,1,1,2.1111,0.34683,50,90.3143,0.51651,0.89971,1,1,1,56.4675,67.0099
3,2,2,14,90,60,33,36,2,2,2,1,1,0,0.40751,2.1786,70.1172,50.0311,1.0163,0.86634,2,2,2,65.5673,62.793
3,2,2,15,90,90,33,58,2,1,2,1,1,1,0.57389,0.35803,90.2033,90.0923,1.716,2.6491,1,2,1,87.429,58.1321
3,2,2,16,60,90,39,58,2,1,2,1,1,1,0.35959,0.51395,100,100,0.34992,0.61645,2,1,1,85.8754,69.8952
3,2,2,17,90,60,47,44,1,1,1,1,1,1,0.53324,0.7592,90.2033,50.0311,2.4325,0.33321,1,1,1,61.7942,50.8079
3,2,2,18,60,90,41,22,1,2,1,2,1,1,0.53319,0.62711,74.4451,90.0923,1.4994,2.0326,2,2,1,66.2331,93.6435
3,2,2,19,90,90,33,58,2,1,2,1,1,1,0.93918,0.58175,65.6783,90.0923,2.6157,2.6156,1,1,2,50.9189,80.8816
3,2,2,20,90,60,33,36,2,2,1,2,0,1,2.8841,0.37805,59.2418,94.8642,3.0322,1.4662,1,2,2,85.5424,99.858
3,2,2,21,60,60,41,36,1,2,1,2,1,1,1.8454,0.33695,74.7781,90.4252,2.2491,2.0492,1,1,2,82.3242,57.5772
3,2,2,22,60,90,41,22,1,2,1,2,1,1,0.63095,0.3103,74.7781,90.3143,1.6327,2.8989,1,2,1,74.0012,56.1346
3,2,2,23,60,60,41,44,1,1,1,2,1,0,0.58924,0.56082,50.0311,89.9814,0.73303,2.2658,2,2,1,69.1184,82.8791
3,2,2,24,60,60,39,36,2,2,2,1,1,0,0.99393,0.46205,50,50.0311,0.88298,0.69975,1,2,1,91.9789,77.6634
3,2,3,1,90,60,33,44,2,1,2,1,1,1,0.81471,0.71469,100,54.1371,1.6993,1.1162,1,1,1,73.5574,96.7507
3,2,3,2,90,60,33,36,2,2,2,2,1,1,0.9262,0.583,100,69.6733,0.76639,2.5657,1,2,2,56.9114,53.4712
3,2,3,3,90,60,33,36,2,2,2,2,1,1,0.53985,2.7516,89.4265,50.0311,1.716,0.48312,1,1,2,58.9089,74.889
3,2,3,4,60,60,39,44,2,1,2,1,1,1,0.60019,1.0169,60.3516,75.2219,2.0659,3.0322,2,2,1,57.0224,84.5437
3,2,3,5,90,90,47,58,1,1,1,1,1,1,0.30656,1.5351,90.2033,60.2406,4.0984,1.3828,2,1,2,74.6671,90.8691
3,2,3,6,90,90,47,22,1,2,1,2,1,1,0.62489,0.36428,100,100,1.816,0.44983,1,1,2,60.9064,80.5487
3,2,3,7,60,90,41,22,1,2,1,1,1,0,0.55239,0.98437,80.4377,50.253,0.9663,0.44982,1,1,2,93.8654,59.1309
3,2,3,8,60,90,39,22,2,2,1,2,0,1,1.489,0.74317,79.7718,100,2.1325,2.8823,1,2,2,52.9164,53.9151
3,2,3,9,60,60,41,44,1,1,1,1,1,1,0.7921,0.91497,79.7718,60.1296,3.432,1.9492,2,2,2,90.8691,97.3056
3,2,3,10,60,90,41,58,1,1,2,1,0,1,0.98216,0.55134,74.7781,100,3.6819,0.43313,2,2,2,98.9702,75.9988
3,2,3,11,90,90,47,58,1,1,1,1,1,1,0.63962,0.75104,50.0311,50.0311,5.7978,0.96628,1,1,2,72.0037,79.106
3,2,3,12,90,90,47,58,1,1,1,1,1,1,2.0135,0.56328,74.7781,85.0985,1.6327,2.0825,1,2,1,80.9925,71.6708
3,2,3,13,90,60,33,36,2,2,2,2,1,1,1.0574,0.48276,69.7843,79.8828,1.5661,4.7648,1,1,2,55.2468,52.3615
3,2,3,14,60,60,41,36,1,2,1,1,1,0,1.0124,0.68896,79.7718,80.2157,3.3487,2.1658,2,1,1,93.1996,60.6845
3,2,3,15,60,90,39,22,2,2,1,2,0,1,1.0868,0.58885,50.0311,80.1048,0.4831,2.4658,2,1,1,79.8828,58.576
3,2,3,16,60,60,39,44,2,1,1,1,0,1,0.46351,0.56199,70.2282,79.8828,5.2979,3.7152,2,2,1,75.3329,66.3441
3,2,3,17,60,90,41,22,1,2,1,2,1,1,0.84181,0.3291,100,100,0.36656,0.26659,1,1,1,98.8592,84.0998
3,2,3,18,90,90,33,58,2,1,2,1,1,1,0.75401,0.571,58.9089,75.7768,1.6494,1.4161,1,1,2,64.9015,66.899
3,2,3,19,90,60,47,44,1,1,1,1,1,1,0.51241,0.53374,50.0311,79.6609,0.5331,2.1325,2,2,2,88.8716,60.9064
3,2,3,20,90,90,33,58,2,1,2,1,1,1,0.35296,0.57811,90.3143,89.6484,0.96627,1.4995,2,2,2,80.3267,90.3143
3,2,3,21,60,60,39,36,2,2,1,1,0,0,1.0623,0.65094,50.0311,50,1.6658,0.5831,1,2,2,86.7631,84.9876
3,2,3,22,60,90,41,58,1,1,1,1,1,1,0.69006,0.48016,50.0311,100,0.53312,0.48317,2,2,1,54.359,59.3528
3,2,3,23,60,60,41,36,1,2,1,1,1,0,0.60131,2.5044,50,50.0311,0.43315,0.83301,2,2,2,74.3342,92.5337
3,2,3,24,90,60,33,36,2,2,2,1,1,0,0.84746,0.51232,50.0311,50.0311,2.7989,0.8663,2,2,1,71.8928,82.2132
3,2,4,1,60,60,39,44,2,1,1,1,0,1,0.94495,0.30061,100,100,0.89964,0.29984,1,2,1,56.1346,96.1958
3,2,4,2,60,90,39,22,2,2,1,2,0,1,0.47867,0.555,59.4638,100,2.3491,0.28325,2,1,2,57.3553,70.0062
3,2,4,3,90,90,47,22,1,2,1,2,1,1,0.4347,0.4986,100,100,0.53312,0.34991,2,1,1,51.4737,95.53
3,2,4,4,90,90,33,58,2,1,1,1,0,1,0.55822,0.48632,50.0311,100,0.46655,0.51654,2,2,1,68.0087,78.6621
3,2,4,5,60,90,41,22,1,2,2,2,0,1,0.48722,0.62718,50.0311,59.9077,0.38321,3.8152,2,2,2,58.465,78.2182
3,2,4,6,60,60,41,44,1,1,2,1,0,1,1.7136,0.44513,89.8704,74.889,2.0492,2.749,1,1,2,93.3105,84.2108
3,2,4,7,90,60,47,36,1,2,1,1,1,0,0.58218,0.891,50,60.3516,0.4498,4.2983,2,2,1,51.3627,81.9913
3,2,4,8,90,90,47,58,1,1,2,1,0,1,0.62383,0.67371,50,59.5748,0.48314,4.8148,2,2,1,66.3441,72.7805
3,2,4,9,60,60,39,44,2,1,2,1,1,1,1.1868,0.54894,50.0311,100,0.43317,0.4165,2,1,1,60.2406,66.5661
3,2,4,10,90,60,47,36,1,2,1,1,1,0,0.84725,0.51149,69.8952,60.0186,0.81631,3.5487,2,1,2,69.8952,92.2008
3,2,4,11,60,90,41,58,1,1,2,1,0,1,1.0608,0.46439,89.9814,74.889,1.9159,2.0326,1,2,1,88.5387,70.783
3,2,4,12,90,60,33,44,2,1,2,1,1,1,0.52077,0.65243,75,90.2033,1.6494,2.549,2,1,2,55.9126,79.3279
3,2,4,13,90,60,47,44,1,1,1,2,1,0,1.2955,0.56185,100,54.581,0.88303,3.7819,1,2,1,74.889,95.53
3,2,4,14,90,60,33,36,2,2,2,2,1,1,1.0266,0.37331,100,100,0.86629,0.54977,1,2,2,86.5412,52.0286
3,2,4,15,60,90,41,58,1,1,1,1,1,1,0.36333,0.72289,54.9139,100,2.1326,0.29993,2,1,2,97.0836,86.3192
3,2,4,16,60,60,39,36,2,2,2,1,1,0,1.4653,0.81029,100,74.7781,2.1325,2.6657,1,1,2,50.475,90.0923
3,2,4,17,60,90,41,22,1,2,2,2,0,1,1.372,0.3319,74.889,100,0.98296,0.38314,1,1,1,62.2381,74.3342
3,2,4,18,90,90,33,22,2,2,2,2,1,1,2.6963,0.42636,75.4439,100,1.9325,0.63306,1,2,2,91.646,51.2518
3,2,4,19,60,90,41,22,1,2,1,2,1,1,0.69356,0.34778,60.2406,89.8704,3.3654,1.4827,1,1,1,98.0824,76.7756
3,2,4,20,90,60,33,36,2,2,2,2,1,1,0.44779,0.39822,100,100,0.31654,0.54978,1,2,2,78.8841,71.005
3,2,4,21,60,60,41,44,1,1,2,2,0,0,0.56704,1.8257,50.0311,50.0311,0.73305,0.33317,2,2,1,79.106,65.6783
3,2,4,22,60,60,39,44,2,1,2,1,1,1,1.2254,0.35944,50.0311,100,0.68307,0.38329,1,1,1,88.9826,84.7656
3,2,4,23,90,90,33,58,2,1,2,1,1,1,0.35074,0.57375,94.5312,100,2.4491,0.36657,2,1,2,84.3217,78.3292
3,2,4,24,90,90,33,22,2,2,2,1,1,0,0.74245,0.33241,100,50.0311,0.31652,1.0663,1,1,2,92.7557,63.2369
3,3,1,1,90,90,33,22,2,2,2,2,1,1,1.6312,0.36196,59.9077,100,2.749,0.51649,1,1,1,56.9114,84.4327
3,3,1,2,60,90,39,22,2,2,2,2,1,1,1.0976,0.40469,100,100,0.48316,0.38325,1,1,2,67.4538,80.8816
3,3,1,3,90,90,33,22,2,2,2,2,1,1,0.77538,0.32787,100,100,0.28323,0.39992,1,2,1,70.783,82.9901
3,3,1,4,90,60,47,44,1,1,1,2,1,0,0.89267,0.35603,74.889,74.4451,1.8659,1.5161,1,2,1,83.6559,54.1371
3,3,1,5,60,60,41,36,1,2,1,1,1,0,0.74226,0.56889,50,75.2219,0.59977,2.1325,2,1,1,99.525,91.7569
3,3,1,6,60,60,41,44,1,1,2,1,0,1,0.54308,0.59136,50,100,0.51648,0.33321,2,2,2,86.6522,93.5325
3,3,1,7,60,60,39,44,2,1,2,1,1,1,1.39,0.54092,75.2219,89.6484,1.3495,2.449,2,2,2,67.3429,93.8654
3,3,1,8,90,90,47,58,1,1,1,1,1,1,1.0021,0.35387,100,100,0.59977,0.29988,1,1,1,55.3578,69.2294
3,3,1,9,90,60,33,36,2,2,2,1,1,0,0.80288,0.62361,50.0311,50.0311,3.8985,0.34987,1,2,1,70.5611,61.9052
3,3,1,10,90,60,47,44,1,1,1,1,1,1,0.91822,0.56908,75.111,50.0311,1.0996,0.48311,1,1,1,63.3478,65.6783
3,3,1,11,60,90,39,22,2,2,1,2,0,1,0.3297,0.55424,100,100,0.23325,0.39985,2,2,2,71.8928,71.4489
3,3,1,12,60,90,39,58,2,1,2,1,1,1,1.0182,0.33024,100,100,0.29993,1.3662,1,1,2,82.7681,50.0311
3,3,1,13,90,60,47,44,1,1,1,1,1,1,0.7508,0.38727,100,100,0.54975,0.29993,1,2,2,56.6895,92.3118
3,3,1,14,60,60,39,36,2,2,1,2,0,1,1.0435,0.52689,74.6671,89.8704,2.0659,2.6989,2,1,2,95.8629,85.8754
3,3,1,15,90,60,33,44,2,1,1,1,0,1,0.70442,0.61136,74.6671,75.111,1.816,1.5161,2,1,1,80.9925,69.2294
3,3,1,16,60,90,39,22,2,2,2,2,1,1,0.97195,0.46635,59.9077,100,1.2829,0.46648,2,2,2,90.8691,59.5748
3,3,1,17,90,90,47,58,1,1,1,1,1,1,0.39579,0.52987,100,100,0.33321,0.29988,2,2,2,93.4215,71.1159
3,3,1,18,60,60,41,36,1,2,1,2,1,1,0.78158,0.57036,69.5623,100,3.5653,0.53312,2,2,2,64.9015,67.0099
3,3,1,19,90,60,47,44,1,1,1,2,1,0,0.55422,0.49047,69.7843,100,1.816,0.36651,2,2,1,77.9963,92.6447
3,3,1,20,90,90,33,22,2,2,2,2,1,1,0.33474,0.62822,99.9689,100,0.39988,0.34986,2,1,2,92.4228,72.1147
3,3,1,21,60,90,41,22,1,2,2,2,0,1,0.81127,0.40744,99.858,100,0.29985,0.28325,1,2,2,92.6447,75.6658
3,3,1,22,60,90,41,58,1,1,1,1,1,1,1.7292,0.37636,50.0311,100,1.0996,0.2499,1,1,2,74.889,52.1396
3,3,1,23,90,90,47,58,1,1,1,1,1,1,0.6118,0.44576,100,100,0.31655,0.61646,1,2,2,88.7607,70.6721
3,3,1,24,60,60,39,36,2,2,2,2,1,1,0.35564,1.3487,74.6671,50,2.8323,0.39984,2,1,1,56.9114,79.7718
3,3,2,1,60,90,41,22,1,2,1,2,1,1,0.70095,0.36348,100,100,1.4828,0.96628,1,1,1,67.7868,71.5598
3,3,2,2,90,60,47,44,1,1,1,2,1,0,0.63636,0.50729,75.3329,75,2.399,1.4994,1,2,2,82.9901,93.8654
3,3,2,3,60,60,41,44,1,1,2,2,0,0,0.62883,0.5772,94.6422,60.3516,1.9826,1.7327,1,1,2,51.5847,81.4364
3,3,2,4,60,90,39,58,2,1,2,1,1,1,0.54244,0.54476,60.0186,100,1.9159,0.2832,2,2,1,91.646,80.9925
3,3,2,5,90,60,33,44,2,1,2,1,1,1,0.59777,0.89296,100,50,0.36652,0.3832,1,2,2,77.5524,67.4538
3,3,2,6,90,60,33,36,2,2,2,2,1,1,0.39601,0.96755,99.858,100,0.46648,0.59977,2,1,1,90.5362,50.6969
3,3,2,7,90,60,33,44,2,1,2,2,1,0,0.91969,0.55262,60.1296,60.0186,1.2829,1.6994,1,2,1,62.2381,73.6683
3,3,2,8,90,60,33,36,2,2,2,1,1,0,0.44604,1.0395,100,50.0311,0.81635,0.58307,2,1,1,51.4737,64.4576
3,3,2,9,90,90,47,22,1,2,1,2,1,1,0.46304,0.51476,100,99.1921,0.29988,0.53313,2,2,1,68.5636,85.7644
3,3,2,10,60,60,41,36,1,2,2,2,0,1,1.3605,0.44833,50.0311,60.2406,1.2828,2.9155,2,1,2,94.4203,87.0961
3,3,2,11,90,90,33,58,2,1,2,1,1,1,0.31055,0.46441,100,100,1.2662,0.31658,2,2,2,53.2493,89.9814
3,3,2,12,60,90,41,22,1,2,2,2,0,1,1.4697,0.43351,60.0186,100,2.0659,0.29987,1,1,2,55.8017,93.4215
3,3,2,13,90,90,47,22,1,2,1,2,1,1,0.70664,0.5062,59.9077,100,4.7815,0.4165,2,2,1,92.8667,90.5362
