Subj_idx,Block,Trial,Stimulus,RT_start,Response,Confidence,RT_conf,ErrorDirection,RT_error
1,1,1,1.5,1.2475,1.7253,2,2.4363,1,0.81747
1,1,2,1.5,1.8984,1.427,3,1.9509,1,1.7292
1,1,3,1.5,0.53094,1.7754,1,2.0005,1,0.62778
1,1,4,1.5,0.63404,1.6179,2,2.1291,0,1.502
1,1,5,1.5,0.62723,1.8229,2,2.5462,0,1.1013
1,1,6,1.5,0.5003,1.3176,2,1.4922,1,1.5378
1,1,7,1.5,0.40443,1.695,2,1.8229,0,1.9471
1,1,8,1.5,0.64008,1.5829,2,2.1527,1,0.96677
1,1,9,1.5,0.69914,1.4777,2,1.7758,0,3.1753
1,1,10,1.5,0.96545,1.6902,2,1.5735,0,1.3852
1,1,11,1.5,0.89031,1.4562,3,2.2351,1,0.87814
1,1,12,1.5,0.66497,2.5646,1,1.4282,1,1.3638
1,1,13,1.5,0.37803,1.5245,1,1.6988,0,0.5147
1,1,14,1.5,0.52614,1.712,2,1.7119,1,1.6276
1,1,15,1.5,0.52524,1.6525,2,1.843,1,0.75045
1,1,16,1.5,0.72991,1.7395,2,2.0711,1,0.7449
1,1,17,1.5,1.2348,1.4535,2,1.5448,1,0.70197
1,1,18,1.5,0.43732,1.3598,2,1.5006,0,0.74255
1,1,19,1.5,0.58856,1.7548,2,1.3839,1,0.47927
1,1,20,1.5,0.67681,1.3282,2,1.7158,1,1.5147
1,1,21,1.5,0.41675,1.6901,2,1.6215,0,1.0971
1,1,22,1.5,0.90243,1.579,2,1.7364,0,1.4816
1,1,23,1.5,0.27011,1.6421,2,2.9254,1,1.5322
1,1,24,1.5,0.53915,1.8989,2,1.5511,1,1.0926
1,1,25,1.5,0.44367,1.823,2,1.5215,0,0.7714
1,1,26,1.5,0.66208,1.0643,2,1.7537,1,1.7812
1,1,27,1.5,0.64057,1.3589,2,2.0751,0,0.96076
1,1,28,1.5,0.42389,1.5744,2,3.2863,0,1.2647
1,1,29,1.5,0.37843,1.3784,2,2.4494,1,1.4046
1,1,30,1.5,0.70507,1.5308,3,1.9635,0,1.7657
1,1,31,1.5,0.56469,1.4373,2,1.3948,0,1.4784
1,1,32,1.5,0.71649,1.5537,3,1.9439,1,1.113
1,1,33,1.5,0.49327,1.4856,3,2.0429,0,0.93673
1,1,34,1.5,0.51866,1.6938,2,1.489,1,0.54691
1,1,35,1.5,0.46122,2.1398,1,1.4095,1,0.52536
1,1,36,1.5,0.32236,2.562,1,1.0247,1,0.60126
1,1,37,1.5,0.46973,1.4957,2,1.3367,1,0.80798
1,1,38,1.5,2.1671,1.6172,1,2.4914,0,0.92194
1,1,39,1.5,0.78866,1.4716,2,1.5958,1,0.62957
1,1,40,1.5,0.34668,1.4022,2,1.7681,0,0.38013
1,1,41,1.5,0.59716,1.593,2,1.5505,1,0.81632
1,1,42,1.5,0.60875,1.5222,2,2.5854,1,1.4154
1,1,43,1.5,1.1772,1.6972,2,1.7255,0,1.0868
1,1,44,1.5,0.40435,1.2724,2,1.5343,1,0.81695
1,1,45,1.5,1.7636,1.5387,2,1.5852,0,0.70631
1,1,46,1.5,0.35192,1.579,2,3.7998,1,0.47625
1,1,47,1.5,2.3737,1.3448,2,1.5619,0,0.52764
1,1,48,1.5,0.46182,1.3675,2,2.6929,0,0.74642
1,1,49,1.5,0.49413,1.3771,2,4.1147,1,1.9362
1,1,50,1.5,0.31469,1.241,3,1.7118,1,2.3263
1,1,51,1.5,0.18651,1.393,2,2.9393,0,1.2803
1,1,52,1.5,0.43097,1.2974,3,1.8017,0,0.99239
1,1,53,1.5,0.44217,1.2612,2,1.9122,1,0.73887
1,1,54,1.5,0.31439,1.3282,2,2.2109,0,1.3261
1,1,55,1.5,0.33411,1.4326,2,1.2158,1,0.70333
1,1,56,1.5,0.37759,1.6033,3,1.494,1,3.0772
1,1,57,1.5,0.34786,1.5913,3,1.324,1,1.1488
1,1,58,1.5,0.34007,1.4481,2,1.2893,1,1.324
1,1,59,1.5,0.37218,1.4207,3,1.5954,0,1.1768
1,1,60,1.5,0.71065,1.848,2,1.1402,1,0.72455
2,1,1,1.5,0.6721,1.871,3,1.7316,0,1.9895
2,1,2,1.5,0.56929,1.7441,3,1.4265,0,1.4264
2,1,3,1.5,1.4316,1.0997,3,4.2298,0,3.2211
2,1,4,1.5,0.56904,1.6282,2,1.2739,0,1.7861
2,1,5,1.5,1.661,1.2119,3,1.6367,0,2.1565
2,1,6,1.5,1.0482,0.70619,2,0.96248,0,1.4379
2,1,7,1.5,0.64063,1.5087,3,1.1127,0,1.0758
2,1,8,1.5,0.64622,1.8025,3,1.2048,1,0.78485
2,1,9,1.5,0.8736,1.6472,3,1.364,1,0.73861
2,1,10,1.5,0.53721,1.2322,2,1.292,1,2.4134
2,1,11,1.5,0.47987,1.2155,3,2.2038,1,2.9429
2,1,12,1.5,0.45462,1.6846,3,1.0305,0,1.0771
2,1,13,1.5,0.71065,0.96511,3,1.3037,0,0.68366
2,1,14,1.5,0.33423,1.8537,3,1.3067,0,3.873
2,1,15,1.5,0.38468,1.2934,3,0.98729,1,1.9478
2,1,16,1.5,0.42951,1.7519,3,1.3045,0,0.85906
2,1,17,1.5,0.47932,1.5384,3,5.4084,0,2.6182
2,1,18,1.5,0.43551,1.6958,3,0.97762,1,1.5789
2,1,19,1.5,0.51902,1.2541,3,1.0204,0,0.90929
2,1,20,1.5,0.81867,1.3277,3,1.0403,0,0.66155
2,1,21,1.5,0.3775,1.8242,3,0.98636,1,1.0949
2,1,22,1.5,0.3914,1.7013,3,1.0803,0,1.7396
2,1,23,1.5,0.39094,2.2226,2,1.7572,1,1.1356
2,1,24,1.5,0.28263,1.7132,3,1.0874,1,0.69602
2,1,25,1.5,0.30825,1.6734,3,0.86114,0,2.654
2,1,26,1.5,0.34034,1.0737,3,0.77401,0,0.58884
2,1,27,1.5,0.28232,1.5519,3,0.81763,0,0.65702
2,1,28,1.5,0.44297,1.6398,3,0.72225,1,0.82413
2,1,29,1.5,0.47983,1.6177,3,1.1053,0,0.94799
2,1,30,1.5,0.41642,2.1048,3,0.75649,1,1.1127
2,1,31,1.5,0.48742,1.2223,3,0.48559,0,1.8712
2,1,32,1.5,0.38341,1.5891,3,0.97138,1,0.94805
2,1,33,1.5,0.52543,1.4744,3,0.82407,1,0.92671
2,1,34,1.5,0.33992,1.7461,3,0.79983,1,1.0176
2,1,35,1.5,0.5055,1.4703,3,2.6202,0,1.6411
2,1,36,1.5,0.34053,1.7593,3,1.1876,1,0.87211
2,1,37,1.5,0.37207,1.5578,3,1.1483,1,0.95422
2,1,38,1.5,0.32089,1.8196,3,1.0441,1,1.8406
2,1,39,1.5,0.41065,1.4123,3,1.099,0,1.7546
2,1,40,1.5,0.3837,1.3929,3,0.9517,1,0.64404
2,1,41,1.5,0.62156,1.8695,3,0.59283,1,1.7042
2,1,42,1.5,0.53851,1.1702,3,0.92049,0,2.0352
2,1,43,1.5,0.52503,1.3093,3,1.2883,1,2.2717
2,1,44,1.5,0.27614,1.9998,2,3.7027,0,1.7162
2,1,45,1.5,0.69824,1.5497,3,0.45355,0,1.1098
2,1,46,1.5,0.36005,1.6368,3,0.69445,1,1.5177
2,1,47,1.5,0.37852,1.4522,3,0.90659,1,0.81196
2,1,48,1.5,0.50615,1.873,3,0.8091,0,1.1403
2,1,49,1.5,0.31499,1.7637,2,0.77609,1,0.62572
2,1,50,1.5,0.41767,1.6145,3,0.95213,1,0.60674
2,1,51,1.5,0.37204,1.4497,3,0.87811,1,1.1672
2,1,52,1.5,0.44144,1.3363,3,0.90673,0,1.7757
2,1,53,1.5,0.29559,1.6057,3,0.85967,1,0.80315
2,1,54,1.5,0.3591,1.5634,3,0.72555,1,1.0653
2,1,55,1.5,0.44319,2.1512,3,1.4276,0,1.8272
2,1,56,1.5,0.42347,0.85792,3,0.82513,0,0.52725
2,1,57,1.5,0.36005,1.3016,3,0.80689,1,0.71235
2,1,58,1.5,0.31492,1.667,3,0.82876,1,1.713
2,1,59,1.5,0.29025,1.8972,3,0.86171,1,1.3762
2,1,60,1.5,0.25053,1.9294,3,0.72712,1,1.1922
3,1,1,1.5,1.4522,1.5536,3,2.2074,0,1.822
3,1,2,1.5,1.5411,1.7939,3,3.2011,1,1.4666
3,1,3,1.5,2.2782,1.0723,2,4.5983,0,1.1352
3,1,4,1.5,1.4233,1.4193,3,1.2315,1,0.35252
3,1,5,1.5,1.6996,1.5288,3,1.599,0,0.94007
3,1,6,1.5,2.5415,1.0812,3,1.7663,0,1.1779
3,1,7,1.5,1.8119,1.2212,3,2.4207,0,1.0051
3,1,8,1.5,0.65387,1.5313,3,1.5897,1,0.47147
3,1,9,1.5,1.2573,1.4684,3,1.4686,1,1.0937
3,1,10,1.5,0.55849,1.4098,2,2.789,0,1.5559
3,1,11,1.5,1.2846,1.4624,3,1.2994,0,0.4915
3,1,12,1.5,0.4547,1.2818,3,1.1649,1,0.6282
3,1,13,1.5,0.80646,1.533,3,0.70424,1,1.6106
3,1,14,1.5,0.66579,1.5754,2,2.0366,1,0.25638
3,1,15,1.5,1.0268,1.0265,2,1.4609,0,0.57674
3,1,16,1.5,0.56788,1.5144,2,1.3885,0,0.67227
3,1,17,1.5,0.85019,1.4036,3,1.1947,0,3.7664
3,1,18,1.5,0.90075,1.7375,2,1.0444,0,1.3793
3,1,19,1.5,0.6204,1.5157,3,3.1785,1,1.4853
3,1,20,1.5,0.46726,1.4054,3,1.4473,1,0.23928
3,1,21,1.5,0.55728,1.9707,2,1.6568,1,1.6596
3,1,22,1.5,1.4002,1.5247,3,1.1984,1,0.30342
3,1,23,1.5,1.49,1.9048,3,0.50697,0,1.1887
3,1,24,1.5,0.74229,1.6216,3,1.3081,1,0.4007
3,1,25,1.5,0.5188,1.9334,3,1.3397,1,0.37236
3,1,26,1.5,0.70915,1.4603,3,1.3258,0,0.31352
3,1,27,1.5,0.5575,2.0215,2,1.695,1,0.5019
3,1,28,1.5,0.46176,1.8046,2,0.75705,0,2.513
3,1,29,1.5,0.6189,1.1177,3,1.2432,1,0.26377
3,1,30,1.5,1.528,1.6977,3,0.63845,1,0.96105
3,1,31,1.5,0.47394,1.4207,3,1.046,1,0.37686
3,1,32,1.5,0.70327,0.84607,2,1.3647,0,1.465
3,1,33,1.5,0.37268,1.4239,3,0.49916,1,1.8311
3,1,34,1.5,0.56311,1.8068,3,1.9592,0,3.3612
3,1,35,1.5,0.36613,1.3563,3,1.1858,1,0.3311
3,1,36,1.5,0.0082182,1.3192,3,0.85808,0,1.0881
3,1,37,1.5,0.54379,1.2003,3,1.9552,1,0.37007
3,1,38,1.5,0.81139,1.3854,2,1.2939,1,2.3134
3,1,39,1.5,0.46726,1.4667,3,0.72823,1,1.213
3,1,40,1.5,0.0084416,0.61962,1,2.3104,0,0.69961
3,1,41,1.5,0.53258,1.3987,3,1.2782,1,0.54132
3,1,42,1.5,0.38418,1.2164,3,1.792,1,0.2867
3,1,43,1.5,0.50587,1.5592,3,0.7385,0,1.2478
3,1,44,1.5,0.5195,1.6025,2,2.1315,1,2.9416
3,1,45,1.5,0.35257,1.6166,3,0.61643,1,0.24389
3,1,46,1.5,0.45483,2.2472,1,1.3117,1,0.7288
3,1,47,1.5,0.26362,1.2641,3,0.72774,1,0.44253
3,1,48,1.5,0.42877,1.3751,3,1.2993,0,1.1538
3,1,49,1.5,0.30226,1.2316,3,1.3284,0,0.87887
3,1,50,1.5,0.45572,1.86,2,1.138,1,1.2093
3,1,51,1.5,0.83246,1.1642,3,0.75242,1,0.89596
3,1,52,1.5,0.44776,1.4746,2,0.85004,0,1.3175
3,1,53,1.5,0.59215,1.9266,2,0.77593,1,0.85174
3,1,54,1.5,4.0636,1.7583,3,1.8619,0,1.0516
3,1,55,1.5,3.9221,1.9987,2,1.352,1,1.0179
3,1,56,1.5,2.4392,1.7433,3,1.4125,1,1.2053
3,1,57,1.5,1.3915,1.71,2,0.93874,1,1.4601
3,1,58,1.5,0.43011,1.0765,3,0.72441,0,1.3003
3,1,59,1.5,1.356,1.5545,2,3.1331,0,1.6515
3,1,60,1.5,1.0888,1.8959,3,1.1849,1,0.21875
4,1,1,1.5,2.0758,1.1464,3,2.4254,0,1.8481
4,1,2,1.5,1.0496,1.1354,3,3.5206,1,1.5893
4,1,3,1.5,0.78027,1.0424,3,2.2506,1,0.82752
4,1,4,1.5,1.2134,1.4125,2,1.7756,1,1.2245
4,1,5,1.5,0.78804,1.2695,3,2.1198,0,0.65528
4,1,6,1.5,0.7228,1.0972,3,1.4396,1,0.43527
4,1,7,1.5,0.7414,1.3994,2,4.8662,1,1.6104
4,1,8,1.5,2.3277,1.4102,2,2.5522,0,0.4773
4,1,9,1.5,1.3302,0.87825,2,1.9134,0,0.6788
4,1,10,1.5,0.78145,1.2416,3,2.7748,1,0.53415
4,1,11,1.5,0.65275,0.9934,2,2.2908,0,0.54661
4,1,12,1.5,0.72345,1.2072,2,2.2633,0,0.50105
4,1,13,1.5,0.66573,1.426,3,1.6019,1,0.57911
4,1,14,1.5,1.2573,1.1336,3,2.5667,1,1.305
4,1,15,1.5,0.634,1.2911,2,1.8495,1,0.71581
4,1,16,1.5,0.60142,1.6901,2,1.1723,1,0.51103
4,1,17,1.5,0.74923,0.91361,2,2.0402,0,0.42178
4,1,18,1.5,2.419,1.4263,3,2.3629,0,1.2898
4,1,19,1.5,0.61463,1.5125,3,1.4242,1,0.53677
4,1,20,1.5,0.93365,1.0784,2,1.9254,1,0.48562
4,1,21,1.5,1.1441,1.2212,2,1.8349,0,0.42873
4,1,22,1.5,0.56473,1.3166,3,1.217,1,0.46678
4,1,23,1.5,0.64127,1.2838,3,1.0053,1,0.43545
4,1,24,1.5,0.62832,1.4616,3,1.9749,1,0.5229
4,1,25,1.5,0.5964,1.2783,2,2.4878,1,0.7805
4,1,26,1.5,0.56433,1.0248,2,1.5747,0,0.46156
4,1,27,1.5,0.53262,1.2672,3,1.5428,0,0.56251
4,1,28,1.5,1.4956,0.89978,2,2.5176,0,0.5765
4,1,29,1.5,0.49263,1.287,2,1.8452,1,0.70286
4,1,30,1.5,0.4886,1.3472,2,1.8646,0,0.63
4,1,31,1.5,0.78725,1.0956,3,1.4387,0,1.0459
4,1,32,1.5,2.1154,1.3245,2,1.6865,0,0.54477
4,1,33,1.5,1.446,1.5483,3,1.4386,1,0.55962
4,1,34,1.5,0.96772,1.3524,3,1.2573,0,0.46108
4,1,35,1.5,1.2407,0.95552,3,1.3355,1,0.40693
4,1,36,1.5,0.62715,1.0528,3,1.4702,0,0.73206
4,1,37,1.5,0.53947,1.335,2,2.2808,0,0.50308
4,1,38,1.5,0.56979,1.0933,2,1.9146,0,1.1803
4,1,39,1.5,0.5185,1.5648,2,0.97738,1,0.46584
4,1,40,1.5,0.71607,1.3509,3,0.94278,1,0.58907
4,1,41,1.5,0.62781,1.3254,2,1.3001,0,2.4789
4,1,42,1.5,0.72522,1.034,3,1.9803,0,0.45442
4,1,43,1.5,0.48744,1.3346,2,2.4805,1,2.6005
4,1,44,1.5,1.4137,1.9041,3,1.7935,1,2.4377
4,1,45,1.5,0.59565,1.3125,2,2.0758,1,1.2358
4,1,46,1.5,0.54978,1.1653,3,1.2037,0,0.32114
4,1,47,1.5,0.84502,1.377,2,1.5506,1,0.15621
4,1,48,1.5,0.58934,1.4096,3,1.0756,0,0.45205
4,1,49,1.5,0.58383,1.418,3,2.8931,0,0.15914
4,1,50,1.5,0.64779,1.1554,2,1.0967,0,0.50241
4,1,51,1.5,0.56926,1.3405,3,1.386,1,0.25754
4,1,52,1.5,0.62869,1.2532,3,1.1076,1,0.30095
4,1,53,1.5,0.76843,1.278,3,1.212,1,0.87927
4,1,54,1.5,0.4431,1.4897,3,0.723,1,0.21213
4,1,55,1.5,0.81238,1.1163,2,2.3427,0,0.1978
4,1,56,1.5,0.47976,1.4022,2,1.7432,0,0.23833
4,1,57,1.5,1.2396,0.99433,3,1.5871,0,0.16969
4,1,58,1.5,1.1687,1.3025,3,1.9566,1,2.922
4,1,59,1.5,0.44922,1.3123,2,2.2874,1,0.13083
4,1,60,1.5,0.82525,1.1963,3,1.3753,0,2.8016
5,1,1,1.5,0.30887,1.5854,2,2.6056,0,1.6814
5,1,2,1.5,2.6608,1.7584,2,5.4612,1,1.2275
5,1,3,1.5,1.9068,1.5682,3,2.0921,1,0.77412
5,1,4,1.5,1.4571,1.5205,2,2.0697,0,3.2307
5,1,5,1.5,3.1959,1.4068,3,2.0861,1,0.80546
5,1,6,1.5,1.1439,1.5003,3,1.5925,0,2.3132
5,1,7,1.5,1.3734,1.5452,3,2.0861,1,1.2541
5,1,8,1.5,0.91259,1.9301,2,1.9615,0,1.9264
5,1,9,1.5,1.2394,1.8658,2,2.1519,0,1.1542
5,1,10,1.5,1.7459,0.89814,2,3.267,1,0.92902
5,1,11,1.5,1.6681,2.128,2,8.3378,1,1.3042
5,1,12,1.5,1.3079,1.2958,2,1.4758,0,0.81244
5,1,13,1.5,0.83764,1.5585,1,4.1876,0,2.2925
5,1,14,1.5,1.1187,1.3307,2,1.876,1,0.38683
5,1,15,1.5,1.6296,1.41,3,4.8492,1,5.1221
5,1,16,1.5,2.7268,1.2175,2,1.9807,1,0.59083
5,1,17,1.5,1.1131,1.4616,1,1.9029,0,0.59286
5,1,18,1.5,1.2016,1.7658,1,3.5893,1,0.49127
5,1,19,1.5,1.0548,1.5786,3,5.7162,0,2.1951
5,1,20,1.5,1.0563,1.5921,2,2.6759,1,0.74604
5,1,21,1.5,2.1815,1.6248,2,1.8991,0,1.178
5,1,22,1.5,0.97103,1.1659,3,1.9159,0,0.80284
5,1,23,1.5,0.79937,1.2143,1,1.8895,0,0.77094
5,1,24,1.5,1.2719,1.0547,2,2.2977,0,0.50221
5,1,25,1.5,1.3568,1.4687,3,1.6808,0,1.4422
5,1,26,1.5,1.515,1.4277,3,1.5643,1,0.43878
5,1,27,1.5,0.74127,1.0715,2,2.2855,1,0.62838
5,1,28,1.5,1.4962,1.4606,2,1.4848,1,0.59278
5,1,29,1.5,1.0677,1.5545,2,1.3091,1,0.68871
5,1,30,1.5,0.83644,1.5939,2,1.7264,1,1.1511
5,1,31,1.5,1.2009,1.0664,3,3.7046,0,0.16459
5,1,32,1.5,0.28948,0.07164,1,2.2892,0,1.6324
5,1,33,1.5,0.73481,1.2681,2,1.7065,0,1.8092
5,1,34,1.5,0.7939,0.93727,2,1.7965,0,0.60397
5,1,35,1.5,0.98463,1.3041,3,1.3965,1,2.3292
5,1,36,1.5,0.51208,1.3531,2,1.9457,0,0.56307
5,1,37,1.5,0.92651,0.84612,2,1.6142,0,0.51352
5,1,38,1.5,0.57051,1.4824,3,1.1905,0,1.2873
5,1,39,1.5,0.70565,1.4447,2,1.1527,1,0.53306
5,1,40,1.5,1.1071,0.97083,2,1.6588,0,0.53712
5,1,41,1.5,0.97627,0.91196,2,1.964,0,0.31617
5,1,42,1.5,0.38453,1.3267,2,1.789,1,0.57162
5,1,43,1.5,0.86848,1.7777,2,2.1265,1,0.33731
5,1,44,1.5,0.96539,1.7626,2,1.9022,0,0.27997
5,1,45,1.5,0.82456,1.1722,2,2.8219,0,0.30587
5,1,46,1.5,1.6042,1.5938,3,3.1388,0,0.56729
5,1,47,1.5,0.70327,1.2289,3,2.1882,0,0.31898
5,1,48,1.5,0.83648,0.82032,3,2.4597,0,0.46106
5,1,49,1.5,0.67967,1.0041,3,2.0717,1,2.2195
5,1,50,1.5,0.86327,1.4915,2,1.4993,1,0.56599
5,1,51,1.5,0.6655,1.2625,3,2.1125,1,0.57591
5,1,52,1.5,0.56949,1.0937,3,1.4032,1,1.6074
5,1,53,1.5,0.60149,1.4141,2,1.5513,0,0.60538
5,1,54,1.5,0.92575,1.3341,2,2.0414,0,0.52306
5,1,55,1.5,0.61516,1.5531,2,1.3556,1,0.59745
5,1,56,1.5,1.0087,1.3737,2,1.7369,0,0.6559
5,1,57,1.5,0.5889,1.5223,2,2.5092,1,0.35923
5,1,58,1.5,0.49339,1.3995,3,1.3157,1,1.6418
5,1,59,1.5,0.645,1.125,2,1.4631,0,0.52881
5,1,60,1.5,0.93951,1.4707,3,3.67,1,1.5302
6,1,1,1.5,1.4302,1.7021,3,7.4922,1,9.1126
6,1,2,1.5,2.5092,1.0286,1,6.6643,0,3.202
6,1,3,1.5,1.4124,1.4247,2,2.3637,1,3.2139
6,1,4,1.5,1.3157,1.4056,2,4.8611,1,1.1292
6,1,5,1.5,2.4161,1.1262,2,4.5758,0,6.105
6,1,6,1.5,1.1994,1.2765,2,4.2136,0,2.4967
6,1,7,1.5,1.513,1.265,2,3.6788,1,2.8719
6,1,8,1.5,1.7529,0.86245,2,8.1027,0,3.2651
6,1,9,1.5,1.0754,1.2223,3,5.4977,1,7.8311
6,1,10,1.5,1.1294,1.2119,3,1.5004,0,3.0036
6,1,11,1.5,1.2838,1.5369,3,6.9082,1,7.0867
6,1,12,1.5,1.5513,1.1391,2,1.4988,0,2.8656
6,1,13,1.5,2.5629,1.3332,2,4.5037,0,1.9656
6,1,14,1.5,2.7899,1.2552,3,4.2722,1,4.7143
6,1,15,1.5,1.1192,1.1514,3,1.8184,1,2.8172
6,1,16,1.5,1.2726,0.72113,1,3.3476,0,1.7132
6,1,17,1.5,2.4064,1.2306,2,9.7638,0,3.4851
6,1,18,1.5,4.0291,1.6953,3,5.8776,0,4.1135
6,1,19,1.5,1.0176,0.67608,3,4.0988,1,3.4871
6,1,20,1.5,0.88244,1.3043,3,1.795,0,4.7654
6,1,21,1.5,0.74652,1.4303,3,1.3381,1,1.9466
6,1,22,1.5,0.69194,0.72308,1,6.2259,0,2.1163
6,1,23,1.5,0.58238,1.4753,3,7.8873,0,3.3302
6,1,24,1.5,0.64789,0.91547,3,1.8553,1,1.9325
6,1,25,1.5,0.72528,1.5006,3,3.3421,0,2.9822
6,1,26,1.5,0.63347,1.3882,3,5.1838,1,4.9359
6,1,27,1.5,0.596,1.1547,2,2.9106,0,1.6097
6,1,28,1.5,0.60339,1.1579,3,3.25,1,4.7761
6,1,29,1.5,0.95934,1.3334,2,3.1427,1,2.2709
6,1,30,1.5,0.61526,0.97608,2,2.6525,1,1.9656
6,1,31,1.5,0.9207,1.244,2,2.0523,1,1.1539
6,1,32,1.5,1.4708,1.1015,1,3.6433,0,4.0828
6,1,33,1.5,0.51892,1.2422,2,3.6136,1,4.1854
6,1,34,1.5,1.0718,0.76705,2,3.5568,0,1.2421
6,1,35,1.5,3.5888,1.8027,3,1.9558,1,2.4092
6,1,36,1.5,0.8906,1.3116,2,2.1873,1,2.068
6,1,37,1.5,0.56392,1.3819,2,2.7152,1,1.315
6,1,38,1.5,1.3602,1.2821,2,3.6415,1,2.8185
6,1,39,1.5,0.77535,0.98892,2,3.711,0,1.3447
6,1,40,1.5,0.95897,1.3374,3,1.5076,1,4.3241
6,1,41,1.5,0.9672,1.1995,3,1.6791,1,2.2287
6,1,42,1.5,0.85106,0.87763,3,1.3869,0,1.3197
6,1,43,1.5,0.51267,1.5548,2,3.3835,1,1.1405
6,1,44,1.5,0.71727,1.4286,2,2.55,1,4.0429
6,1,45,1.5,2.1585,1.029,2,6.9761,0,1.3899
6,1,46,1.5,0.68591,0.96763,3,1.2936,0,2.3896
6,1,47,1.5,1.3812,0.94151,1,2.6019,0,1.177
6,1,48,1.5,1.1895,1.3185,3,1.3311,1,2.5021
6,1,49,1.5,0.57071,1.5048,3,1.9324,1,2.465
6,1,50,1.5,1.0943,1.173,2,2.537,1,4.5036
6,1,51,1.5,1.2477,1.5006,2,2.6932,1,1.335
6,1,52,1.5,0.76793,1.2545,3,1.8211,1,2.1946
6,1,53,1.5,1.4449,1.1855,2,5.1445,1,4.7293
6,1,54,1.5,0.55177,1.4691,3,0.98178,1,2.3657
6,1,55,1.5,0.44173,1.6348,2,2.2927,1,1.1362
6,1,56,1.5,0.8502,1.2865,3,5.1207,0,1.3006
6,1,57,1.5,0.63372,1.3423,2,2.8504,0,2.3423
6,1,58,1.5,0.47629,0.80103,2,2.371,0,1.0186
6,1,59,1.5,0.84466,1.3362,3,2.5701,1,2.6542
6,1,60,1.5,0.55071,0.1429,1,10.189,0,1.4529
7,1,1,1.5,2.6432,1.5713,2,1.746,0,1.3283
7,1,2,1.5,1.389,1.5467,3,1.2631,0,1.4255
7,1,3,1.5,1.4718,1.4405,2,2.2349,0,2.2664
7,1,4,1.5,1.2288,1.7602,3,4.2375,1,1.2555
7,1,5,1.5,3.2668,1.6715,2,1.8086,0,0.84913
7,1,6,1.5,0.99904,1.315,3,2.5905,0,0.84573
7,1,7,1.5,1.23,1.6742,3,1.448,0,1.0269
7,1,8,1.5,1.1969,1.6639,3,1.9634,1,0.57801
7,1,9,1.5,1.5564,1.4699,2,2.2328,0,0.51379
7,1,10,1.5,1.0769,1.4148,3,2.9145,0,0.68898
7,1,11,1.5,0.79402,1.8121,3,1.6017,0,0.68043
7,1,12,1.5,1.1331,1.9406,3,2.8096,1,0.54727
7,1,13,1.5,2.0124,1.9122,2,2.6982,1,0.77694
7,1,14,1.5,0.81878,1.1406,2,2.588,1,1.0795
7,1,15,1.5,0.90232,1.6178,3,1.9171,0,0.72796
7,1,16,1.5,1.2937,1.8961,3,1.9602,1,0.83743
7,1,17,1.5,1.0315,1.3441,2,1.6519,0,0.5312
7,1,18,1.5,0.91613,1.6526,2,2.2055,0,0.50651
7,1,19,1.5,0.86402,2.7797,1,2.939,1,1.0299
7,1,20,1.5,1.4855,1.1656,3,1.4169,0,1.1421
7,1,21,1.5,1.2373,1.6296,2,1.4364,0,1.0321
7,1,22,1.5,0.75593,1.4828,3,1.3784,0,1.0284
7,1,23,1.5,0.83805,1.7347,3,2.3158,1,0.7556
7,1,24,1.5,0.78147,2.0163,3,1.8516,0,0.61712
7,1,25,1.5,0.71848,1.5658,2,1.7028,0,0.73019
7,1,26,1.5,1.2248,0.8232,2,1.7503,0,0.87759
7,1,27,1.5,0.99223,1.6195,2,2.7068,0,1.2323
7,1,28,1.5,0.94765,1.5413,3,1.4993,0,0.52853
7,1,29,1.5,0.80619,1.9973,3,0.92521,1,0.62606
7,1,30,1.5,0.65452,1.7468,3,1.7497,1,0.62767
7,1,31,1.5,0.92956,1.9281,3,1.7132,1,0.60421
7,1,32,1.5,1.2301,1.374,2,1.449,0,0.49123
7,1,33,1.5,1.0169,1.5885,2,1.7462,0,1.0279
7,1,34,1.5,0.99909,1.5619,3,1.0029,0,0.62153
7,1,35,1.5,0.98761,1.4049,2,2.2587,0,0.49747
7,1,36,1.5,0.98523,1.4165,2,1.5038,0,0.4951
7,1,37,1.5,0.83947,1.7979,3,1.7507,0,1.1415
7,1,38,1.5,0.69227,1.933,2,2.7521,1,0.64054
7,1,39,1.5,0.42902,1.6892,2,1.7591,0,0.68721
7,1,40,1.5,0.97986,1.3389,3,1.3593,1,0.71307
7,1,41,1.5,1.1799,1.6264,2,1.5261,0,0.57575
7,1,42,1.5,0.61458,1.7241,2,1.8231,0,0.92174
7,1,43,1.5,0.94853,1.7812,2,1.8138,0,0.92822
7,1,44,1.5,0.77545,1.6456,3,1.2623,1,0.51611
7,1,45,1.5,0.7958,1.5021,2,1.5053,0,1.1844
7,1,46,1.5,0.60293,1.6195,3,1.0186,1,0.86915
7,1,47,1.5,0.71648,1.3616,2,2.0622,0,1.0265
7,1,48,1.5,1.2354,1.7145,3,1.5142,0,0.87605
7,1,49,1.5,0.55757,1.7243,3,1.2845,1,1.2181
7,1,50,1.5,0.44968,1.3992,2,1.6163,0,0.57732
7,1,51,1.5,1.2354,1.8547,3,1.6704,0,0.59425
7,1,52,1.5,0.79014,1.4324,2,1.703,0,0.59428
7,1,53,1.5,0.85902,1.5837,3,2.0901,1,0.95941
7,1,54,1.5,0.76997,1.7531,3,1.6685,0,0.81708
7,1,55,1.5,1.497,1.6361,3,1.8062,1,0.93508
7,1,56,1.5,1.7731,1.9575,2,1.3472,1,0.50208
7,1,57,1.5,0.5835,1.7005,3,0.76546,0,1.068
7,1,58,1.5,1.0636,1.4019,2,1.9922,0,0.52411
7,1,59,1.5,0.87843,1.7521,2,2.3541,1,1.081
7,1,60,1.5,1.1965,1.4146,3,1.5772,1,1.2393
8,1,1,1.5,2.7814,1.5475,3,1.2778,1,1.9901
8,1,2,1.5,2.297,1.4614,2,1.3771,0,1.001
8,1,3,1.5,1.7197,1.4042,3,1.2083,0,1.214
8,1,4,1.5,1.5912,1.4441,2,1.5769,0,1.2889
8,1,5,1.5,0.92605,1.4596,3,1.2749,1,1.4139
8,1,6,1.5,0.6026,1.3423,2,1.4019,0,1.7429
8,1,7,1.5,0.93081,1.339,3,1.3229,0,1.224
8,1,8,1.5,0.55779,1.4591,2,1.1634,1,0.86356
8,1,9,1.5,0.30293,1.5652,2,1.4274,1,0.78867
8,1,10,1.5,0.26383,1.7131,3,1.3992,0,0.82974
8,1,11,1.5,0.72336,1.2345,2,1.1808,0,0.81439
8,1,12,1.5,0.36216,1.5267,2,1.2388,1,1.3231
8,1,13,1.5,0.39515,1.2774,3,0.90384,0,0.87211
8,1,14,1.5,0.36815,1.2905,3,1.0369,1,0.72177
8,1,15,1.5,0.29661,1.4108,2,1.0238,0,0.62386
8,1,16,1.5,0.21211,1.6052,3,1.2341,0,0.55438
8,1,17,1.5,0.53199,1.6126,2,1.3986,1,0.52713
8,1,18,1.5,0.28343,1.402,2,1.1808,1,0.91429
8,1,19,1.5,0.9544,1.5184,3,1.1178,0,1.5683
8,1,20,1.5,0.5915,1.3228,3,1.1487,0,0.45348
8,1,21,1.5,0.35509,0.99856,2,1.4034,0,0.74462
8,1,22,1.5,0.58477,1.3132,3,1.1512,1,0.86904
8,1,23,1.5,0.3036,1.1677,2,1.5819,0,0.52744
8,1,24,1.5,0.71706,1.312,3,1.2867,1,0.54598
8,1,25,1.5,0.70418,1.3833,3,1.2288,0,0.96579
8,1,26,1.5,0.7579,1.3606,2,1.7912,0,1.1597
8,1,27,1.5,0.94025,1.4223,2,1.6852,0,0.44189
8,1,28,1.5,0.69641,1.6916,3,1.0866,1,0.76952
8,1,29,1.5,0.46162,1.3307,3,0.67593,0,0.32746
8,1,30,1.5,0.36281,1.817,3,0.95253,0,1.058
8,1,31,1.5,0.54061,1.4081,2,1.1119,1,0.7179
8,1,32,1.5,0.54649,1.8409,3,1.1987,1,0.70202
8,1,33,1.5,0.44209,1.5764,3,1.0128,0,0.43934
8,1,34,1.5,0.72251,1.4348,3,1.0053,0,0.37234
8,1,35,1.5,0.45547,1.5298,3,1.0759,1,0.67656
8,1,36,1.5,0.4289,1.5789,3,1.8621,0,0.70123
8,1,37,1.5,0.63822,1.8079,2,2.8738,0,2.145
8,1,38,1.5,0.75577,1.6344,3,1.3676,0,1.0676
8,1,39,1.5,0.50028,1.889,2,2.1099,0,0.46181
8,1,40,1.5,0.70319,1.656,3,1.2708,0,0.83455
8,1,41,1.5,0.5066,1.5447,3,2.0222,0,6.2462
8,1,42,1.5,0.48682,1.9525,3,1.7808,0,0.72469
8,1,43,1.5,0.34204,1.6614,2,1.012,1,1.1126
8,1,44,1.5,0.34174,1.8978,3,1.0142,0,0.80233
8,1,45,1.5,0.46807,1.8078,3,2.7975,0,2.0511
8,1,46,1.5,1.09,1.7438,2,2.2759,0,1.0617
8,1,47,1.5,0.42812,1.8261,2,1.3865,0,0.64547
8,1,48,1.5,0.44039,2.0852,2,2.3422,0,1.2099
8,1,49,1.5,0.36288,1.6685,3,1.0186,1,0.74441
8,1,50,1.5,0.73662,1.6175,3,1.0414,0,0.98826
8,1,51,1.5,0.79467,1.7131,3,0.91156,0,0.6016
8,1,52,1.5,1.1225,1.5725,2,1.1085,0,0.40134
8,1,53,1.5,0.48683,1.956,2,1.1596,0,0.4134
8,1,54,1.5,0.68448,1.9659,2,1.3028,0,0.40706
8,1,55,1.5,0.67681,2.0147,1,1.1117,1,1.1918
8,1,56,1.5,0.64442,1.7744,2,0.96152,1,0.51672
8,1,57,1.5,0.84076,0.99452,2,1.075,0,0.35102
8,1,58,1.5,0.66465,1.8361,2,1.2814,1,0.74007
8,1,59,1.5,0.96515,1.701,2,2.1542,0,0.64291
8,1,60,1.5,0.75583,1.4933,3,1.5252,0,1.1008
9,1,1,1.5,2.534,1.5802,3,2.475,1,4.4215
9,1,2,1.5,2.8538,1.2433,2,5.9387,0,1.9752
9,1,3,1.5,2.0318,1.754,2,3.8197,0,2.3913
9,1,4,1.5,2.684,1.7738,1,4.9968,0,4.9704
9,1,5,1.5,2.0147,1.4627,2,3.1009,0,1.7543
9,1,6,1.5,1.9011,1.3169,3,2.1544,1,2.4944
9,1,7,1.5,1.3869,1.6175,3,1.68,1,3.0667
9,1,8,1.5,2.761,1.542,2,4.2241,0,1.2163
9,1,9,1.5,2.0233,1.3161,3,0.81743,0,1.2555
9,1,10,1.5,2.6431,1.7092,1,1.162,1,0.99132
9,1,11,1.5,3.264,2.097,2,2.6524,1,1.1788
9,1,12,1.5,1.5478,1.5392,3,3.0724,0,2.2048
9,1,13,1.5,1.1066,1.7435,3,1.7254,0,2.3624
9,1,14,1.5,1.3179,1.5916,2,1.6115,0,1.4652
9,1,15,1.5,0.078153,1.2793,1,1.3006,0,1.3051
9,1,16,1.5,3.5227,1.9512,2,3.0281,0,2.261
9,1,17,1.5,1.0616,2.2613,3,2.8882,1,2.6175
9,1,18,1.5,1.5292,2.0139,1,3.7014,1,1.3144
9,1,19,1.5,2.5572,2.0396,3,1.1337,1,3.4555
9,1,20,1.5,1.3216,2.1444,2,2.2495,0,0.72703
9,1,21,1.5,0.69722,1.9175,2,2.5403,0,1.0443
9,1,22,1.5,1.5277,1.5985,3,2.9772,1,0.42183
9,1,23,1.5,1.1193,1.8024,1,2.2186,0,2.1153
9,1,24,1.5,2.2297,2.1225,3,1.5822,1,1.3774
9,1,25,1.5,1.3532,1.6269,3,3.1017,1,0.59248
9,1,26,1.5,1.1443,2.5101,1,1.5358,1,1.8936
9,1,27,1.5,1.3051,1.7698,3,1.4063,1,2.4979
9,1,28,1.5,1.1453,1.7977,2,1.126,0,1.3516
9,1,29,1.5,0.82676,1.3885,2,2.1604,0,1.1257
9,1,30,1.5,0.79988,1.8648,3,2.1125,1,1.2031
9,1,31,1.5,2.6047,2.2225,3,3.9959,1,2.4958
9,1,32,1.5,2.0544,1.388,2,1.847,0,0.87858
9,1,33,1.5,2.2009,1.6524,2,2.2053,0,1.0694
9,1,34,1.5,1.9796,2.0267,3,3.3993,1,0.86427
9,1,35,1.5,0.61495,1.6621,2,1.2363,1,1.6324
9,1,36,1.5,0.59019,2.0374,1,3.1441,0,1.0097
9,1,37,1.5,1.824,1.9077,3,1.51,1,1.6767
9,1,38,1.5,1.0363,1.8663,3,1.7395,0,2.0848
9,1,39,1.5,1.1076,1.9235,2,1.3094,0,1.613
9,1,40,1.5,1.7463,1.614,1,1.2635,0,0.53874
9,1,41,1.5,1.0052,1.9462,2,0.98568,1,1.4327
9,1,42,1.5,1.3614,1.6648,3,1.789,0,1.4079
9,1,43,1.5,1.2863,1.9537,2,1.8428,1,0.75054
9,1,44,1.5,1.0602,1.8644,2,2.5122,0,1.2879
9,1,45,1.5,1.0248,1.6722,3,0.99596,1,1.8507
9,1,46,1.5,1.433,1.6554,3,0.99613,0,0.75241
9,1,47,1.5,1.2083,1.7601,3,0.97607,0,0.66468
9,1,48,1.5,1.0814,2.0166,2,1.3144,1,0.57733
9,1,49,1.5,1.3447,1.8766,2,1.5887,1,1.4454
9,1,50,1.5,1.1779,1.6478,3,1.503,1,0.80648
9,1,51,1.5,1.0247,1.4445,3,1.5027,0,1.2559
9,1,52,1.5,1.3746,1.8209,1,1.0074,1,1.0755
9,1,53,1.5,0.97423,1.2615,1,2.0501,0,1.1144
9,1,54,1.5,1.4469,1.8007,3,1.4405,0,1.9356
9,1,55,1.5,1.011,1.6081,3,2.1757,0,0.77257
9,1,56,1.5,2.0415,1.7423,3,2.4999,0,1.425
9,1,57,1.5,2.0907,2.0154,2,2.9899,0,0.80493
9,1,58,1.5,2.4548,1.6007,1,2.3296,0,0.93844
9,1,59,1.5,2.057,1.9278,2,2.4971,1,1.5134
9,1,60,1.5,1.3641,2.2252,1,2.2103,1,0.62354
10,1,1,1.5,2.968,1.1367,2,9.0844,0,2.1025
10,1,2,1.5,2.886,1.2542,3,5.1098,1,0.9267
10,1,3,1.5,2.7478,1.4517,2,2.3303,0,1.539
10,1,4,1.5,2.4996,1.4614,3,1.9653,1,3.0385
10,1,5,1.5,1.3761,1.2873,3,2.1454,1,2.2883
10,1,6,1.5,1.5366,1.6177,2,1.9546,0,1.6077
10,1,7,1.5,1.0116,2.2496,1,3.5896,1,1.8031
10,1,8,1.5,0.53449,1.2512,2,1.8679,0,1.3553
10,1,9,1.5,0.4505,1.6049,2,1.3338,0,1.4918
10,1,10,1.5,0.40493,1.9361,2,1.6295,1,0.71644
10,1,11,1.5,0.63458,1.6386,2,1.3455,1,3.0916
10,1,12,1.5,2.4624,0.52051,1,3.6976,0,1.1616
10,1,13,1.5,0.29621,1.1949,2,1.3369,1,0.95741
10,1,14,1.5,0.5068,1.2209,2,1.6092,1,1.4871
10,1,15,1.5,1.4148,1.4023,3,2.2566,1,1.4086
10,1,16,1.5,1.4281,1.4253,2,2.076,0,0.91083
10,1,17,1.5,1.1735,0.99646,3,1.5515,1,1.6304
10,1,18,1.5,0.54611,1.4286,2,1.5625,1,0.76515
10,1,19,1.5,1.1852,1.6179,2,1.7044,0,0.67049
10,1,20,1.5,1.595,1.3104,3,1.5269,0,1.3391
10,1,21,1.5,1.7133,1.2483,3,2.3165,0,1.3268
10,1,22,1.5,1.9694,1.2749,3,1.0373,1,1.6348
10,1,23,1.5,1.0765,1.2856,2,2.2825,0,1.5505
10,1,24,1.5,1.218,1.1424,3,1.2266,0,0.91526
10,1,25,1.5,1.4728,1.4586,2,1.7629,0,0.61568
10,1,26,1.5,1.0383,1.3954,2,1.4122,1,4.0045
10,1,27,1.5,1.2287,0.94912,2,1.7042,1,0.80683
10,1,28,1.5,0.99079,1.2318,2,4.3915,0,2.0026
10,1,29,1.5,1.141,1.3466,2,1.7128,0,1.3044
10,1,30,1.5,0.85254,1.2526,3,1.1323,0,1.3794
10,1,31,1.5,0.7569,0.9823,3,1.4663,0,0.55361
10,1,32,1.5,0.95565,1.3933,1,2.8009,0,2.7259
10,1,33,1.5,1.7793,1.3633,3,1.5893,1,0.784
10,1,34,1.5,1.4094,1.3833,3,1.1159,0,0.59193
10,1,35,1.5,1.4341,1.2034,3,1.8206,0,0.50695
10,1,36,1.5,1.1196,1.1275,2,2.1743,1,0.96007
10,1,37,1.5,1.2796,1.5031,3,1.2685,1,0.656
10,1,38,1.5,1.05,1.1159,3,1.3042,0,0.62045
10,1,39,1.5,1.4595,0.82447,2,2.5761,0,0.76026
10,1,40,1.5,0.71127,1.7002,2,2.7547,0,0.65424
10,1,41,1.5,0.60989,1.288,2,1.1473,1,0.68952
10,1,42,1.5,0.96089,1.2905,2,1.4361,1,0.64462
10,1,43,1.5,1.0519,1.1779,3,2.2502,0,0.5135
10,1,44,1.5,0.48168,1.025,3,1.5756,0,0.58745
10,1,45,1.5,0.87808,1.2769,2,1.6269,0,0.6146
10,1,46,1.5,0.72408,1.274,2,1.4617,0,0.59854
10,1,47,1.5,1.135,1.5162,2,1.6282,1,2.1268
10,1,48,1.5,1.2112,1.0896,2,1.412,1,0.6162
10,1,49,1.5,0.85754,1.2882,2,1.8587,0,0.72365
10,1,50,1.5,0.96799,0.6131,1,1.6148,0,1.7023
10,1,51,1.5,1.0065,0.96043,3,1.8997,0,0.6772
10,1,52,1.5,0.69183,1.438,3,1.5211,1,0.69502
10,1,53,1.5,0.62236,0.92139,2,1.5103,0,0.55128
10,1,54,1.5,0.52614,1.3483,2,4.6923,1,1.9152
10,1,55,1.5,1.1334,1.0869,1,1.8844,0,0.72861
10,1,56,1.5,1.1847,1.1521,3,2.0564,0,0.609
10,1,57,1.5,1.5164,1.278,2,1.237,1,1.8202
10,1,58,1.5,1.0633,1.5892,3,1.4833,1,1.1294
10,1,59,1.5,0.7385,1.3829,2,4.5403,0,3.1894
10,1,60,1.5,1.9127,1.487,3,1.3958,1,0.91683
11,1,1,1.5,0.4934,1.1598,2,3.2977,1,0.97569
11,1,2,1.5,1.3539,1.2161,3,2.4537,1,1.4173
11,1,3,1.5,2.0091,1.2594,2,2.0756,0,0.87379
11,1,4,1.5,3.2887,0.90133,1,2.2328,0,0.62584
11,1,5,1.5,1.7907,1.4664,2,2.1154,1,0.93078
11,1,6,1.5,2.3527,1.2658,2,2.6408,0,1.609
11,1,7,1.5,1.2796,0.89986,1,2.1432,0,0.88591
11,1,8,1.5,2.1994,1.3854,3,2.7812,1,1.0273
11,1,9,1.5,3.4615,1.0652,1,2.7407,0,0.79612
11,1,10,1.5,1.2412,1.3312,3,2.1148,0,1.643
11,1,11,1.5,2.1435,0.93195,2,2.1785,0,0.91339
11,1,12,1.5,0.32867,0.95028,1,2.5797,0,0.61409
11,1,13,1.5,1.3921,1.1349,3,1.5571,0,0.87262
11,1,14,1.5,1.2932,1.4347,1,2.6179,1,0.75193
11,1,15,1.5,0.90133,0.97741,2,5.4865,0,1.1754
11,1,16,1.5,1.2206,1.0929,3,1.5517,0,0.70501
11,1,17,1.5,0.85859,1.4609,2,1.7766,1,1.1638
11,1,18,1.5,1.7128,1.148,1,1.3038,0,0.69479
11,1,19,1.5,1.1665,1.2006,3,2.6925,0,1.2717
11,1,20,1.5,0.96763,1.2006,2,1.8179,0,1.5416
11,1,21,1.5,0.76175,1.3862,2,2.5326,1,1.0911
11,1,22,1.5,0.76749,1.0789,1,1.8261,0,0.66198
11,1,23,1.5,1.3555,0.54588,1,1.6774,0,0.58901
11,1,24,1.5,0.8633,1.3915,2,4.063,1,0.63417
11,1,25,1.5,0.78012,1.0506,1,2.0557,0,0.66983
11,1,26,1.5,1.5936,0.97154,1,2.8726,0,0.55618
11,1,27,1.5,1.5916,1.2454,1,2.5131,0,0.56428
11,1,28,1.5,2.097,1.2642,1,1.6645,1,0.50214
11,1,29,1.5,1.0577,1.5323,3,1.7772,1,1.9518
11,1,30,1.5,1.9641,1.2915,2,1.937,0,0.50611
11,1,31,1.5,1.9064,1.4655,3,1.7143,0,1.3138
11,1,32,1.5,1.4791,1.3398,2,1.9994,1,0.80181
11,1,33,1.5,1.5667,1.0412,1,1.651,0,0.57918
11,1,34,1.5,4.4635,1.2673,1,0.90467,0,0.54718
11,1,35,1.5,1.9376,1.4497,3,1.7411,0,0.99819
11,1,36,1.5,1.6507,1.4881,3,1.9842,1,0.71624
11,1,37,1.5,1.7333,1.5275,3,1.6727,1,0.52256
11,1,38,1.5,0.99808,1.8066,3,1.3853,1,0.56758
11,1,39,1.5,1.1527,1.5269,2,1.1267,1,0.83911
11,1,40,1.5,0.98635,1.6642,1,1.5254,0,0.53802
11,1,41,1.5,1.0889,1.2299,2,1.7015,0,0.46703
11,1,42,1.5,1.7853,1.7503,2,1.2524,1,0.55673
11,1,43,1.5,1.0194,1.6517,2,4.5164,1,2.3615
11,1,44,1.5,1.3883,1.6435,3,1.6379,0,0.87048
11,1,45,1.5,1.7696,1.6388,3,1.9474,1,0.99046
11,1,46,1.5,2.8216,1.0481,2,1.2533,0,0.59609
11,1,47,1.5,1.9903,1.1438,2,1.691,0,0.53603
11,1,48,1.5,1.2755,1.6863,3,1.0315,1,0.65252
11,1,49,1.5,2.0773,1.4084,2,1.9875,0,0.51917
11,1,50,1.5,1.141,1.4594,2,2.1125,1,0.60202
11,1,51,1.5,1.2573,1.4485,2,1.6523,1,0.5933
11,1,52,1.5,0.57064,1.2672,3,1.5433,1,0.90005
11,1,53,1.5,0.86422,1.2507,2,1.9181,0,0.65426
11,1,54,1.5,0.79321,1.4131,3,1.1269,1,0.58941
11,1,55,1.5,1.3998,1.4986,2,1.5894,1,0.78537
11,1,56,1.5,1.3981,1.4048,2,2.5213,0,0.81831
11,1,57,1.5,0.45624,1.9456,1,1.939,1,0.65946
11,1,58,1.5,0.94589,1.2019,3,1.2575,0,1.3992
11,1,59,1.5,2.1035,1.4871,2,1.9581,1,0.71143
11,1,60,1.5,1.0709,1.1708,3,1.5214,1,0.73303
12,1,1,1.5,1.219,1.0916,3,9.588,0,3.4012
12,1,2,1.5,1.0385,1.4299,3,10.975,0,2.8642
12,1,3,1.5,2.1111,1.2749,2,2.8122,0,1.3754
12,1,4,1.5,1.2955,1.3995,2,10.854,0,2.7135
12,1,5,1.5,0.81978,1.3773,2,3.1647,1,3.5388
12,1,6,1.5,0.84605,1.3508,3,3.6424,1,3.3564
12,1,7,1.5,1.039,1.3096,2,4.514,1,2.3213
12,1,8,1.5,0.86498,1.3698,2,3.7566,1,2.2167
12,1,9,1.5,0.63776,1.3828,3,2.7158,0,1.7529
12,1,10,1.5,0.74259,1.488,2,3.7457,0,0.85966
12,1,11,1.5,0.72841,1.663,3,2.8361,1,1.4532
12,1,12,1.5,0.83234,1.537,1,5.5698,0,1.3243
12,1,13,1.5,0.8455,1.3502,2,2.2807,1,0.75246
12,1,14,1.5,0.23428,1.276,1,1.951,1,0.89155
12,1,15,1.5,0.70848,1.1475,2,1.8151,0,0.83828
12,1,16,1.5,0.76722,1.3661,2,1.5659,0,1.828
12,1,17,1.5,0.65212,1.4427,3,2.5878,0,1.8922
12,1,18,1.5,0.66571,1.1755,2,2.526,0,1.0357
12,1,19,1.5,0.58137,1.3379,3,2.7711,1,2.2802
12,1,20,1.5,0.69286,1.2869,2,2.0966,0,0.69018
12,1,21,1.5,0.57458,1.0848,2,2.5684,0,0.96481
12,1,22,1.5,0.79206,1.7001,2,1.4161,1,0.66611
12,1,23,1.5,0.57999,1.6754,2,1.7624,1,0.65292
12,1,24,1.5,0.60102,1.5548,2,3.5841,0,1.2517
12,1,25,1.5,0.60224,1.2074,3,2.1256,0,0.64739
12,1,26,1.5,0.6397,1.4597,3,1.6886,0,0.87039
12,1,27,1.5,0.61362,1.6285,2,1.698,0,1.1513
12,1,28,1.5,0.58805,1.1934,1,4.501,0,0.85129
12,1,29,1.5,0.7422,1.5484,2,1.7408,1,2.0857
12,1,30,1.5,0.58147,1.4397,1,3.248,0,0.88831
12,1,31,1.5,0.69691,1.418,2,1.969,1,0.71627
12,1,32,1.5,0.72299,1.322,3,1.9465,0,0.76598
12,1,33,1.5,0.65812,1.5747,2,1.7362,1,1.6439
12,1,34,1.5,0.46539,1.3039,2,1.859,0,0.64829
12,1,35,1.5,0.53634,1.3088,1,2.4757,1,3.31
12,1,36,1.5,0.53706,1.4083,3,4.3745,1,0.79145
12,1,37,1.5,0.71722,1.3408,2,1.4866,1,0.50677
12,1,38,1.5,0.55597,1.1325,2,1.254,1,1.2843
12,1,39,1.5,0.56794,1.3682,2,1.5173,1,0.5042
12,1,40,1.5,0.60632,1.6942,1,3.5134,1,0.82429
12,1,41,1.5,0.65344,1.305,2,1.3964,0,0.60498
12,1,42,1.5,0.58049,1.5552,2,1.7218,0,0.73231
12,1,43,1.5,0.55607,1.2576,2,1.1253,1,0.53859
12,1,44,1.5,0.56871,1.406,3,1.7349,0,0.70507
12,1,45,1.5,0.45908,1.689,3,1.3723,0,1.8724
12,1,46,1.5,0.56854,1.5522,2,1.344,1,0.56449
12,1,47,1.5,0.57002,1.1837,2,1.8183,0,0.69191
12,1,48,1.5,0.49068,1.4709,3,1.2573,1,1.2998
12,1,49,1.5,0.53618,1.4657,2,1.2784,1,0.64003
12,1,50,1.5,1.5079,0.92306,3,1.6379,1,1.1952
12,1,51,1.5,0.58201,1.2873,2,2.1587,0,0.59784
12,1,52,1.5,0.51103,1.4279,3,1.7147,0,0.58893
12,1,53,1.5,0.50296,1.0697,2,3.1968,0,1.9989
12,1,54,1.5,0.63398,1.615,3,1.4392,1,0.68493
12,1,55,1.5,0.55577,1.0824,2,1.3415,1,0.80062
12,1,56,1.5,0.41447,1.6241,2,1.1857,0,0.59545
12,1,57,1.5,0.51624,1.8512,3,1.8163,0,0.71478
12,1,58,1.5,0.52471,1.6253,2,1.5001,1,0.77877
12,1,59,1.5,0.52411,1.3617,1,2.0734,1,0.80902
12,1,60,1.5,0.51798,1.3399,2,2.2117,1,1.5377
13,1,1,1.5,3.8442,1.0358,2,3.1954,0,0.74575
13,1,2,1.5,1.7677,1.1005,2,2.2993,0,0.49361
13,1,3,1.5,1.7003,1.6763,2,4.7744,1,2.903
13,1,4,1.5,2.8908,0.85754,2,2.3796,0,0.7483
13,1,5,1.5,2.4466,1.005,1,3.5581,0,1.2187
13,1,6,1.5,2.025,1.3327,2,1.5858,0,0.20664
13,1,7,1.5,3.6259,1.1093,2,2.1555,0,0.38817
13,1,8,1.5,3.5314,0.8491,2,5.1897,0,1.8071
13,1,9,1.5,0.14333,1.4245,2,1.6572,0,0.2177
13,1,10,1.5,1.8026,1.608,3,2.5681,0,2.7572
13,1,11,1.5,1.6432,1.5498,2,0.91275,0,1.0008
13,1,12,1.5,2.2217,1.6008,2,1.0018,0,0.36419
13,1,13,1.5,0.67154,1.3507,2,1.5955,0,0.25406
13,1,14,1.5,0.58719,1.2381,2,1.2726,1,2.2424
13,1,15,1.5,0.46082,1.1578,2,1.2645,0,4.2649
13,1,16,1.5,1.8581,1.7782,2,1.4911,0,0.61059
13,1,17,1.5,3.1678,0.69686,2,3.4647,1,1.6369
13,1,18,1.5,0.67467,1.5339,2,5.4343,0,0.39754
13,1,19,1.5,0.81079,1.1889,2,1.0264,1,2.7527
13,1,20,1.5,0.79139,1.3325,2,2.4651,0,2.291
13,1,21,1.5,0.58392,1.461,2,1.559,1,0.56648
13,1,22,1.5,1.2275,1.3032,2,0.9905,1,0.66838
13,1,23,1.5,1.1898,1.2511,2,1.337,1,0.6689
13,1,24,1.5,0.66802,1.2011,2,1.3804,0,0.73145
13,1,25,1.5,0.51085,1.4474,2,1.1125,0,1.6509
13,1,26,1.5,0.70482,1.2452,2,1.0428,0,0.53567
13,1,27,1.5,1.1707,1.3114,2,0.82176,0,0.50889
13,1,28,1.5,0.11371,1.5488,2,0.71984,0,0.63147
13,1,29,1.5,0.59222,1.3813,2,1.969,0,0.61965
13,1,30,1.5,4.8115,1.4197,2,0.90996,0,5.5993
13,1,31,1.5,1.3846,1.446,2,0.77478,0,0.44447
13,1,32,1.5,0.75681,1.5758,2,0.99512,0,0.24683
13,1,33,1.5,0.7211,1.8344,2,0.77918,0,0.21243
13,1,34,1.5,1.3562,0.84914,2,0.70627,0,0.27379
13,1,35,1.5,0.62324,1.2469,2,0.57177,0,0.30783
13,1,36,1.5,0.63501,1.2936,2,0.46889,0,1.0637
13,1,37,1.5,0.59768,1.8556,2,1.0365,1,0.58042
13,1,38,1.5,0.3416,1.54,2,0.73553,1,0.6528
13,1,39,1.5,0.9678,1.2215,2,2.0837,0,0.73166
13,1,40,1.5,0.58443,1.3921,2,0.51256,0,0.85494
13,1,41,1.5,0.5548,1.2498,2,4.6434,0,1.9822
13,1,42,1.5,0.58049,1.506,2,0.90337,0,0.62439
13,1,43,1.5,0.63064,1.7764,2,2.0758,0,0.22821
13,1,44,1.5,0.50201,1.7457,2,0.40184,0,0.29987
13,1,45,1.5,0.37926,1.7469,2,0.51576,0,0.28514
13,1,46,1.5,0.43804,1.5106,2,2.4819,0,0.30104
13,1,47,1.5,2.1236,1.5073,2,1.2646,1,0.74273
13,1,48,1.5,2.1362,1.2052,2,1.2163,0,0.4629
13,1,49,1.5,2.3511,1.5608,2,1.1647,0,0.73259
13,1,50,1.5,3.2016,1.3232,2,0.94921,0,0.71035
13,1,51,1.5,0.621,3.3918,1,5.7253,1,1.3816
13,1,52,1.5,2.6412,1.1853,2,2.3958,0,1.2297
13,1,53,1.5,2.5694,1.3327,2,0.85628,0,0.24113
13,1,54,1.5,0.70956,1.4061,2,0.38448,0,0.90807
13,1,55,1.5,1.6639,1.2516,2,3.1022,0,0.13449
13,1,56,1.5,0.62274,1.3248,2,1.1855,0,0.30801
13,1,57,1.5,0.65004,1.346,2,0.61747,0,0.25822
13,1,58,1.5,1.364,1.4827,2,0.98987,0,0.15129
13,1,59,1.5,1.2144,1.4227,2,1.7794,0,0.69343
13,1,60,1.5,0.48631,1.3211,2,1.7119,1,0.82769
14,1,1,1.5,2.8572,1.425,2,2.9376,0,2.0531
14,1,2,1.5,1.7119,1.3508,2,3.668,1,2.5404
14,1,3,1.5,1.6304,1.2994,3,1.7904,0,1.4735
14,1,4,1.5,1.3272,1.4376,3,1.4574,0,1.787
14,1,5,1.5,1.529,1.2513,3,1.5319,0,1.3652
14,1,6,1.5,1.3262,1.473,3,1.3351,1,1.2316
14,1,7,1.5,0.79277,1.4982,2,2.5891,1,1.1695
14,1,8,1.5,1.0127,1.2625,3,1.3877,1,1.6592
14,1,9,1.5,0.79325,1.7985,3,2.1401,0,2.0578
14,1,10,1.5,1.5216,1.4701,2,1.3314,1,1.041
14,1,11,1.5,1.5083,1.255,3,1.6605,0,1.5142
14,1,12,1.5,0.69646,1.575,3,1.6623,0,1.6135
14,1,13,1.5,0.9992,1.4882,3,1.7703,0,1.6453
14,1,14,1.5,0.62642,1.4632,3,1.4392,0,1.6589
14,1,15,1.5,0.91006,1.1742,2,1.0131,0,1.2145
14,1,16,1.5,0.69086,1.6374,3,3.1441,0,1.5727
14,1,17,1.5,0.67182,1.3804,3,3.1508,1,1.2286
14,1,18,1.5,2.8451,1.1185,1,3.2063,0,1.4931
14,1,19,1.5,0.57707,1.7892,2,1.9839,1,1.4524
14,1,20,1.5,2.0909,2.0939,2,5.5386,1,1.2007
14,1,21,1.5,0.61476,1.2226,2,1.0728,1,1.3117
14,1,22,1.5,0.61529,1.4408,3,2.0869,0,1.7189
14,1,23,1.5,0.57632,1.5711,3,2.596,1,0.87552
14,1,24,1.5,1.3131,1.0253,3,1.1896,1,0.74887
14,1,25,1.5,0.74435,0.77509,2,2.8765,0,2.3105
14,1,26,1.5,0.67346,1.9198,2,1.5436,1,0.78834
14,1,27,1.5,0.69973,1.2403,3,1.4496,0,1.6277
14,1,28,1.5,0.52432,1.1826,3,1.3421,0,0.70115
14,1,29,1.5,0.60876,1.1733,3,1.4486,0,0.66555
14,1,30,1.5,0.41443,1.2155,2,1.6778,1,0.7014
14,1,31,1.5,0.54502,1.4242,2,1.6869,1,1.8562
14,1,32,1.5,0.53051,1.0554,3,1.9231,1,0.90999
14,1,33,1.5,0.5816,1.377,3,1.3027,1,0.83253
14,1,34,1.5,0.69268,1.2747,2,0.81355,1,0.89064
14,1,35,1.5,0.65333,1.1954,3,2.7116,1,0.88721
14,1,36,1.5,0.61488,1.335,3,1.1688,0,1.694
14,1,37,1.5,0.57551,1.5386,2,1.3472,1,1.2769
14,1,38,1.5,0.80678,1.2586,3,1.5873,1,1.1955
14,1,39,1.5,0.57017,1.3789,2,1.0488,1,1.9666
14,1,40,1.5,0.57706,1.1747,3,1.213,1,0.87552
14,1,41,1.5,2.3641,1.3643,1,1.3517,0,1.2318
14,1,42,1.5,0.4726,1.3201,2,1.0318,0,0.79154
14,1,43,1.5,0.65965,1.3138,2,1.4527,0,1.031
14,1,44,1.5,0.9933,1.2632,3,1.1769,0,0.86379
14,1,45,1.5,0.66678,1.2867,3,1.0578,1,1.4507
14,1,46,1.5,0.55523,1.0844,2,1.9187,0,1.2419
14,1,47,1.5,0.63543,1.6061,2,3.1348,0,1.1543
14,1,48,1.5,1.7729,1.2562,3,0.93573,0,0.7084
14,1,49,1.5,0.56895,1.4453,3,0.78581,1,1.0221
14,1,50,1.5,1.1056,1.6087,2,1.3867,0,1.5834
14,1,51,1.5,0.63465,1.7655,3,1.2643,1,1.2146
14,1,52,1.5,0.69962,1.4526,3,1.0439,1,0.75311
14,1,53,1.5,0.53637,1.6067,3,0.96071,1,0.928
14,1,54,1.5,0.60215,1.5831,2,1.0405,1,0.66159
14,1,55,1.5,0.6604,1.5085,1,1.1512,0,1.7302
14,1,56,1.5,0.60811,1.5136,2,0.90039,1,0.84358
14,1,57,1.5,0.58385,1.5009,2,1.3417,1,0.88827
14,1,58,1.5,0.52617,1.5254,3,1.4389,0,0.70939
14,1,59,1.5,0.60826,0.68268,1,1.544,0,0.78918
14,1,60,1.5,0.62307,1.3871,3,1.0706,0,0.72048
15,1,1,1.5,2.7773,1.3512,3,2.0109,0,1.5925
15,1,2,1.5,1.5606,0.99729,2,1.5125,1,1.7865
15,1,3,1.5,1.0881,1.2184,2,2.1969,0,1.9106
15,1,4,1.5,1.6506,1.016,1,3.3148,0,0.9857
15,1,5,1.5,0.54083,1.7622,2,1.4468,1,0.79786
15,1,6,1.5,0.32367,2.8417,1,1.812,1,1.087
15,1,7,1.5,1.9002,1.2833,2,2.2749,0,1.949
15,1,8,1.5,1.2232,1.541,3,2.9861,0,2.6322
15,1,9,1.5,0.25893,1.4156,2,1.5932,0,1.2325
15,1,10,1.5,0.9131,1.6331,1,4.3817,1,1.4083
15,1,11,1.5,0.97269,1.008,1,1.8851,0,0.7878
15,1,12,1.5,1.4355,1.5376,2,1.2822,1,1.0603
15,1,13,1.5,1.1758,1.6909,2,1.2298,1,0.8983
15,1,14,1.5,1.0668,1.4275,3,1.7409,1,1.3761
15,1,15,1.5,0.98252,1.7662,2,3.3348,1,0.80895
15,1,16,1.5,0.85096,0.58775,1,1.9034,0,0.6679
15,1,17,1.5,0.94623,1.4556,3,1.7337,0,2.8919
15,1,18,1.5,1.1861,1.7222,2,2.8797,0,1.8498
15,1,19,1.5,1.4466,0.77614,2,1.7401,0,1.1621
15,1,20,1.5,1.4912,1.9775,2,2.2318,1,0.76357
15,1,21,1.5,1.6182,1.847,2,1.9983,1,0.72043
15,1,22,1.5,1.4129,1.182,3,1.22,0,0.9416
15,1,23,1.5,0.96209,1.6754,1,2.9069,1,1.3824
15,1,24,1.5,0.80605,1.4668,3,1.4976,0,1.5858
15,1,25,1.5,1.2399,1.5779,3,3.516,0,1.1561
15,1,26,1.5,0.8288,2.4088,2,2.2995,1,0.70708
15,1,27,1.5,0.84284,2.0242,1,4.4803,1,1.8108
15,1,28,1.5,0.79542,0.72255,1,1.7371,0,0.819
15,1,29,1.5,1.3255,2.7524,2,1.7731,1,0.81059
15,1,30,1.5,0.79994,1.4077,3,1.2874,0,0.96636
15,1,31,1.5,0.99536,0.93442,1,1.437,0,0.62517
15,1,32,1.5,0.60682,1.3895,3,1.2402,0,1.8504
15,1,33,1.5,1.4871,1.4849,3,1.7189,0,1.0254
15,1,34,1.5,0.73248,0.89116,1,1.6571,0,0.94821
15,1,35,1.5,1.2684,1.4964,2,1.6015,0,1.1335
15,1,36,1.5,0.69852,1.4963,2,2.2294,1,0.92505
15,1,37,1.5,0.059959,1.6631,2,2.254,0,1.56
15,1,38,1.5,0.85437,0.77866,2,1.4787,0,0.55871
15,1,39,1.5,0.72805,1.3643,2,3.3901,0,0.56713
15,1,40,1.5,1.1291,1.2261,3,2.3117,0,0.96149
15,1,41,1.5,1.3776,1.6992,3,1.3278,0,0.99698
15,1,42,1.5,1.2982,1.7248,2,1.68,0,0.96369
15,1,43,1.5,0.73401,1.3513,2,2.4057,1,1.3371
15,1,44,1.5,1.0018,1.3741,3,1.0378,1,1.3185
15,1,45,1.5,0.7309,1.9398,2,1.8123,1,1.4914
15,1,46,1.5,0.72914,2.0707,1,1.9213,1,1.3274
15,1,47,1.5,1.888,1.7651,2,1.6023,0,0.62215
15,1,48,1.5,1.0145,1.5744,3,1.14,1,0.87122
15,1,49,1.5,0.83358,1.2725,2,1.2173,1,2.2299
15,1,50,1.5,0.85624,1.7732,1,1.6781,0,2.1799
15,1,51,1.5,0.8272,0.8565,2,1.4439,0,1.5828
15,1,52,1.5,0.97248,1.7343,3,0.84064,1,1.884
15,1,53,1.5,1.0155,1.3665,3,1.3568,1,1.5829
15,1,54,1.5,1.316,1.6369,3,0.94367,1,1.3587
15,1,55,1.5,0.96299,1.1698,3,1.3492,0,1.1934
15,1,56,1.5,1.2196,1.5714,3,1.7893,0,0.83337
15,1,57,1.5,0.66803,1.3995,2,1.368,1,1.0102
15,1,58,1.5,1.1616,0.88661,3,1.9019,0,1.2627
15,1,59,1.5,0.71926,1.5423,2,1.7491,1,1.1914
15,1,60,1.5,0.34541,1.2623,3,1.3649,1,0.88907
16,1,1,1.5,2.0926,5.0827,1,1.4849,1,2.2809
16,1,2,1.5,0.57787,1.764,3,0.83864,1,1.6358
16,1,3,1.5,0.45461,1.63,2,0.92587,0,1.2769
16,1,4,1.5,1.3429,1.6588,3,1.049,1,1.4924
16,1,5,1.5,0.98686,1.7066,3,0.89893,1,0.8792
16,1,6,1.5,0.86481,1.5158,3,1.5787,0,0.61462
16,1,7,1.5,1.02,1.9157,2,0.71342,0,0.49144
16,1,8,1.5,2.0683,2.0793,3,0.46076,1,0.38914
16,1,9,1.5,0.66318,1.5007,2,1.2042,0,0.67195
16,1,10,1.5,0.76645,2.1508,2,1.7657,1,0.46364
16,1,11,1.5,0.53326,1.2766,3,0.5724,0,0.78783
16,1,12,1.5,0.39081,1.5738,3,0.36001,1,0.35569
16,1,13,1.5,0.33889,2.1344,3,0.7654,1,0.42868
16,1,14,1.5,0.41162,1.5617,2,0.45375,0,0.60992
16,1,15,1.5,0.39011,1.4602,3,0.45182,0,0.49602
16,1,16,1.5,0.5451,1.6917,3,1.1736,1,0.21229
16,1,17,1.5,0.44308,1.6129,2,0.93801,1,0.32153
16,1,18,1.5,0.36408,1.5512,2,0.79232,0,0.36452
16,1,19,1.5,0.37862,1.2653,3,0.91515,1,0.46606
16,1,20,1.5,0.37203,1.3317,1,1.3035,0,0.4445
16,1,21,1.5,0.33853,1.4079,2,0.18799,1,0.21137
16,1,22,1.5,0.65025,1.6044,3,0.89573,1,0.35112
16,1,23,1.5,0.37161,1.6551,3,0.44553,0,0.31485
16,1,24,1.5,0.42999,1.6275,2,1.0255,0,0.55115
16,1,25,1.5,0.62386,1.4954,3,1.0989,0,0.76619
16,1,26,1.5,0.48117,1.589,2,0.33387,0,0.45849
16,1,27,1.5,0.42442,1.7083,3,0.88678,1,0.5595
16,1,28,1.5,0.50059,1.6389,2,0.32177,0,0.81318
16,1,29,1.5,0.45584,1.4204,3,0.65684,1,0.73866
16,1,30,1.5,0.38497,1.389,2,0.22185,0,0.33808
16,1,31,1.5,0.43683,1.8311,3,0.28884,1,0.17547
16,1,32,1.5,0.42893,1.4743,2,0.46303,0,0.32824
16,1,33,1.5,0.44891,1.3231,3,0.31191,1,0.31454
16,1,34,1.5,0.29965,1.3691,2,0.43122,0,0.44148
16,1,35,1.5,0.6241,0.32444,1,0.7358,0,0.59615
16,1,36,1.5,0.35933,1.3633,2,0.30169,1,0.70828
16,1,37,1.5,0.42983,1.3789,2,0.45018,0,0.38213
16,1,38,1.5,0.68857,1.6098,2,0.58853,1,0.38552
16,1,39,1.5,0.37237,1.4374,2,0.78286,1,0.53045
16,1,40,1.5,0.53411,1.4046,2,1.0087,0,1.027
16,1,41,1.5,0.35198,1.5073,2,3.6249,1,1.1797
16,1,42,1.5,0.7327,2.2508,2,1.1399,1,1.2611
16,1,43,1.5,0.45435,1.7076,3,1.1484,1,1.1416
16,1,44,1.5,0.43671,1.5548,2,1.4843,0,0.82897
16,1,45,1.5,0.25539,1.3367,3,0.79542,1,1.0766
16,1,46,1.5,0.38348,1.7036,2,1.4832,0,1.0779
16,1,47,1.5,0.36489,1.7164,3,2.5032,0,1.1665
16,1,48,1.5,0.51371,0.55488,1,0.86185,0,0.97706
16,1,49,1.5,0.34485,1.4243,3,1.1996,1,1.8919
16,1,50,1.5,0.2863,1.8328,3,0.42692,1,0.22642
16,1,51,1.5,1.5239,1.5835,2,2.0303,0,0.24076
16,1,52,1.5,0.47477,0.37303,1,0.86406,0,1.0401
16,1,53,1.5,0.83748,1.0826,3,1.0421,1,0.80145
16,1,54,1.5,0.41082,1.7044,3,1.1325,1,0.41722
16,1,55,1.5,0.51835,1.2816,3,0.66522,0,1.0552
16,1,56,1.5,0.39033,0.91074,3,0.97512,0,0.61355
16,1,57,1.5,0.51907,1.3796,2,0.88696,0,1.0716
16,1,58,1.5,0.50705,1.5741,3,0.24874,1,0.21957
16,1,59,1.5,0.4568,0.96056,3,0.74834,1,0.42955
16,1,60,1.5,0.44888,2.0136,1,2.3112,1,0.86311
17,1,1,1.5,0.94174,2.0484,2,1.6387,1,1.2089
17,1,2,1.5,0.96149,2.5763,2,1.4863,0,1.8062
17,1,3,1.5,0.93517,1.9554,3,1.2964,1,1.3299
17,1,4,1.5,1.0126,1.5872,1,2.0195,0,1.7554
17,1,5,1.5,0.70951,1.5996,2,1.5284,0,1.8518
17,1,6,1.5,1.0124,1.4879,2,1.9838,1,1.6278
17,1,7,1.5,0.64636,2.24,2,1.5957,1,1.0408
17,1,8,1.5,0.91664,1.366,2,1.8162,0,1.7271
17,1,9,1.5,0.82543,1.8626,2,1.4778,1,1.1143
17,1,10,1.5,1.1813,1.5809,2,1.764,0,2.3295
17,1,11,1.5,1.1066,2.2338,1,2.0776,1,2.4875
17,1,12,1.5,0.58836,1.572,2,1.3704,1,1.0083
17,1,13,1.5,0.76284,1.4138,3,1.1897,0,2.1602
17,1,14,1.5,0.9865,1.7034,2,1.7067,0,1.7228
17,1,15,1.5,1.4683,1.8237,1,1.7101,1,1.9388
17,1,16,1.5,0.62008,1.9781,3,1.9885,0,2.2578
17,1,17,1.5,0.75525,1.4216,3,1.4842,1,1.6172
17,1,18,1.5,0.63309,1.9906,2,1.8974,1,1.0802
17,1,19,1.5,0.93293,2.0537,3,1.9178,1,2.3797
17,1,20,1.5,0.81791,1.0552,2,1.5981,0,1.2271
17,1,21,1.5,0.5687,1.7813,3,1.4642,0,1.151
17,1,22,1.5,0.5677,1.1397,3,1.2241,0,2.0863
17,1,23,1.5,0.52514,2.0759,2,1.3117,0,1.4291
17,1,24,1.5,0.5691,1.3326,3,2.0294,0,1.1634
17,1,25,1.5,0.70303,0.88245,3,1.2298,1,2.0889
17,1,26,1.5,0.49157,1.3352,3,1.1062,0,1.3249
17,1,27,1.5,0.53662,1.8953,2,1.6886,0,1.4345
17,1,28,1.5,0.56208,2.0395,3,1.1335,1,1.393
17,1,29,1.5,0.53682,1.9436,3,1.1129,0,2.3515
17,1,30,1.5,0.64725,1.6942,3,1.1266,1,1.063
17,1,31,1.5,3.7468,2.434,1,2.252,0,1.7785
17,1,32,1.5,0.86482,1.8326,3,1.4135,0,1.5264
17,1,33,1.5,0.61322,1.3557,3,1.1853,0,1.2559
17,1,34,1.5,0.56271,1.8039,2,1.1182,1,1.1575
17,1,35,1.5,1.0958,1.5486,2,1.2645,0,2.9017
17,1,36,1.5,0.73532,1.5512,2,1.6184,0,0.94266
17,1,37,1.5,0.46034,2.0119,3,1.1126,1,1.1521
17,1,38,1.5,0.78142,1.5622,3,1.0994,0,1.0919
17,1,39,1.5,0.61399,1.4932,2,1.2877,0,1.2347
17,1,40,1.5,0.63333,1.4135,3,1.1263,0,1.0517
17,1,41,1.5,0.84687,1.3766,3,1.0759,0,0.90227
17,1,42,1.5,0.46609,1.9395,3,1.0961,0,0.9259
17,1,43,1.5,0.75361,1.4028,3,1.182,0,0.80343
17,1,44,1.5,0.52282,1.6602,3,1.213,1,1.6268
17,1,45,1.5,0.38906,1.6234,2,1.2973,0,0.77727
17,1,46,1.5,0.44723,1.389,3,1.6977,1,1.1378
17,1,47,1.5,0.49154,1.3233,2,1.3861,0,1.4447
17,1,48,1.5,0.37634,1.4617,3,1.2984,0,1.0533
17,1,49,1.5,0.40732,1.8469,3,1.3875,1,1.0086
17,1,50,1.5,0.54371,1.8139,3,1.1134,0,0.83831
17,1,51,1.5,0.63287,1.3678,3,1.0678,0,1.7925
17,1,52,1.5,0.51702,1.6768,2,1.3386,0,1.0964
17,1,53,1.5,1.0433,1.1493,2,1.5175,0,1.3288
17,1,54,1.5,0.67797,1.0641,3,1.2275,0,1.2278
17,1,55,1.5,0.61462,1.2986,3,1.1656,0,1.0541
17,1,56,1.5,0.36949,1.1658,3,1.079,0,0.80486
17,1,57,1.5,0.41622,1.3529,2,1.3206,0,0.81971
17,1,58,1.5,0.37525,1.9009,2,1.379,1,0.79285
17,1,59,1.5,0.6531,1.6405,2,1.148,0,1.2146
17,1,60,1.5,0.38288,1.8257,1,1.4623,0,1.1417
18,1,1,1.5,1.1133,1.4888,1,2.284,0,1.4649
18,1,2,1.5,1.1578,0.89536,2,1.8887,0,1.3958
18,1,3,1.5,0.63332,1.2021,2,1.4322,1,2.2022
18,1,4,1.5,1.1067,1.2688,2,2.532,0,0.71631
18,1,5,1.5,1.1176,1.9529,1,1.3181,1,0.61878
18,1,6,1.5,0.85641,0.61808,1,1.583,0,1.1646
18,1,7,1.5,0.83778,1.2561,1,0.93558,1,1.2203
18,1,8,1.5,0.76748,1.4395,2,0.94725,0,1.3033
18,1,9,1.5,0.60387,0.65686,2,1.95,0,0.66476
18,1,10,1.5,0.41023,1.3281,3,1.062,0,1.2793
18,1,11,1.5,0.88337,1.4241,3,0.81086,1,0.85558
18,1,12,1.5,0.43595,0.91956,2,1.308,0,0.67557
18,1,13,1.5,0.34729,1.1484,1,0.90326,0,1.6458
18,1,14,1.5,0.94687,1.1501,3,6.4048,0,0.66036
18,1,15,1.5,0.97393,1.024,1,3.9001,0,0.92619
18,1,16,1.5,0.96888,1.4672,1,2.229,1,0.68954
18,1,17,1.5,0.69873,1.1894,3,2.6983,0,1.2652
18,1,18,1.5,0.76854,1.1924,2,3.5761,0,1.0442
18,1,19,1.5,0.78694,1.57,2,1.4204,1,0.48264
18,1,20,1.5,0.86329,1.3044,1,1.0588,1,1.2645
18,1,21,1.5,0.79923,0.85434,1,1.9849,0,0.74085
18,1,22,1.5,0.8002,1.1919,2,1.3133,1,1.1636
18,1,23,1.5,0.71776,1.0889,2,2.2598,1,0.59952
18,1,24,1.5,0.71236,1.2912,1,2.5246,0,1.6093
18,1,25,1.5,0.61469,1.5981,1,1.2636,1,0.47683
18,1,26,1.5,0.6999,1.1296,2,0.98888,0,1.2236
18,1,27,1.5,0.77407,1.3826,3,1.9041,0,1.669
18,1,28,1.5,0.68016,1.2645,3,1.3017,0,0.89397
18,1,29,1.5,0.75031,1.2176,2,1.806,0,0.49634
18,1,30,1.5,0.76318,1.2178,2,1.5688,0,0.56732
18,1,31,1.5,0.6091,1.4997,1,3.4669,1,0.50085
18,1,32,1.5,0.65888,1.0836,1,2.0295,0,0.6777
18,1,33,1.5,0.60803,1.3116,2,1.3,0,1.0285
18,1,34,1.5,1.0173,2.0258,3,1.8368,0,0.58159
18,1,35,1.5,0.97373,0.93337,1,3.3189,0,0.59213
18,1,36,1.5,0.71129,0.91282,1,2.9881,0,0.56678
18,1,37,1.5,0.7676,1.0631,2,2.8521,1,2.1399
18,1,38,1.5,0.76354,1.3389,2,1.6103,0,2.1254
18,1,39,1.5,0.64082,1.0716,2,1.297,1,0.71389
18,1,40,1.5,0.64226,1.3232,1,0.88603,0,0.73406
18,1,41,1.5,0.5117,0.68801,1,1.4115,0,0.9652
18,1,42,1.5,0.40505,0.98315,1,1.2431,0,0.80161
18,1,43,1.5,0.60309,1.2661,2,1.4782,0,2.339
18,1,44,1.5,1.063,1.3169,3,3.192,1,0.80741
18,1,45,1.5,0.61602,0.97566,3,1.2891,0,0.89922
18,1,46,1.5,0.60255,1.3672,3,2.7919,0,2.0467
18,1,47,1.5,0.6404,1.4215,1,1.0714,1,0.60886
18,1,48,1.5,0.49435,0.76096,1,1.0873,0,1.2228
18,1,49,1.5,0.78049,1.8179,1,1.9913,1,0.59693
18,1,50,1.5,0.64143,1.1843,2,1.3437,0,1.1255
18,1,51,1.5,0.507,1.1611,3,1.0612,0,0.6047
18,1,52,1.5,0.64079,1.0721,3,1.8605,1,1.6385
18,1,53,1.5,0.54636,1.2895,2,1.3721,1,2.6225
18,1,54,1.5,0.57073,1.109,3,3.8007,1,1.6527
18,1,55,1.5,0.59122,1.6972,2,1.3635,1,1.9385
18,1,56,1.5,0.59134,1.061,1,1.637,0,0.85733
18,1,57,1.5,0.59064,1.0742,3,2.3,0,1.1773
18,1,58,1.5,0.76255,1.0492,2,1.2669,0,1.1303
18,1,59,1.5,0.57125,1.2467,3,2.339,0,1.3826
18,1,60,1.5,0.66767,1.4767,2,3.014,0,0.52648
19,1,1,1.5,1.9419,1.1946,1,5.0986,0,2.433
19,1,2,1.5,0.73309,1.23,2,3.9891,0,6.402
19,1,3,1.5,0.63385,2.0182,1,2.2536,1,0.79221
19,1,4,1.5,0.42386,1.3621,3,3.0617,0,1.162
19,1,5,1.5,0.35418,1.2928,2,2.2136,0,0.94033
19,1,6,1.5,0.43041,1.2523,1,2.2197,0,1.6914
19,1,7,1.5,1.9453,1.4098,2,1.9641,1,1.0167
19,1,8,1.5,1.1529,1.9668,1,2.5395,1,1.2322
19,1,9,1.5,4.5793,0.88874,2,2.4354,0,1.0911
19,1,10,1.5,0.34222,1.3588,2,2.0516,0,1.0666
19,1,11,1.5,0.89103,1.3566,2,1.6244,1,0.9854
19,1,12,1.5,0.98732,1.2453,2,1.9615,0,0.93885
19,1,13,1.5,1.3149,0.95214,1,3.258,0,0.50712
19,1,14,1.5,4.5542,0.97223,2,3.2498,0,0.58835
19,1,15,1.5,4.3242,0.9932,2,3.2142,0,1.2131
19,1,16,1.5,1.2578,1.12,2,2.7578,0,1.4585
19,1,17,1.5,0.78908,1.1202,2,4.7591,0,1.3916
19,1,18,1.5,0.51406,1.3913,2,3.4997,1,1.4762
19,1,19,1.5,0.8018,1.1805,3,5.6134,0,2.0928
19,1,20,1.5,0.7946,1.3153,2,3.0152,0,1.4405
19,1,21,1.5,0.95365,1.0814,2,1.6407,0,0.62312
19,1,22,1.5,0.67941,1.0914,2,1.5132,0,0.62967
19,1,23,1.5,1.0661,1.4136,2,4.2895,1,1.3142
19,1,24,1.5,0.93004,1.0175,2,4.2065,0,0.61408
19,1,25,1.5,1.3206,1.1437,1,4.8857,1,1.0383
19,1,26,1.5,0.58354,1.5164,2,5.142,1,2.4389
19,1,27,1.5,0.5267,1.5529,2,2.8181,1,1.1391
19,1,28,1.5,0.82669,1.2131,2,2.7521,0,1.1272
19,1,29,1.5,0.58999,0.99786,1,4.6908,0,0.50186
19,1,30,1.5,0.60966,1.3093,2,3.5018,1,0.59185
19,1,31,1.5,0.84015,1.0836,1,2.3421,0,0.62274
19,1,32,1.5,0.44514,1.3498,3,4.9921,1,1.4144
19,1,33,1.5,0.90408,1.2582,1,1.9511,0,0.40275
19,1,34,1.5,0.5973,1.1184,2,2.5812,0,0.95195
19,1,35,1.5,0.65523,1.4833,1,1.2664,1,0.51638
19,1,36,1.5,0.81961,1.0524,1,1.4193,0,0.41924
19,1,37,1.5,0.61602,1.6245,1,1.4119,1,0.61601
19,1,38,1.5,0.48922,1.423,2,4.0113,1,1.2066
19,1,39,1.5,0.50227,1.7664,2,1.9279,1,0.476
19,1,40,1.5,0.55339,1.3205,2,1.5583,0,1.0742
19,1,41,1.5,0.63468,0.99216,1,2.4387,0,0.44478
19,1,42,1.5,0.83944,1.3361,2,1.5811,0,2.389
19,1,43,1.5,0.59096,1.9377,1,1.0944,1,0.57766
19,1,44,1.5,0.46476,1.7655,1,1.8141,1,0.92473
19,1,45,1.5,0.36052,1.1414,2,2.8122,0,0.70044
19,1,46,1.5,0.41142,1.4363,3,2.6825,1,1.0034
19,1,47,1.5,0.5897,1.4223,2,1.9713,1,1.2081
19,1,48,1.5,0.34274,1.1996,3,3.4549,0,0.75295
19,1,49,1.5,0.42421,1.4966,2,3.1006,1,3.9799
19,1,50,1.5,0.10511,1.4563,3,1.3733,0,3.0606
19,1,51,1.5,0.64789,1.1502,3,6.0046,0,4.799
19,1,52,1.5,1.6007,1.5779,2,1.5277,1,1.4515
19,1,53,1.5,0.58536,1.5083,2,1.4496,0,0.5531
19,1,54,1.5,0.48334,1.6885,1,1.4336,1,0.54176
19,1,55,1.5,0.015401,1.6937,1,8.7006,1,2.379
19,1,56,1.5,0.93755,1.5188,2,1.3439,0,0.4143
19,1,57,1.5,0.52622,1.5219,3,2.7464,0,0.90137
19,1,58,1.5,0.50626,1.3337,3,1.7169,0,0.90393
19,1,59,1.5,0.75101,1.5925,1,1.2881,1,0.85914
19,1,60,1.5,0.47653,1.4989,2,1.2042,0,1.1338
20,1,1,1.5,0.68272,1.639,3,3.3091,1,3.982
20,1,2,1.5,1.4186,0.94852,2,1.3915,0,0.83763
20,1,3,1.5,0.42528,1.3496,3,1.2671,0,2.6542
20,1,4,1.5,0.617,1.2143,3,1.377,0,0.81454
20,1,5,1.5,0.36236,1.4678,2,1.6678,0,1.3919
20,1,6,1.5,0.77266,1.4088,3,1.5259,1,0.93782
20,1,7,1.5,0.85309,1.2929,3,1.3151,1,0.8392
20,1,8,1.5,1.4964,1.3727,3,1.5728,0,0.61081
20,1,9,1.5,0.59228,1.4349,3,1.5307,1,1.3259
20,1,10,1.5,0.59874,1.0974,3,1.1027,1,1.1331
20,1,11,1.5,1.6275,1.183,1,3.9164,1,5.2516
20,1,12,1.5,0.74555,1.4154,2,1.2154,1,1.3281
20,1,13,1.5,0.66049,1.5617,3,1.0241,0,1.8882
20,1,14,1.5,0.52088,1.2668,3,1.3173,0,1.4058
20,1,15,1.5,0.50144,1.1319,2,2.0273,0,1.9505
20,1,16,1.5,0.66743,1.2912,3,1.4502,1,0.77901
20,1,17,1.5,0.57221,1.3808,2,1.2153,1,1.5022
20,1,18,1.5,0.68163,1.3534,3,1.2448,1,0.97884
20,1,19,1.5,0.65576,1.1603,2,1.5156,0,1.3524
20,1,20,1.5,0.44434,1.5117,2,1.2373,1,0.8456
20,1,21,1.5,0.59891,1.6863,2,1.8066,1,1.1716
20,1,22,1.5,0.7844,0.56893,2,1.1463,0,1.4267
20,1,23,1.5,0.51526,1.5153,2,1.3652,0,1.5522
20,1,24,1.5,0.98926,1.41,1,1.1257,0,2.6632
20,1,25,1.5,0.68205,0.96043,2,0.9365,0,1.3095
20,1,26,1.5,1.9634,1.6225,2,0.68494,1,1.5835
20,1,27,1.5,0.50864,1.5501,2,0.70395,1,2.1475
20,1,28,1.5,0.6181,1.6293,3,0.71123,1,0.75071
20,1,29,1.5,0.67431,1.3216,3,0.53331,1,1.4825
20,1,30,1.5,0.4945,1.4536,2,0.70762,1,1.0892
20,1,31,1.5,0.66868,1.1541,2,1.5102,0,0.56289
20,1,32,1.5,0.553,1.6464,3,0.59927,0,1.2441
20,1,33,1.5,1.315,0.55111,2,2.096,0,1.6385
20,1,34,1.5,0.911,1.0018,2,0.81972,1,1.1964
20,1,35,1.5,0.55175,1.6021,3,0.69355,1,1.9041
20,1,36,1.5,0.61057,1.5488,2,1.9272,0,1.4762
20,1,37,1.5,0.65621,1.3063,3,0.81048,1,0.80485
20,1,38,1.5,0.61683,1.2412,3,0.80063,1,1.143
20,1,39,1.5,0.88082,1.3401,3,0.77365,0,0.88736
20,1,40,1.5,0.83691,1.294,2,1.941,1,2.3715
20,1,41,1.5,1.0663,0.86073,3,1.138,0,1.0965
20,1,42,1.5,0.47765,1.3009,2,1.5434,1,1.3135
20,1,43,1.5,0.60577,1.1846,3,0.46831,1,0.93353
20,1,44,1.5,0.93851,1.4594,3,0.58902,1,1.2364
20,1,45,1.5,0.83981,0.5696,2,1.6352,0,0.94288
20,1,46,1.5,0.36798,1.7045,3,1.4946,0,1.2411
20,1,47,1.5,0.5666,1.6256,2,1.0245,1,0.83816
20,1,48,1.5,1.1631,1.1553,3,1.0973,0,1.3519
20,1,49,1.5,0.5344,1.4158,3,1.6908,1,0.68542
20,1,50,1.5,0.59229,1.4078,3,1.5248,1,1.3116
20,1,51,1.5,0.52708,1.5725,3,0.93448,1,1.2072
20,1,52,1.5,0.47734,1.4414,3,1.1494,1,1.2048
20,1,53,1.5,0.61648,1.1134,3,0.73881,1,0.98632
20,1,54,1.5,0.46939,1.3191,3,0.75677,0,1.3634
20,1,55,1.5,0.619,1.3696,3,0.71972,1,1.4331
20,1,56,1.5,0.317,1.6426,3,0.81263,1,1.3525
20,1,57,1.5,0.42541,1.39,3,0.78575,0,1.0204
20,1,58,1.5,0.46438,1.3533,3,3.9566,1,0.95353
20,1,59,1.5,0.5533,1.5694,3,1.218,1,0.55605
20,1,60,1.5,0.60431,0.65668,2,1.426,0,0.6125
21,1,1,1.5,2.5831,2.478,1,2.1,1,2.4017
21,1,2,1.5,0.66745,1.7025,2,1.9052,1,1.8089
21,1,3,1.5,0.72486,1.4233,2,1.7619,0,2.3262
21,1,4,1.5,0.68085,1.7912,2,3.3355,1,2.9174
21,1,5,1.5,0.91185,1.4159,3,1.741,0,2.8107
21,1,6,1.5,0.80229,1.442,2,3.7629,0,2.235
21,1,7,1.5,0.98008,1.6549,2,3.5458,0,2.5593
21,1,8,1.5,0.64801,1.5022,3,1.9802,1,1.078
21,1,9,1.5,0.6292,1.2929,2,4.7504,0,2.3624
21,1,10,1.5,0.5461,1.8406,1,1.8852,1,0.72952
21,1,11,1.5,0.48367,1.4804,1,1.8269,0,0.94973
21,1,12,1.5,0.83917,1.1353,3,2.3071,0,0.53263
21,1,13,1.5,0.48873,1.4107,2,2.0649,0,0.67655
21,1,14,1.5,0.6236,1.549,2,1.8785,1,3.3509
21,1,15,1.5,0.43736,1.344,3,1.0604,1,0.87724
21,1,16,1.5,1.0202,1.0533,2,2.32,0,0.99303
21,1,17,1.5,0.34855,1.6782,2,1.366,0,1.8776
21,1,18,1.5,0.39904,1.7398,3,1.0725,0,1.4861
21,1,19,1.5,0.6038,1.3296,3,0.93814,0,1.0238
21,1,20,1.5,0.72534,1.663,3,1.6619,1,0.72625
21,1,21,1.5,1.2698,1.3031,3,2.2707,0,0.38005
21,1,22,1.5,0.62143,1.709,2,2.1874,1,2.8174
21,1,23,1.5,0.57219,1.6187,3,1.0547,0,4.8483
21,1,24,1.5,0.55263,1.53,2,4.1262,0,1.8927
21,1,25,1.5,0.80305,1.2782,3,1.1122,0,2.5003
21,1,26,1.5,0.62316,1.6353,3,1.6808,1,0.50161
21,1,27,1.5,0.64131,1.3002,1,4.029,0,0.52122
21,1,28,1.5,0.45753,1.8467,2,0.7999,1,0.46847
21,1,29,1.5,0.50965,1.2635,2,0.87653,1,1.0665
21,1,30,1.5,0.52034,1.8056,2,1.7081,0,0.2611
21,1,31,1.5,1.0849,2.2166,3,1.5522,1,0.56867
21,1,32,1.5,1.2322,1.8273,2,1.0264,1,0.76337
21,1,33,1.5,0.63298,1.3134,2,3.8143,0,0.56128
21,1,34,1.5,0.93069,1.7515,3,3.3545,0,1.2157
21,1,35,1.5,0.51487,1.8002,3,2.3906,1,1.5341
21,1,36,1.5,0.38131,1.5664,3,0.66669,0,2.2061
21,1,37,1.5,0.68776,1.4916,2,1.475,1,2.6996
21,1,38,1.5,0.4374,1.9717,2,2.2073,1,2.3336
21,1,39,1.5,0.75139,1.8309,3,2.1004,0,2.2408
21,1,40,1.5,0.60994,1.6882,2,3.4579,0,0.9432
21,1,41,1.5,1.1019,1.9557,2,2.9458,1,2.5117
21,1,42,1.5,0.38002,1.6388,1,1.6346,1,1.2295
21,1,43,1.5,0.72522,1.8585,2,0.6623,1,0.63948
21,1,44,1.5,0.55195,1.4297,3,0.96268,0,2.1255
21,1,45,1.5,0.46521,1.6756,2,0.97492,1,0.62631
21,1,46,1.5,0.43776,1.7338,2,2.3419,1,1.1966
21,1,47,1.5,0.0091664,3.4288,1,1.8365,1,0.63008
21,1,48,1.5,1.3409,1.5718,3,1.4091,0,1.3878
21,1,49,1.5,2.1971,1.411,2,1.0533,0,1.2714
21,1,50,1.5,0.77083,1.3961,2,2.6751,0,0.59562
21,1,51,1.5,0.56534,1.8153,2,8.077,0,2.5107
21,1,52,1.5,0.7708,1.6287,2,1.6236,0,0.32372
21,1,53,1.5,0.37347,1.799,2,1.2139,1,0.45192
21,1,54,1.5,0.52759,1.9159,2,4.1644,1,3.2484
21,1,55,1.5,0.54716,1.9182,2,1.5282,1,0.36402
21,1,56,1.5,0.46998,1.9152,1,2.477,0,0.41146
21,1,57,1.5,0.66933,1.1954,2,1.274,0,0.30004
21,1,58,1.5,0.40002,2.1177,3,0.74051,1,1.4515
21,1,59,1.5,1.0148,1.2918,2,1.3257,0,0.38783
21,1,60,1.5,1.636,1.6288,2,3.4356,0,0.99189
22,1,1,3,1.7238,2.93,2,3.201,0,3.2487
22,1,2,3,2.0409,2.6789,3,2.4128,1,1.9385
22,1,3,3,2.3003,3.8245,2,1.4038,1,2.7577
22,1,4,3,1.5452,2.7462,3,3.552,0,1.6918
22,1,5,3,1.8671,2.302,2,1.7282,0,2.2011
22,1,6,3,1.828,2.4126,2,2.0252,1,1.2863
22,1,7,3,0.71303,2.6869,3,2.2661,1,5.2894
22,1,8,3,0.82775,2.9516,3,2.3268,0,1.2492
22,1,9,3,1.293,2.2102,3,1.4863,0,1.7701
22,1,10,3,0.46755,3.019,3,1.4506,1,1.3929
22,1,11,3,0.74938,2.8169,2,1.5245,1,1.5753
22,1,12,3,0.65976,2.4111,3,1.4512,0,1.0804
22,1,13,3,2.5881,3.2793,3,1.3364,1,0.7566
22,1,14,3,0.59029,3.3377,2,1.7022,1,1.5935
22,1,15,3,0.66008,2.3486,3,1.3008,1,0.83042
22,1,16,3,0.7309,2.8658,3,1.2367,1,0.86944
22,1,17,3,0.88811,2.9709,1,3.0924,0,0.89456
22,1,18,3,1.0869,1.6694,2,1.593,0,1.9887
22,1,19,3,0.78309,2.9539,3,1.0904,1,0.72483
22,1,20,3,0.84818,2.3428,3,1.1847,1,1.0066
22,1,21,3,0.68646,2.3449,3,0.99968,1,0.91796
22,1,22,3,0.56315,2.7781,3,1.1479,1,0.59088
22,1,23,3,0.70647,2.9186,3,1.3518,1,0.86791
22,1,24,3,0.65381,3.0293,3,1.324,1,0.81193
22,1,25,3,0.62195,3.0958,2,1.324,1,0.97507
22,1,26,3,0.60754,3.5612,3,0.94691,1,0.76489
22,1,27,3,0.71258,2.6617,3,1.3504,0,1.0923
22,1,28,3,0.50651,3.5852,3,1.274,1,1.7122
22,1,29,3,0.48577,1.7696,2,1.4183,0,0.70509
22,1,30,3,0.42829,2.1753,3,1.6604,0,0.63816
22,1,31,3,6.0562,3.2312,1,1.55,0,2.6671
22,1,32,3,1.1195,3.2654,2,1.4276,1,0.83794
22,1,33,3,0.64302,2.9584,3,1.1707,1,0.73437
22,1,34,3,0.67405,2.8321,3,1.0989,1,0.5663
22,1,35,3,0.32468,3.3992,3,0.83846,1,0.48671
22,1,36,3,0.67959,3.2008,2,1.2374,1,0.64693
22,1,37,3,0.52442,2.583,3,0.80036,0,3.8434
22,1,38,3,0.41509,2.6251,3,0.92119,1,0.67365
22,1,39,3,0.76486,3.1479,3,0.88649,1,0.7351
22,1,40,3,0.48679,2.6535,3,2.6547,0,1.3798
22,1,41,3,0.3765,1.9515,3,1.8291,1,1.0276
22,1,42,3,0.5196,2.7586,3,1.2583,1,1.213
22,1,43,3,0.5,2.6147,3,1.0356,1,0.55754
22,1,44,3,0.33184,2.7501,2,1.1628,1,2.5133
22,1,45,3,0.50616,2.298,3,1.2237,0,0.47439
22,1,46,3,0.47476,3.2256,3,0.94533,1,0.51196
22,1,47,3,0.43494,3.0163,3,1.3236,1,0.58598
22,1,48,3,0.60231,2.2912,3,1.073,0,0.91096
22,1,49,3,0.32495,2.5882,3,1.1068,0,1.7986
22,1,50,3,0.47331,2.5619,2,1.7243,0,0.82304
22,1,51,3,0.46097,2.9534,3,0.80273,1,0.58498
22,1,52,3,0.44724,2.5508,1,2.451,0,0.92695
22,1,53,3,0.47283,2.9826,3,1.4865,1,1.0189
22,1,54,3,0.21498,2.9507,3,0.93742,1,0.81036
22,1,55,3,0.69955,3.6623,3,1.0853,1,0.6563
22,1,56,3,0.51277,3.5442,2,1.3705,1,0.758
22,1,57,3,0.46714,2.6555,3,0.9309,1,0.91532
22,1,58,3,0.47378,2.9836,3,1.3619,1,1.2546
22,1,59,3,0.56441,2.978,3,1.2113,0,1.6155
22,1,60,3,0.41577,3.1559,3,1.2291,1,0.58768
23,1,1,3,0.60143,3.8411,3,0.95427,1,1.435
23,1,2,3,1.4151,2.5891,3,1.4431,0,1.8137
23,1,3,3,0.63938,2.7468,3,2.3252,0,3.6482
23,1,4,3,0.67186,2.4221,2,4.4568,0,0.8135
23,1,5,3,0.59515,2.9158,3,1.2741,0,1.8369
23,1,6,3,1.6795,3.223,3,2.1069,1,1.146
23,1,7,3,1.2664,2.5605,3,1.4993,0,1.9406
23,1,8,3,0.83415,3.8636,2,1.5607,1,1.4379
23,1,9,3,0.49897,1.6888,2,1.7338,0,1.2411
23,1,10,3,0.88492,2.6428,2,1.6344,0,1.456
23,1,11,3,0.54392,1.4763,1,2.0636,0,0.89069
23,1,12,3,0.84044,2.1319,2,1.289,0,1.5348
23,1,13,3,1.1499,3.0157,2,1.6646,0,0.85212
23,1,14,3,0.75647,3.1817,3,1.2017,1,1.0185
23,1,15,3,0.62757,2.9154,3,1.4398,0,2.661
23,1,16,3,0.31156,2.491,3,1.596,0,0.74018
23,1,17,3,1.9086,2.7977,3,0.9888,1,0.63623
23,1,18,3,0.63531,3.2386,3,1.3425,0,1.1502
23,1,19,3,1.1136,3.8159,3,0.95024,1,0.59304
23,1,20,3,0.48554,2.421,3,0.90414,1,0.87337
23,1,21,3,1.0605,2.9026,3,4.4894,0,1.413
23,1,22,3,0.51033,3.417,3,1.5642,0,0.70189
23,1,23,3,0.71822,2.8396,3,1.2558,0,0.52348
23,1,24,3,0.85903,3.974,2,1.0286,0,1.9635
23,1,25,3,0.57528,2.584,3,1.202,0,1.1928
23,1,26,3,0.53193,3.0623,3,1.8364,1,1.0438
23,1,27,3,0.67261,1.9324,3,1.0764,0,0.76488
23,1,28,3,1.2645,4.4778,2,2.8059,1,0.3936
23,1,29,3,0.9235,4.1696,2,2.3994,1,1.6251
23,1,30,3,0.58901,2.7839,3,1.8512,1,1.0528
23,1,31,3,0.40827,2.851,3,0.93784,0,0.55952
23,1,32,3,1.131,3.0038,2,1.3531,0,1.0822
23,1,33,3,0.65288,3.1533,3,1.3152,0,0.7651
23,1,34,3,1.1098,2.5647,2,1.073,0,0.49838
23,1,35,3,0.52476,3.1597,3,1.2199,0,0.87053
23,1,36,3,1.9881,3.4531,2,1.2629,1,1.0265
23,1,37,3,0.5945,3.0525,3,1.4775,1,0.7252
23,1,38,3,0.94326,2.652,2,2.0032,0,1.5549
23,1,39,3,0.3572,1.4474,1,1.5632,0,0.70574
23,1,40,3,0.68598,2.4195,2,1.1292,0,1.0756
23,1,41,3,0.55084,2.8645,3,1.1015,1,0.89445
23,1,42,3,0.48493,3.0791,2,1.2746,0,1.0867
23,1,43,3,0.49913,3.0633,3,1.3497,1,1.0283
23,1,44,3,0.73653,2.5419,3,25.148,0,0.65094
23,1,45,3,0.7704,2.3579,3,0.99641,0,1.9147
23,1,46,3,0.38397,2.914,2,0.77451,1,0.50198
23,1,47,3,0.43478,2.6803,2,2.8015,0,0.62615
23,1,48,3,1.8288,3.5102,1,1.0964,1,2.1511
23,1,49,3,0.99545,4.501,2,1.6261,1,1.5871
23,1,50,3,0.49303,4.4031,2,1.9278,1,0.43899
23,1,51,3,0.6601,2.9873,3,9.4173,0,0.85095
23,1,52,3,0.50491,2.783,2,7.3122,1,1.3905
23,1,53,3,0.69225,2.8141,2,2.8387,1,1.6421
23,1,54,3,0.6741,3.5628,3,1.6471,0,1.513
23,1,55,3,0.44846,2.8507,3,0.86276,0,0.65149
23,1,56,3,0.55136,5.9267,2,1.0498,1,1.0051
23,1,57,3,0.53056,3.2655,2,3.4511,1,1.2409
23,1,58,3,0.47345,3.2439,3,1.3095,1,0.75131
23,1,59,3,0.47849,3.6261,2,0.96892,1,1.1825
23,1,60,3,0.45977,3.701,2,4.7664,1,1.4092
24,1,1,3,2.1605,3.5991,3,1.5128,0,3.7122
24,1,2,3,1.3744,3.1347,2,3.1756,1,1.0206
24,1,3,3,1.1183,3.1799,3,1.3744,0,1.7502
24,1,4,3,1.728,2.9126,3,3.6871,0,1.8636
24,1,5,3,0.86618,3.3762,3,4.2453,0,1.0192
24,1,6,3,1.8012,3.0996,2,1.6781,1,2.889
24,1,7,3,0.95615,3.1601,3,2.1337,0,0.85178
24,1,8,3,0.94308,3.2732,3,2.48,0,0.91463
24,1,9,3,0.83557,3.0174,3,1.301,0,1.4171
24,1,10,3,1.2268,3.0755,3,1.4209,0,3.72
24,1,11,3,0.84152,3.1211,2,1.7276,1,0.87686
24,1,12,3,0.873,3.4237,2,1.7417,1,0.82465
24,1,13,3,0.88692,3.929,3,2.1216,1,1.7309
24,1,14,3,0.9233,2.9318,2,2.0132,1,1.0418
24,1,15,3,1.2601,3.1122,3,1.2491,0,1.7527
24,1,16,3,0.68122,3.3232,3,4.542,1,1.2287
24,1,17,3,0.80986,3.0735,2,6.631,0,0.45304
24,1,18,3,0.52375,2.6578,3,1.5835,0,1.5414
24,1,19,3,1.4853,3.137,3,1.3411,1,0.78675
24,1,20,3,0.83553,3.2429,3,0.79614,1,0.65092
24,1,21,3,0.88638,3.053,2,1.1778,1,0.49047
24,1,22,3,0.85519,3.1669,3,1.1735,1,0.38687
24,1,23,3,1.3719,3.8939,2,0.98153,1,0.3671
24,1,24,3,0.661,2.9913,2,1.2574,1,0.33639
24,1,25,3,0.73347,3.1184,2,4.6757,1,0.3274
24,1,26,3,0.90671,3.1225,3,1.393,0,1.5257
24,1,27,3,0.60898,3.5631,2,3.1362,1,0.47639
24,1,28,3,0.81538,3.7618,2,1.1714,0,3.7988
24,1,29,3,0.83556,2.9566,3,2.1932,1,1.1615
24,1,30,3,1.2293,3.1668,3,1.6737,1,2.4229
24,1,31,3,0.60262,2.1943,2,1.9499,0,1.1275
24,1,32,3,0.72707,3.3499,2,2.8654,1,0.66431
24,1,33,3,1.0852,3.5903,3,1.1671,1,0.41857
24,1,34,3,0.77023,4.0959,3,1.0965,1,0.35083
24,1,35,3,0.79667,3.9797,3,1.4842,0,1.192
24,1,36,3,0.64172,3.5511,3,1.1105,1,0.35275
24,1,37,3,0.99782,3.7047,2,2.2642,0,0.54051
24,1,38,3,0.60952,3.4155,3,1.6131,1,0.279
24,1,39,3,0.68762,3.1702,2,2.252,1,2.1297
24,1,40,3,0.28718,3.5224,3,0.96644,1,0.58031
24,1,41,3,0.40898,2.6991,3,2.4373,0,1.3426
24,1,42,3,0.57093,2.6346,2,1.6394,0,0.48462
24,1,43,3,0.58966,3.2957,3,1.3103,0,1.5279
24,1,44,3,0.76416,3.1533,3,1.1652,1,0.7159
24,1,45,3,0.48687,2.9942,3,1.56,0,8.4764
24,1,46,3,0.67302,3.6445,3,1.8336,1,0.64042
24,1,47,3,1.6892,3.4401,2,7.367,0,1.4417
24,1,48,3,1.1456,3.4228,3,1.3043,0,1.4722
24,1,49,3,0.61689,2.9517,3,1.0143,0,1.3153
24,1,50,3,0.49353,2.8533,3,6.7028,0,2.3828
24,1,51,3,0.93284,3.4772,2,2.8086,0,1.4077
24,1,52,3,0.49718,4.1044,2,2.7874,0,0.45371
24,1,53,3,0.33791,3.5334,2,1.6377,0,0.52176
24,1,54,3,0.66093,4.1624,2,1.2331,1,0.41652
24,1,55,3,0.9237,3.3453,2,1.059,1,0.51515
24,1,56,3,0.80941,3.109,3,1.1091,0,1.1634
24,1,57,3,0.91914,3.207,3,1.367,0,1.4309
24,1,58,3,0.71328,3.3136,3,1.0245,1,1.3009
24,1,59,3,0.95986,3.6207,2,1.6773,1,0.48765
24,1,60,3,1.03,3.1241,3,1.6696,0,1.6681
25,1,1,3,0.85053,3.0163,3,1.2864,0,1.0078
25,1,2,3,0.87652,3.4716,3,0.84035,1,0.94912
25,1,3,3,0.87671,2.9974,3,0.85009,1,0.71928
25,1,4,3,0.60108,3.325,3,0.82014,1,0.9845
25,1,5,3,0.70979,3.211,3,2.0724,1,0.62051
25,1,6,3,0.60135,3.055,3,0.76673,1,0.66856
25,1,7,3,0.59459,3.314,3,0.98741,1,0.86056
25,1,8,3,0.64474,3.4287,3,1.098,1,0.57842
25,1,9,3,0.64994,3.4401,3,1.493,0,0.50139
25,1,10,3,0.44754,3.0265,3,1.5592,0,0.54908
25,1,11,3,0.47336,3.3566,2,2.2303,1,0.85149
25,1,12,3,0.99973,3.3265,3,1.1699,1,0.88312
25,1,13,3,1.0565,3.2801,3,1.2121,0,1.0922
25,1,14,3,0.7092,3.2836,3,0.81125,1,0.66767
25,1,15,3,0.72903,3.1622,3,0.79863,1,1.0037
25,1,16,3,0.86561,2.6473,3,1.5018,1,0.71873
25,1,17,3,0.50973,2.7238,3,1.234,0,0.36672
25,1,18,3,0.83853,3.0414,2,1.5695,0,0.5569
25,1,19,3,0.56243,3.0274,3,0.92287,0,0.78621
25,1,20,3,0.45192,2.8903,3,0.91879,1,0.72044
25,1,21,3,0.85092,3.2673,3,1.1494,1,0.92966
25,1,22,3,0.61974,2.7952,3,0.97403,0,0.36312
25,1,23,3,0.76809,3.2287,3,0.82364,1,0.58754
25,1,24,3,1.2702,2.7786,3,0.29945,0,0.85781
25,1,25,3,0.69173,3.3203,3,1.7152,1,0.87604
25,1,26,3,0.65961,3.2608,3,1.6599,1,0.45154
25,1,27,3,0.37458,2.9976,2,2.5639,0,1.0767
25,1,28,3,0.66474,2.7994,3,0.49873,1,0.5674
25,1,29,3,0.67663,3.1627,3,1.6128,0,0.49014
25,1,30,3,0.52771,3.4236,3,0.91789,0,0.48106
25,1,31,3,0.62692,3.2219,3,0.37982,0,0.52845
25,1,32,3,0.31055,3.5376,3,0.48951,0,0.93733
25,1,33,3,0.57464,2.875,3,0.42114,1,0.28632
25,1,34,3,0.45927,3.0253,3,0.30797,0,0.23913
25,1,35,3,0.91573,3.0782,3,0.32334,1,0.31421
25,1,36,3,0.76149,3.0385,3,0.65526,1,0.21012
25,1,37,3,0.46579,3.1906,3,0.7927,1,0.278
25,1,38,3,0.76317,3.3281,2,2.2965,0,0.25208
25,1,39,3,0.50957,3.3155,3,0.3885,1,0.39949
25,1,40,3,0.71083,3.5513,3,0.7861,0,0.69676
25,1,41,3,0.54948,2.8534,3,0.36573,1,0.81881
25,1,42,3,0.46517,3.7645,3,0.42389,1,0.66361
25,1,43,3,0.42628,3.3013,3,0.43813,1,0.2482
25,1,44,3,0.80083,4.0035,1,1.2876,1,1.5211
25,1,45,3,0.52938,3.0502,3,0.89904,0,0.81693
25,1,46,3,0.9805,3.8042,3,0.42672,0,0.42993
25,1,47,3,0.86975,3.4906,3,0.28079,1,0.47979
25,1,48,3,1.0377,3.9286,3,0.39707,1,0.30404
25,1,49,3,1.104,3.6039,3,0.30105,1,0.23394
25,1,50,3,0.58738,3.1424,3,0.6339,0,0.7319
25,1,51,3,0.5423,2.8626,3,0.63793,0,0.18647
25,1,52,3,0.73074,3.7288,3,0.85924,1,0.78981
25,1,53,3,0.50421,3.13,3,0.67479,0,0.50161
25,1,54,3,0.49651,3.0511,3,0.46335,0,0.57854
25,1,55,3,0.41464,3.2118,2,1.6349,1,0.80515
25,1,56,3,0.32965,3.4012,3,0.36111,0,0.91447
25,1,57,3,0.36214,2.9045,3,0.58004,0,1.2031
25,1,58,3,0.43337,3.1504,3,0.58617,0,0.82243
25,1,59,3,0.62541,2.5995,3,0.68758,0,0.64764
25,1,60,3,0.32367,3.1732,3,0.75478,0,0.43635
26,1,1,3,1.1565,3.3351,3,2.7133,0,1.9754
26,1,2,3,2.2456,3.3138,3,2.0115,0,2.3641
26,1,3,3,0.46115,2.4617,2,2.8502,0,1.404
26,1,4,3,1.0283,2.5855,2,2.8141,1,2.3527
26,1,5,3,1.7713,2.6544,3,1.6542,0,3.5335
26,1,6,3,0.62764,3.101,2,1.9376,1,4.7437
26,1,7,3,1.1524,2.9532,2,2.3158,0,1.2291
26,1,8,3,3.2449,2.9838,3,1.4872,1,3.4068
26,1,9,3,1.284,2.1615,2,1.638,0,1.7828
26,1,10,3,1.547,2.2158,3,1.5635,1,1.4299
26,1,11,3,1.0993,2.5359,2,1.7902,0,1.4976
26,1,12,3,0.63383,2.9009,1,1.3751,0,1.6627
26,1,13,3,1.9802,2.8998,2,1.1366,1,1.1204
26,1,14,3,0.95944,2.4612,2,1.275,0,1.3493
26,1,15,3,0.60381,2.5791,3,1.3884,0,2.521
26,1,16,3,0.50464,2.3221,3,1.3194,1,1.2572
26,1,17,3,0.74159,2.7569,2,1.6698,0,2.8824
26,1,18,3,0.89458,1.7966,1,2.2759,0,1.0359
26,1,19,3,1.8407,2.1695,2,2.3676,0,1.3401
26,1,20,3,1.727,2.9956,3,1.7743,1,1.6602
26,1,21,3,0.52539,2.3588,2,1.9104,0,0.5878
26,1,22,3,0.7241,2.2605,3,1.4007,0,1.0162
26,1,23,3,1.2973,2.3517,3,1.3405,1,1.3375
26,1,24,3,1.0614,2.3719,1,2.2583,1,1.747
26,1,25,3,0.55074,2.5644,2,1.8398,0,0.85889
26,1,26,3,0.69267,2.4878,2,1.6305,0,1.4298
26,1,27,3,0.57037,1.8592,1,2.5746,0,1.1834
26,1,28,3,3.6669,2.1498,2,1.7643,0,0.92656
26,1,29,3,2.3303,3.1101,3,2.6962,1,3.1503
26,1,30,3,2.6735,3.1303,3,2.6637,1,1.3633
26,1,31,3,2.3302,3.0384,2,1.6798,0,0.96657
26,1,32,3,2.3397,2.8663,2,2.6125,0,0.98697
26,1,33,3,2.429,3.5205,3,3.7144,1,1.662
26,1,34,3,2.0139,3.0011,3,1.8893,1,1.096
26,1,35,3,5.2364,2.8609,3,2.4987,1,1.6158
26,1,36,3,1.9315,3.128,3,2.5366,0,1.8778
26,1,37,3,1.2394,2.8455,2,2.6365,0,4.6034
26,1,38,3,1.1981,3.3192,3,2.1251,0,1.7733
26,1,39,3,1.107,2.9995,1,1.7979,0,0.91337
26,1,40,3,2.0471,3.3712,2,1.779,0,1.7021
26,1,41,3,0.43756,3.0972,3,1.8127,1,0.96554
26,1,42,3,0.81191,2.9499,2,1.5995,0,0.86471
26,1,43,3,1.3742,3.5448,2,2.2083,1,0.94743
26,1,44,3,1.1515,2.9301,2,1.7008,0,1.1038
26,1,45,3,3.2085,3.3054,2,1.5916,0,1.2119
26,1,46,3,0.76922,3.2303,3,3.2114,1,1.7229
26,1,47,3,1.9032,2.989,3,1.7052,0,1.4453
26,1,48,3,0.91502,3.2905,2,1.7302,0,1.5296
26,1,49,3,1.3505,2.3727,2,1.5328,0,0.75257
26,1,50,3,0.92096,3.2687,3,1.4633,1,1.3508
26,1,51,3,0.94005,2.6825,2,1.6369,0,0.8574
26,1,52,3,0.65924,3.0752,3,1.5082,0,0.92424
26,1,53,3,0.76173,2.89,2,1.6319,0,0.96504
26,1,54,3,1.535,1.937,3,1.2814,0,0.67814
26,1,55,3,0.97374,3.1574,2,2.2448,1,1.8253
26,1,56,3,0.63953,3.4359,3,1.6886,1,1.9962
26,1,57,3,0.75729,2.6095,3,1.7343,1,0.99254
26,1,58,3,0.56545,2.9258,2,1.6968,0,0.91739
26,1,59,3,0.88377,2.5158,2,1.9127,0,1.853
26,1,60,3,1.8012,3.1563,3,4.4934,1,3.9794
27,1,1,3,1.0116,3.0004,2,4.3254,0,8.116
27,1,2,3,1.44,2.2296,3,8.1629,1,2.8152
27,1,3,3,1.2644,2.6382,2,4.5429,0,4.2926
27,1,4,3,2.7411,2.7685,2,2.9515,1,6.4262
27,1,5,3,1.4648,3.8397,1,7.7536,1,2.3563
27,1,6,3,1.9432,2.8353,2,1.6631,0,5.6425
27,1,7,3,0.85761,2.5604,3,2.4612,1,2.9001
27,1,8,3,1.3749,1.6701,2,2.6446,0,2.2372
27,1,9,3,0.59048,1.899,2,3.2639,0,2.9629
27,1,10,3,6.6327,2.2161,2,2.6132,0,6.2012
27,1,11,3,1.088,3.5804,2,2.2606,1,11.388
27,1,12,3,2.847,2.5099,2,6.1982,0,2.8305
27,1,13,3,1.7333,2.3277,2,1.7253,1,1.9867
27,1,14,3,1.2938,3.3346,2,1.4994,1,4.0538
27,1,15,3,1.1958,2.6899,2,1.8821,1,1.3011
27,1,16,3,0.89114,2.8083,2,4.6581,1,2.2648
27,1,17,3,1.0228,1.7939,2,1.5518,1,1.4431
27,1,18,3,0.76219,2.1291,2,1.4259,1,1.7514
27,1,19,3,0.40508,2.9826,2,2.3532,1,4.8796
27,1,20,3,0.77633,2.2358,2,3.0288,0,1.224
27,1,21,3,0.92295,2.2048,2,2.9188,0,1.6514
27,1,22,3,0.93541,1.8773,2,1.663,1,3.454
27,1,23,3,3.4366,3.2775,2,1.5846,0,3.4176
27,1,24,3,0.54622,2.4068,2,1.4201,1,4.8068
27,1,25,3,0.94909,2.6267,2,1.6107,0,2.6135
27,1,26,3,1.0115,2.0624,2,2.4623,0,2.8377
27,1,27,3,0.73176,2.2018,2,1.7409,1,1.8487
27,1,28,3,0.6348,2.1406,2,2.5208,1,3.9185
27,1,29,3,0.60286,2.6028,2,1.3027,0,3.2824
27,1,30,3,1.0629,3.049,2,1.503,1,2.1569
27,1,31,3,0.98005,1.6899,3,2.0475,0,6.7288
27,1,32,3,1.2801,2.9409,3,1.5946,0,5.8511
27,1,33,3,0.98776,2.179,3,1.7015,1,3.3923
27,1,34,3,0.64824,2.2909,2,1.9209,0,3.9078
27,1,35,3,0.62975,2.341,2,1.7466,1,1.4915
27,1,36,3,0.58243,2.0547,3,3.1066,1,6.3553
27,1,37,3,0.55817,3.2587,2,1.5949,0,3.1392
27,1,38,3,0.70528,2.9465,3,1.5636,1,1.5173
27,1,39,3,0.69743,2.6562,2,1.3316,1,1.915
27,1,40,3,0.55811,2.1953,2,1.4769,0,2.8382
27,1,41,3,0.0091662,2.6753,2,1.4723,0,3.3348
27,1,42,3,0.80104,1.225,2,2.3627,0,2.7397
27,1,43,3,1.8487,3.3005,3,1.4402,1,2.2603
27,1,44,3,0.83898,2.4549,3,1.881,1,2.4042
27,1,45,3,0.9791,2.2877,2,1.6807,0,2.1306
27,1,46,3,0.76308,2.0179,2,1.9042,0,3.6435
27,1,47,3,0.38422,2.4935,2,4.0488,0,2.2729
27,1,48,3,0.69754,2.8785,1,2.5865,1,1.654
27,1,49,3,0.97303,2.6096,2,1.8724,1,4.0214
27,1,50,3,0.57208,2.5591,2,1.7716,1,1.1833
27,1,51,3,0.58334,2.5922,2,1.5214,1,1.2345
27,1,52,3,0.55759,2.4004,2,1.2765,1,2.9888
27,1,53,3,0.6212,2.3235,2,4.1953,0,2.3702
27,1,54,3,0.60203,2.6308,2,1.8104,0,1.6125
27,1,55,3,1.0647,2.5534,2,1.6418,0,1.2864
27,1,56,3,0.63534,2.452,2,1.9906,1,2.121
27,1,57,3,0.9936,1.7749,2,1.1991,0,4.128
27,1,58,3,0.71173,2.1111,2,1.3261,1,2.0876
27,1,59,3,0.81463,2.0056,2,1.8946,0,4.1523
27,1,60,3,0.59041,2.2885,2,3.2441,1,1.2708
28,1,1,3,1.2522,2.8437,3,1.3094,0,1.4376
28,1,2,3,2.0793,2.7587,2,1.2469,0,0.83899
28,1,3,3,0.92022,3.1684,3,1.0755,1,0.90153
28,1,4,3,0.90906,4.2995,2,1.7364,1,1.1945
28,1,5,3,0.88304,2.5622,2,1.3388,0,0.57142
28,1,6,3,0.92875,3.1103,3,2.0472,0,0.8915
28,1,7,3,0.56337,2.8299,3,3.1756,0,0.43368
28,1,8,3,0.75501,2.7232,3,1.4817,0,1.0264
28,1,9,3,0.73737,3.7073,2,0.79315,1,0.55191
28,1,10,3,0.97147,3.121,3,0.85333,1,1.6848
28,1,11,3,1.2531,2.8786,3,2.6112,0,0.96207
28,1,12,3,0.58795,2.5606,3,1.4731,1,0.87347
28,1,13,3,0.43013,3.3045,3,0.82858,1,0.62588
28,1,14,3,0.48802,2.2962,3,1.376,1,1.9641
28,1,15,3,0.63302,2.8542,3,1.4789,0,0.79153
28,1,16,3,0.6099,3.3738,3,1.4174,1,0.49258
28,1,17,3,2.5346,2.49,2,1.1823,0,0.55433
28,1,18,3,0.55769,2.8354,3,2.0275,0,0.53848
28,1,19,3,0.58202,2.9995,3,1.1605,1,0.57868
28,1,20,3,0.74217,3.185,3,0.86264,1,1.8144
28,1,21,3,1.1788,3.4862,3,0.95164,0,0.71983
28,1,22,3,0.57025,2.8842,2,1.051,1,0.63143
28,1,23,3,0.54523,3.3935,3,0.70728,1,0.46329
28,1,24,3,0.48837,2.8863,2,1.1518,1,0.46972
28,1,25,3,0.86392,3.0044,2,1.0162,1,0.56701
28,1,26,3,0.58327,2.4904,3,0.98306,0,0.45532
28,1,27,3,0.47454,3.1502,3,0.94934,1,0.54149
28,1,28,3,0.39773,2.7881,3,0.94134,1,0.45216
28,1,29,3,0.37895,2.8434,2,1.4727,1,0.49692
28,1,30,3,0.37841,2.5294,3,1.077,1,0.51546
28,1,31,3,1.0059,3.2347,3,0.71226,1,2.7011
28,1,32,3,0.56384,2.4901,3,1.1203,0,0.73312
28,1,33,3,0.698,3.1782,3,0.86047,1,0.55253
28,1,34,3,0.40306,2.9562,2,0.89385,0,0.69064
28,1,35,3,0.51263,3.4053,3,1.7904,1,0.51084
28,1,36,3,0.45562,3.6437,2,0.85892,1,0.58794
28,1,37,3,0.57633,2.9124,3,1.7632,1,0.5658
28,1,38,3,0.74264,3.411,2,1.1845,1,0.56752
28,1,39,3,0.61409,2.9296,3,1.1998,1,0.82941
28,1,40,3,0.48129,2.411,3,0.95036,0,0.48075
28,1,41,3,0.36821,2.6424,3,5.7094,0,0.53796
28,1,42,3,0.55202,2.8036,3,2.2793,0,0.47581
28,1,43,3,0.50081,4.0523,3,1.9355,0,0.4788
28,1,44,3,0.66064,3.1523,3,1.401,0,0.48066
28,1,45,3,0.50813,3.4019,2,0.96173,1,0.56662
28,1,46,3,0.47466,2.6509,3,1.1392,1,1.3235
28,1,47,3,0.43643,3.7533,3,0.77577,1,0.51439
28,1,48,3,0.30792,2.8979,3,1.0508,0,0.55629
28,1,49,3,4.3514,2.6942,3,1.1239,0,1.275
28,1,50,3,2.7847,3.1284,2,1.0989,1,0.67853
28,1,51,3,0.73801,3.3928,3,1.5831,0,0.47841
28,1,52,3,0.66018,2.4583,3,1.0979,1,0.55281
28,1,53,3,3.8114,2.7419,2,1.734,0,0.51533
28,1,54,3,0.37304,3.4357,3,1.2253,1,0.53848
28,1,55,3,0.47345,3.1466,3,1.2867,0,2.0071
28,1,56,3,0.50632,3.5355,3,1.2754,1,0.61302
28,1,57,3,0.55216,2.766,3,1.1493,1,1.417
28,1,58,3,0.40991,3.0011,2,3.8628,0,5.1727
28,1,59,3,0.56389,3.3193,3,0.87699,1,0.55268
28,1,60,3,0.42336,2.8447,3,2.2114,0,0.5004
29,1,1,3,3.136,3.3548,3,1.4905,1,3.7869
29,1,2,3,1.3107,2.4752,3,4.6347,0,1.8745
29,1,3,3,1.4208,3.6526,2,6.1125,0,1.7908
29,1,4,3,1.1459,2.6158,3,1.4365,1,1.4457
29,1,5,3,1.0014,3.0396,3,1.7303,0,2.105
29,1,6,3,0.74962,2.8776,2,1.7849,0,0.99268
29,1,7,3,1.0506,3.7161,3,1.414,1,2.1141
29,1,8,3,0.99982,3.8636,3,1.4481,1,1.2899
29,1,9,3,1.625,1.6445,3,2.1512,0,0.92801
29,1,10,3,0.81668,2.8172,3,1.8007,0,1.1407
29,1,11,3,0.77983,3.065,2,2.7759,0,0.92203
29,1,12,3,0.5296,3.1765,3,1.6956,1,3.8665
29,1,13,3,1.4989,3.1401,3,1.4564,0,1.347
29,1,14,3,1.0047,3.1544,3,2.0275,0,1.2258
29,1,15,3,0.49006,3.0202,3,1.5653,1,0.90246
29,1,16,3,0.61105,3.6794,3,2.2217,0,1.5816
29,1,17,3,0.52313,3.4452,3,1.4466,0,1.6174
29,1,18,3,0.56536,3.8621,3,4.5216,1,3.8159
29,1,19,3,0.77357,2.9988,3,1.2017,0,2.0695
29,1,20,3,0.89561,3.8549,2,1.6257,1,1.0499
29,1,21,3,0.45785,2.8743,3,2.3446,0,1.8249
29,1,22,3,0.62587,3.5709,3,1.1651,1,0.99142
29,1,23,3,0.57956,3.1304,3,1.2875,1,0.83392
29,1,24,3,0.54779,3.6898,3,3.3163,0,0.78853
29,1,25,3,0.63865,3.2328,3,1.5353,0,1.0312
29,1,26,3,0.41333,3.1446,3,1.5229,0,1.4469
29,1,27,3,0.44014,4.1492,3,2.5001,1,1.8375
29,1,28,3,1.1019,1.6553,3,1.3091,1,3.6139
29,1,29,3,0.59219,2.7276,3,2.9232,0,0.91847
29,1,30,3,0.57267,2.5448,3,1.7874,0,0.88267
29,1,31,3,0.57656,3.209,3,1.2449,1,1.1788
29,1,32,3,0.49767,3.3015,3,1.3754,1,1.2632
29,1,33,3,0.63948,3.5933,3,1.4327,0,0.95272
29,1,34,3,0.39462,3.3927,3,1.2821,0,1.2286
29,1,35,3,1.0103,3.2768,3,1.3342,1,0.90462
29,1,36,3,0.39409,3.6277,3,1.2576,1,0.86316
29,1,37,3,0.89151,2.6005,3,1.2379,1,1.6974
29,1,38,3,0.43296,2.5674,3,1.076,0,0.67791
29,1,39,3,0.51578,2.351,3,1.7647,0,2.2763
29,1,40,3,0.46474,3.1782,3,1.8597,0,0.68777
29,1,41,3,0.33649,3.8064,3,1.1529,1,1.496
29,1,42,3,0.40003,2.9178,3,1.1009,1,0.80635
29,1,43,3,1.0939,2.7732,3,0.98268,1,0.59137
29,1,44,3,0.51034,2.9152,3,1.0641,1,0.69123
29,1,45,3,0.43928,2.9561,3,1.506,0,0.61023
29,1,46,3,0.50346,3.1687,3,1.1508,1,0.85536
29,1,47,3,0.53654,3.9056,1,2.7531,1,0.87812
29,1,48,3,0.45203,3.3038,3,0.87832,0,0.66222
29,1,49,3,0.72275,3.2977,3,1.2505,1,0.6421
29,1,50,3,0.39474,2.6405,3,2.2335,0,0.6644
29,1,51,3,0.38684,2.654,3,2.1297,0,0.66411
29,1,52,3,0.33613,3.9791,3,1.2473,1,0.88873
29,1,53,3,0.50971,2.5609,3,1.2752,0,0.68867
29,1,54,3,0.43822,3.3325,3,1.2981,0,1.4401
29,1,55,3,0.33662,3.5706,3,7.314,0,0.98025
29,1,56,3,0.51059,3.4411,3,1.7053,0,1.3838
29,1,57,3,0.48981,2.5702,3,1.267,1,1.0425
29,1,58,3,1.5255,2.7954,3,1.4366,1,0.78221
29,1,59,3,0.31665,3.1182,3,1.1511,1,0.61791
29,1,60,3,0.36274,2.9511,3,3.8122,0,0.77185
30,1,1,3,0.6606,2.4147,3,3.5624,0,3.197
30,1,2,3,1.2096,2.5853,3,3.5399,0,1.7919
30,1,3,3,1.267,2.7879,3,1.5174,0,1.58
30,1,4,3,0.44061,2.3126,2,1.6645,1,1.2883
30,1,5,3,0.409,2.3378,2,1.6691,1,1.6805
30,1,6,3,0.66029,2.4584,2,1.8355,1,1.2304
30,1,7,3,0.53711,2.7055,3,1.1943,0,1.4143
30,1,8,3,0.38391,2.4286,2,4.663,1,1.333
30,1,9,3,0.32534,2.2738,3,1.1843,0,2.3442
30,1,10,3,0.64647,3.279,2,1.1862,1,1.4198
30,1,11,3,0.55765,2.3887,3,2.419,0,1.1898
30,1,12,3,0.56928,2.3938,2,1.3866,1,1.4833
30,1,13,3,0.38342,2.7006,3,1.4749,1,2.4621
30,1,14,3,0.4799,2.9022,3,1.465,0,1.8025
30,1,15,3,1.1647,2.4266,3,1.4851,0,2.3683
30,1,16,3,0.5376,1.6714,2,1.4587,0,0.86226
30,1,17,3,0.3124,2.4543,2,1.7564,0,1.0462
30,1,18,3,0.51088,3.0788,1,2.6237,1,1.2573
30,1,19,3,0.54987,2.4776,3,1.1366,0,0.99548
30,1,20,3,0.35053,2.6025,2,2.6776,1,1.7118
30,1,21,3,1.0476,2.5387,2,2.4814,0,1.3278
30,1,22,3,0.48665,2.2036,3,2.5316,0,2.9904
30,1,23,3,1.6621,2.6135,3,1.564,1,1.826
30,1,24,3,0.90038,2.186,2,3.0306,0,0.71233
30,1,25,3,0.38281,2.244,2,1.5863,0,0.78129
30,1,26,3,0.63685,2.4538,3,1.9046,1,1.5327
30,1,27,3,0.96336,2.3891,3,2.32,0,1.7913
30,1,28,3,0.93661,2.8699,2,1.8019,0,1.306
30,1,29,3,0.55736,2.5605,3,1.7232,0,0.80963
30,1,30,3,0.61615,2.4384,3,1.0556,0,2.336
30,1,31,3,0.60868,2.6377,3,1.1672,0,1.905
30,1,32,3,0.65286,2.4667,2,1.6374,0,0.69577
30,1,33,3,0.51756,2.4311,3,1.3867,1,0.96983
30,1,34,3,0.52508,2.5459,3,1.5643,0,0.53813
30,1,35,3,0.58172,2.8881,2,1.3167,1,1.0919
30,1,36,3,0.78376,3.2666,3,1.2032,0,0.85749
30,1,37,3,1.3207,2.1061,2,2.8956,0,0.61196
30,1,38,3,0.63418,2.4676,3,0.97742,0,2.9284
30,1,39,3,0.24751,2.489,2,1.2316,1,0.8162
30,1,40,3,0.42162,2.3316,2,1.7624,0,0.7277
30,1,41,3,0.63506,2.7296,2,1.4755,0,0.62587
30,1,42,3,0.5573,2.3611,3,1.6508,0,0.69107
30,1,43,3,0.35123,2.6283,3,1.1243,1,0.66243
30,1,44,3,0.51322,2.4757,2,1.4845,1,1.1427
30,1,45,3,0.35125,3.0393,2,1.3306,1,0.71394
30,1,46,3,0.31794,2.9426,3,1.3842,1,0.97953
30,1,47,3,0.32339,2.8229,3,1.2321,0,0.99004
30,1,48,3,0.55598,3.0334,3,1.1243,1,0.95048
30,1,49,3,0.54381,2.8243,2,1.5323,0,0.70361
30,1,50,3,0.46641,2.9305,3,1.3253,0,0.61413
30,1,51,3,0.33792,2.6464,3,0.98884,1,0.71125
30,1,52,3,0.29768,2.6905,2,1.1818,0,1.4418
30,1,53,3,0.37556,2.8089,3,1.7346,1,0.71597
30,1,54,3,0.31868,2.3203,3,0.71668,0,1.0938
30,1,55,3,0.3048,3.1089,3,1.0079,0,0.52547
30,1,56,3,0.28024,3.1873,3,1.1536,1,1.8077
30,1,57,3,0.33055,2.7382,3,1.0417,1,1.1881
30,1,58,3,0.34425,2.4117,2,1.4875,0,1.3836
30,1,59,3,0.43503,2.166,3,1.19,0,0.88518
30,1,60,3,0.38375,2.3051,3,1.7684,0,0.61723
31,1,1,3,1.187,3.1302,2,4.6257,0,3.2655
31,1,2,3,1.6096,2.8117,3,3.0492,0,5.0524
31,1,3,3,1.1088,2.8747,3,1.37,1,0.59612
31,1,4,3,1.0254,3.7607,3,7.6071,0,2.6227
31,1,5,3,1.4804,4.1018,3,1.8235,1,2.4086
31,1,6,3,1.1604,2.0871,3,1.2935,0,1.627
31,1,7,3,1.373,3.2204,3,1.0394,1,0.48728
31,1,8,3,0.71182,3.7487,3,4.4633,1,3.5952
31,1,9,3,1.1865,3.2775,2,2.8714,0,1.7418
31,1,10,3,1.3807,1.6795,3,1.3113,0,1.5279
31,1,11,3,0.98204,3.7049,3,3.7764,1,1.8322
31,1,12,3,1.8608,2.7093,2,9.9353,1,1.539
31,1,13,3,0.65498,4.2963,3,3.6076,1,1.0055
31,1,14,3,1.3999,2.2785,3,0.98748,0,1.6731
31,1,15,3,1.0794,3.5866,2,2.5386,0,4.5182
31,1,16,3,1.0126,2.5751,3,1.7973,1,0.67979
31,1,17,3,1.3336,2.7651,3,3.6241,0,2.5683
31,1,18,3,1.1499,2.116,3,2.9768,0,1.2597
31,1,19,3,1.1438,2.3634,3,1.1612,0,2.3282
31,1,20,3,0.82178,2.8066,3,1.6316,0,5.1895
31,1,21,3,0.89123,2.6216,3,1.2678,1,0.64446
31,1,22,3,0.78353,2.5918,3,0.84648,1,0.45163
31,1,23,3,1.6739,3.8465,2,2.697,1,2.8648
31,1,24,3,0.51402,3.1006,3,1.3623,1,0.39148
31,1,25,3,0.73385,2.641,3,3.1082,0,1.9815
31,1,26,3,1.0147,2.4051,3,1.6199,0,0.36881
31,1,27,3,0.8728,1.7194,3,2.1809,0,0.96639
31,1,28,3,0.46216,3.5007,3,7.5855,1,6.0051
31,1,29,3,0.68121,1.5491,3,1.7033,0,0.51904
31,1,30,3,0.64883,2.8498,3,1.6128,1,0.16515
31,1,31,3,0.98083,2.5419,3,4.7341,0,1.7238
31,1,32,3,1.0335,1.8635,3,1.549,0,1.0518
31,1,33,3,0.66911,3.0558,3,1.7178,1,0.69209
31,1,34,3,1.3922,3.0584,2,2.3327,1,0.90089
31,1,35,3,0.52832,2.6137,3,2.6262,1,2.9988
31,1,36,3,0.56727,2.931,3,1.7761,0,2.1001
31,1,37,3,0.92575,4.152,2,2.7005,1,0.43919
31,1,38,3,0.85542,2.7349,3,1.1518,0,2.7447
31,1,39,3,0.79015,2.8934,3,3.8104,1,2.3952
31,1,40,3,0.69957,2.5807,3,1.8374,1,1.1704
31,1,41,3,0.73877,2.6598,3,3.7612,0,1.7455
31,1,42,3,0.68102,3.6655,3,1.6239,1,0.70009
31,1,43,3,0.70215,2.481,3,1.486,0,0.88143
31,1,44,3,0.80941,2.7614,3,1.2874,1,0.65728
31,1,45,3,0.45066,2.7769,3,1.6354,0,0.58105
31,1,46,3,0.6497,2.6536,3,1.5293,1,1.0786
31,1,47,3,0.52039,3.0069,3,2.8199,0,1.3524
31,1,48,3,0.63615,3.5562,2,2.4284,1,1.0006
31,1,49,3,0.74025,2.1371,3,1.4421,0,0.67552
31,1,50,3,0.69877,2.4622,3,1.4635,0,0.75396
31,1,51,3,0.54763,2.0521,3,1.5662,0,0.3042
31,1,52,3,0.72694,2.8268,3,1.4355,1,2.1187
31,1,53,3,0.68771,4.7449,2,1.7935,1,0.54993
31,1,54,3,1.7048,3.0898,3,2.2427,0,0.97432
31,1,55,3,2.5361,3.2904,3,2.2926,1,0.92302
31,1,56,3,1.7018,3.337,3,1.5408,1,3.798
31,1,57,3,1.9504,3.3404,2,2.9298,0,0.93729
31,1,58,3,1.6169,3.5544,3,1.7018,1,0.86683
31,1,59,3,1.3354,4.3913,3,1.5154,1,0.3275
31,1,60,3,1.2908,3.2477,3,2.0004,0,1.2902
32,1,1,3,3.1777,4.3807,2,2.3521,0,2.8694
32,1,2,3,1.4177,3.109,2,2.2264,0,2.0131
32,1,3,3,1.2891,5.1858,2,1.8158,1,1.5181
32,1,4,3,3.3975,4.9448,1,4.2773,1,4.2129
32,1,5,3,1.846,4.8117,2,1.2125,1,1.0113
32,1,6,3,2.3308,5.4856,2,1.3763,1,1.3219
32,1,7,3,0.81327,5.3894,2,0.94161,0,1.0404
32,1,8,3,1.0217,2.4672,2,1.6974,0,2.2709
32,1,9,3,1.0884,3.8179,2,2.0889,1,0.8374
32,1,10,3,2.0784,3.5482,2,1.6802,1,1.7536
32,1,11,3,2.4989,2.1944,2,1.9958,0,1.7174
32,1,12,3,1.5684,3.0349,2,2.0113,1,1.7157
32,1,13,3,1.2412,4.5967,1,1.6872,1,1.1419
32,1,14,3,4.1075,6.9891,2,1.4988,0,0.96711
32,1,15,3,2.2666,6.7409,2,1.6149,1,0.58364
32,1,16,3,0.82225,3.0307,3,2.075,0,3.3174
32,1,17,3,0.92866,3.0446,2,2.6138,0,1.3001
32,1,18,3,4.1706,6.2398,1,4.1338,1,1.3442
32,1,19,3,1.5818,5.7579,2,2.3696,1,0.73327
32,1,20,3,1.5455,3.6431,2,1.2711,1,0.60234
32,1,21,3,0.63971,2.527,2,1.6671,0,1.2284
32,1,22,3,1.3331,6.2359,2,1.2962,1,0.49275
32,1,23,3,2.0261,4.5482,2,1.3846,0,0.91439
32,1,24,3,1.1141,3.0864,2,1.1021,1,0.80339
32,1,25,3,0.5955,3.1435,2,1.3628,0,0.8964
32,1,26,3,0.55174,2.6887,2,1.0998,1,0.89119
32,1,27,3,0.58788,6.329,2,1.0794,1,0.53871
32,1,28,3,3.0864,3.9631,2,1.2532,0,0.91485
32,1,29,3,2.1469,9.3828,2,1.2657,1,0.65468
32,1,30,3,0.57748,2.0716,2,1.5736,0,0.85763
32,1,31,3,3.152,3.3874,2,2.6323,0,0.74059
32,1,32,3,0.47067,3.1753,2,1.1693,0,1.096
32,1,33,3,0.85277,2.7618,2,1.2971,0,0.46098
32,1,34,3,0.57386,3.6192,2,1.3592,1,1.0076
32,1,35,3,1.5682,4.0129,2,1.104,1,1.0752
32,1,36,3,2.9616,5.1985,2,0.9779,1,0.68477
32,1,37,3,1.0233,3.2294,2,1.0291,1,0.87578
32,1,38,3,0.55098,3.2218,2,0.96909,0,0.51556
32,1,39,3,0.49216,4.609,2,0.77868,1,0.49346
32,1,40,3,3.9177,5.6318,2,1.2241,0,1.8052
32,1,41,3,0.71934,2.058,2,1.1163,1,0.64331
32,1,42,3,0.71735,2.9616,2,1.0385,0,0.57727
32,1,43,3,0.75471,3.0985,2,1.0187,0,0.75923
32,1,44,3,0.52906,3.0905,2,1.1453,1,0.48146
32,1,45,3,0.87311,4.4172,2,1.2656,1,0.90147
32,1,46,3,0.34665,4.1983,2,1.093,1,0.48089
32,1,47,3,0.7136,1.9683,2,1.1949,0,0.66085
32,1,48,3,0.68365,3.208,2,0.69605,1,0.7095
32,1,49,3,0.86827,3.0915,2,1.0912,1,0.5676
32,1,50,3,0.45588,2.7262,2,1.8702,0,1.1501
32,1,51,3,0.87256,3.1382,2,2.3995,0,1.7635
32,1,52,3,0.67635,3.1031,2,1.1593,0,0.66934
32,1,53,3,0.56744,3.2273,2,1.3626,0,0.5704
32,1,54,3,0.55179,2.3626,2,0.97247,0,0.93688
32,1,55,3,0.66221,2.9086,2,1.2161,0,0.50818
32,1,56,3,0.54332,2.7877,2,1.2065,1,0.92537
32,1,57,3,0.47184,2.5282,2,1.2771,0,0.57984
32,1,58,3,0.96746,3.0663,2,1.2458,0,1.2011
32,1,59,3,0.45655,2.5465,2,1.322,0,0.44247
32,1,60,3,0.81438,2.9585,2,1.1141,1,0.37046
33,1,1,3,1.2001,2.8485,3,1.1615,1,0.97455
33,1,2,3,1.1176,3.0736,3,0.80683,1,0.61277
33,1,3,3,0.77527,3.1346,3,0.97518,1,0.33922
33,1,4,3,0.54337,2.9246,3,0.73418,1,0.31923
33,1,5,3,0.62757,2.9006,2,0.35066,1,1.0697
33,1,6,3,0.43378,2.5563,2,0.36927,0,0.89719
33,1,7,3,1.1183,2.1425,2,0.86088,1,0.2546
33,1,8,3,0.36221,2.5795,2,0.67558,1,0.96607
33,1,9,3,0.49816,2.1501,2,1.0515,0,0.89401
33,1,10,3,0.50588,2.5457,2,0.7367,1,0.9979
33,1,11,3,3.2137,3.6465,2,1.0351,1,0.4692
33,1,12,3,0.56335,3.1017,3,0.46328,0,0.94093
33,1,13,3,1.252,3.1789,2,1.3986,1,0.25204
33,1,14,3,1.3683,2.1667,3,0.33884,1,0.27546
33,1,15,3,0.66122,3.1259,3,0.92034,0,1.1101
33,1,16,3,1.7558,3.4555,3,1.0523,1,0.39601
33,1,17,3,0.42574,2.9985,3,1.2538,0,0.78378
33,1,18,3,0.59529,3.0411,2,1.1818,0,0.61573
33,1,19,3,0.50492,2.7227,3,1.4821,1,0.2765
33,1,20,3,1.729,3.3627,3,1.1244,1,0.47522
33,1,21,3,0.5693,3.2579,3,0.88073,1,0.22828
33,1,22,3,0.9865,3.34,2,0.74254,1,0.43985
33,1,23,3,0.31167,3.253,3,0.61436,0,0.8673
33,1,24,3,1.0058,3.3719,3,0.35362,1,0.28624
33,1,25,3,0.33733,3.0579,2,0.49498,0,0.95073
33,1,26,3,0.56306,3.566,3,0.97517,1,0.36402
33,1,27,3,0.56375,3.2514,3,0.63855,1,0.27299
33,1,28,3,0.58742,3.1594,3,1.4576,1,0.23727
33,1,29,3,0.51121,3.5381,3,1.1769,1,0.664
33,1,30,3,1.093,2.8952,3,1.4877,1,0.90828
33,1,31,3,1.0722,2.9308,3,1.051,0,0.68202
33,1,32,3,0.44656,2.7806,3,0.43936,1,0.29977
33,1,33,3,0.43519,3.0046,3,1.3655,0,0.4542
33,1,34,3,0.61424,2.9997,2,0.42364,1,0.27547
33,1,35,3,0.57522,2.551,3,0.57577,1,0.22905
33,1,36,3,0.60867,2.5876,3,1.0543,0,0.50997
33,1,37,3,1.1835,3.7157,2,0.73676,1,0.33563
33,1,38,3,0.59662,2.7677,3,0.73877,0,0.54762
33,1,39,3,0.52509,2.6854,3,0.34013,1,0.17555
33,1,40,3,0.43297,3.0293,3,0.78725,0,0.57161
33,1,41,3,0.30473,2.9612,3,0.48427,1,0.25897
33,1,42,3,0.4022,3.3666,3,0.79865,1,0.36663
33,1,43,3,0.31142,2.7174,2,1.5513,0,0.86662
33,1,44,3,0.6464,2.5638,3,1.0969,1,0.32746
33,1,45,3,0.5385,3.2109,3,0.99679,0,0.41486
33,1,46,3,0.48543,3.3188,3,0.87452,0,0.51449
33,1,47,3,1.8197,2.6647,3,0.91001,1,0.25433
33,1,48,3,0.098963,2.6923,3,0.92246,0,0.74827
33,1,49,3,0.52244,2.659,3,0.7841,1,0.43209
33,1,50,3,0.0085148,3.4384,3,0.74061,0,0.55044
33,1,51,3,0.61472,2.3618,3,0.82479,1,0.33865
33,1,52,3,0.48526,2.8278,3,0.9238,0,0.82455
33,1,53,3,0.40808,2.8264,2,0.63432,0,1.0322
33,1,54,3,0.47243,3.1316,2,1.6006,1,0.41639
33,1,55,3,0.41971,3.0583,3,0.70751,1,0.3134
33,1,56,3,0.40217,2.5186,3,1.1398,0,0.63644
33,1,57,3,0.40857,2.3606,3,0.48754,1,0.27377
33,1,58,3,0.5562,3.0435,2,0.89671,1,0.34102
33,1,59,3,0.45327,2.6281,3,0.41231,1,0.23992
33,1,60,3,0.4538,2.8193,3,0.54003,1,0.25186
34,1,1,3,1.6906,3.3341,2,1.9231,1,1.7089
34,1,2,3,0.9823,3.3289,3,2.3475,1,0.87398
34,1,3,3,1.4974,2.8656,2,1.9364,0,0.82983
34,1,4,3,0.71926,3.3909,2,1.6051,1,1.6595
34,1,5,3,0.59053,3.3967,3,2.0237,0,2.1593
34,1,6,3,1.3679,2.3019,2,1.3907,0,0.92411
34,1,7,3,0.41727,2.9511,2,1.4377,1,5.8336
34,1,8,3,0.526,3.0107,2,1.8985,1,1.6018
34,1,9,3,0.53366,2.9809,3,1.4969,0,1.8261
34,1,10,3,0.54044,2.958,2,1.3076,1,1.0492
34,1,11,3,0.49508,3.0011,2,2.1504,0,0.79054
34,1,12,3,0.56462,3.1617,1,1.1479,1,3.1905
34,1,13,3,0.38649,3.383,2,0.88526,1,1.0947
34,1,14,3,0.43062,4.6619,1,1.1682,1,0.88158
34,1,15,3,0.46336,3.1674,2,1.211,0,1.8375
34,1,16,3,0.46925,3.8314,1,2.8618,1,1.2496
34,1,17,3,1.1628,3.0513,2,2.3011,0,1.1762
34,1,18,3,0.52061,3.1195,2,1.1894,1,0.56073
34,1,19,3,1.3376,2.5913,2,1.1827,0,0.61705
34,1,20,3,1.047,3.0768,2,0.84572,0,0.60175
34,1,21,3,0.4555,2.9323,2,1.8991,1,1.5768
34,1,22,3,0.45728,3.9984,1,1.0988,1,0.72922
34,1,23,3,0.93498,2.8262,2,1.2091,0,0.65122
34,1,24,3,0.50139,2.6915,2,0.88289,0,0.6926
34,1,25,3,1.7795,2.9253,2,0.84627,0,0.30137
34,1,26,3,0.59737,2.4894,2,1.2822,1,0.24143
34,1,27,3,0.57313,2.9959,2,0.94555,1,0.28823
34,1,28,3,0.86171,3.1037,3,1.0271,1,1.3995
34,1,29,3,1.6145,2.4251,2,1.2717,0,0.89726
34,1,30,3,0.91265,3.2736,2,0.63048,0,0.49148
34,1,31,3,0.6163,2.9533,2,1.5643,1,1.0013
34,1,32,3,1.5558,3.0048,3,0.9162,1,0.8306
34,1,33,3,1.4862,2.6928,3,2.3968,0,0.5986
34,1,34,3,0.66994,2.7071,3,0.60787,0,0.96392
34,1,35,3,0.66092,3.2991,3,1.0227,0,0.83564
34,1,36,3,0.64202,2.5767,3,0.83563,0,0.79566
34,1,37,3,0.6251,2.6094,3,2.9971,0,1.0378
34,1,38,3,0.61174,2.8028,3,1.0165,0,0.65419
34,1,39,3,0.38584,3.0025,3,1.0899,0,0.57308
34,1,40,3,0.26461,2.899,3,2.4865,0,1.1794
34,1,41,3,1.6959,3.213,2,1.5455,1,1.324
34,1,42,3,0.64385,3.0233,3,1.1057,1,0.71087
34,1,43,3,0.8292,3.2136,3,2.0621,1,0.72715
34,1,44,3,2.303,3.161,3,2.5104,1,1.3365
34,1,45,3,0.59247,3.3343,2,0.97494,1,0.60118
34,1,46,3,0.12964,3.4126,3,1.4485,1,0.59027
34,1,47,3,0.65025,3.9372,2,0.71306,1,0.65226
34,1,48,3,0.73278,2.7267,1,1.3727,0,1.9229
34,1,49,3,0.50754,3.4097,2,3.6447,0,1.2468
34,1,50,3,0.51339,3.1896,3,1.3294,1,1.275
34,1,51,3,1.2789,3.0034,3,0.8777,0,1.0256
34,1,52,3,0.19982,2.9562,2,0.79202,0,1.6111
34,1,53,3,0.48182,3.1646,3,1.5472,1,0.85038
34,1,54,3,0.48879,2.9326,2,1.9982,0,2.0761
34,1,55,3,1.2426,3.8323,1,1.246,1,0.5007
34,1,56,3,0.46374,2.7053,2,1.5184,0,1.243
34,1,57,3,0.48839,2.6573,2,1.9571,0,0.22237
34,1,58,3,0.42367,2.8481,2,1.2475,0,0.22713
34,1,59,3,1.1493,3.7156,1,1.4597,1,0.28743
34,1,60,3,0.35414,2.8228,3,1.3055,0,1.5972
35,1,1,3,3.1463,2.786,2,1.6402,0,1.7973
35,1,2,3,1.575,2.8972,2,2.0099,1,3.5363
35,1,3,3,1.3936,2.6364,3,2.6419,0,1.5092
35,1,4,3,0.80202,2.3536,3,1.8041,0,3.4578
35,1,5,3,1.2865,2.5773,3,1.7736,1,1.5477
35,1,6,3,0.6345,2.6176,2,1.3894,0,2.173
35,1,7,3,0.83296,2.6521,3,1.2532,1,1.4318
35,1,8,3,1.8246,2.6313,2,1.6725,0,1.8092
35,1,9,3,0.66703,3.1376,1,2.9781,1,1.4108
35,1,10,3,0.80638,2.9945,2,1.2352,1,1.3308
35,1,11,3,0.79452,3.0396,3,4.118,0,1.0766
35,1,12,3,0.42951,2.6161,3,1.0752,1,1.888
35,1,13,3,0.70637,2.4358,2,1.6286,1,1.4149
35,1,14,3,0.78743,2.0547,3,1.5065,0,1.0597
35,1,15,3,0.49917,2.5031,2,1.8286,0,1.2506
35,1,16,3,0.45544,2.0451,3,1.0466,0,0.88932
35,1,17,3,0.62052,2.4208,3,1.0304,0,0.93937
35,1,18,3,0.33368,2.1258,2,1.036,0,0.88287
35,1,19,3,0.3073,2.2858,3,0.94213,1,1.1382
35,1,20,3,0.51441,2.4369,1,1.0163,0,1.5188
35,1,21,3,0.31365,2.4389,1,0.98227,1,0.71619
35,1,22,3,0.56411,2.4899,1,0.79528,1,0.60089
35,1,23,3,0.71704,1.4872,3,1.008,0,1.0384
35,1,24,3,1.595,1.9245,1,0.77243,0,0.61268
35,1,25,3,0.76147,2.0025,2,1.0787,0,0.5881
35,1,26,3,0.385,2.4398,1,1.1949,1,0.93674
35,1,27,3,0.58887,2.4369,2,0.99103,0,0.95111
35,1,28,3,0.88314,2.6862,2,1.0284,1,0.88772
35,1,29,3,0.56389,2.0693,2,1.1672,1,0.65505
35,1,30,3,0.42895,3.1121,1,0.63621,1,1.2595
35,1,31,3,1.2189,2.0051,3,0.99488,0,0.88805
35,1,32,3,0.70954,2.2741,1,1.2962,0,1.0878
35,1,33,3,0.52504,1.9362,3,0.93014,0,2.1151
35,1,34,3,0.58339,2.5877,2,1.1059,1,0.78608
35,1,35,3,0.52503,2.4343,2,1.9261,0,1.1125
35,1,36,3,0.74323,2.3712,3,0.89398,0,0.78667
35,1,37,3,0.5133,2.2254,3,0.94835,0,0.86611
35,1,38,3,0.37783,2.5402,3,1.1701,1,0.80895
35,1,39,3,0.9721,2.4943,1,0.86177,0,0.85036
35,1,40,3,0.51289,2.6867,2,0.92907,1,0.6635
35,1,41,3,0.39741,2.338,1,1.1933,1,0.97594
35,1,42,3,0.41022,2.4267,2,0.84877,1,0.6416
35,1,43,3,0.64698,2.0657,2,0.93856,0,0.48663
35,1,44,3,0.814,2.2016,1,0.85427,0,0.5718
35,1,45,3,0.57157,2.7852,2,0.951,0,0.59364
35,1,46,3,0.34594,2.5898,3,0.73239,0,0.64322
35,1,47,3,0.28969,2.2999,1,0.93887,0,0.51147
35,1,48,3,0.27526,2.4634,2,1.0979,0,0.86545
35,1,49,3,0.30861,2.4895,3,0.97013,0,0.58367
35,1,50,3,0.55203,2.4776,3,0.76254,0,0.4265
35,1,51,3,0.27566,2.2782,3,0.75027,1,0.85576
35,1,52,3,0.3208,1.9684,3,0.91702,0,0.40612
35,1,53,3,0.32592,2.7247,2,0.87015,0,0.69713
35,1,54,3,0.33306,2.0899,3,0.94616,0,0.52569
35,1,55,3,0.32651,2.3642,2,0.81043,0,1.0746
35,1,56,3,0.33917,2.2687,3,0.71578,0,0.54315
35,1,57,3,0.29541,2.0936,3,0.88694,0,0.4965
35,1,58,3,0.67931,2.3743,1,0.68375,1,0.65724
35,1,59,3,1.0972,2.6739,1,0.67122,0,0.64777
35,1,60,3,0.66672,2.4807,1,1.0227,0,1.0248
36,1,1,3,1.2365,3.1047,3,1.9786,1,2.0024
36,1,2,3,1.1023,2.0932,2,2.4118,0,1.4508
36,1,3,3,0.75636,2.6466,3,1.0842,0,1.193
36,1,4,3,0.72935,2.7897,1,2.1314,0,1.2365
36,1,5,3,0.55195,2.6049,3,1.1305,1,4.1522
36,1,6,3,0.50056,2.888,3,1.0411,0,0.67555
36,1,7,3,0.62984,3.1045,3,1.0156,0,1.8044
36,1,8,3,0.67369,2.8996,2,1.7233,1,1.1349
36,1,9,3,0.35288,2.3828,1,2.7011,1,0.98853
36,1,10,3,0.78966,2.9239,3,1.0693,0,1.0326
36,1,11,3,0.49914,3.3307,1,1.2613,1,1.237
36,1,12,3,0.57013,2.9798,3,0.95776,1,1.3262
36,1,13,3,0.4219,2.108,2,1.2227,0,0.94802
36,1,14,3,0.76129,3.4237,3,1.3185,1,0.76763
36,1,15,3,0.52484,3.0364,1,1.4028,1,0.73097
36,1,16,3,0.46789,2.3926,2,1.873,1,1.297
36,1,17,3,0.43519,2.3154,3,1.0005,1,1.1302
36,1,18,3,0.50055,2.7784,1,1.1997,0,0.6667
36,1,19,3,0.54451,2.6607,3,1.2735,0,0.94974
36,1,20,3,0.57884,3.1495,3,1.1236,1,1.1368
36,1,21,3,0.0066618,3.0644,3,0.88401,1,0.5688
36,1,22,3,0.48812,2.9099,1,1.4103,0,0.67685
36,1,23,3,0.48114,2.8411,3,2.2454,0,0.95039
36,1,24,3,0.93637,2.8268,3,1.3352,0,2.5563
36,1,25,3,0.34037,2.3377,1,1.494,0,0.95973
36,1,26,3,0.40265,3.0662,3,1.0737,0,0.71278
36,1,27,3,0.51239,2.6274,3,1.3613,1,1.486
36,1,28,3,0.52017,2.7161,3,1.0874,0,0.43422
36,1,29,3,0.47019,2.8465,1,1.7222,0,0.50759
36,1,30,3,0.78197,2.8402,3,1.0687,0,0.39465
36,1,31,3,0.38479,2.5822,3,1.3246,0,0.79961
36,1,32,3,0.34634,2.3189,1,1.267,0,0.71764
36,1,33,3,0.50644,2.5253,3,1.2086,1,1.2506
36,1,34,3,0.42956,2.7562,1,1.2072,1,0.89877
36,1,35,3,0.42922,2.7427,3,0.98381,0,0.51919
36,1,36,3,0.68025,2.2554,3,0.91904,0,0.20788
36,1,37,3,0.5836,3.0133,1,1.1961,1,0.6755
36,1,38,3,0.40446,2.4581,3,0.89565,0,0.27655
36,1,39,3,1.0269,3.3204,3,2.3408,0,0.546
36,1,40,3,0.63436,2.7268,3,0.911,0,0.24999
36,1,41,3,0.5739,2.7003,3,1.0251,0,0.67662
36,1,42,3,0.39803,2.4748,1,1.1466,0,0.36539
36,1,43,3,0.38416,2.7935,3,1.1732,0,0.32358
36,1,44,3,0.48818,2.7233,2,1.6193,0,0.26848
36,1,45,3,0.35881,2.8721,1,1.7437,0,0.41238
36,1,46,3,0.46712,2.7763,2,0.95903,1,0.96089
36,1,47,3,0.42398,2.7597,3,0.90928,0,0.38658
36,1,48,3,0.37262,2.0736,1,1.1839,0,0.54339
36,1,49,3,0.43584,3.0676,3,1.0509,0,2.1802
36,1,50,3,0.48079,2.9881,2,1.0287,0,1.0256
36,1,51,3,0.43663,2.2954,2,1.6591,1,0.47523
36,1,52,3,0.38484,2.8944,3,0.97365,0,0.41305
36,1,53,3,0.59082,2.823,2,1.0435,0,0.69806
36,1,54,3,0.43062,2.4737,3,1.7698,0,0.95596
36,1,55,3,0.41683,3.0283,3,0.94873,1,0.42861
36,1,56,3,0.52467,1.8957,1,1.0733,0,0.58568
36,1,57,3,0.88609,2.4642,1,1.5605,0,0.39711
36,1,58,3,0.46743,2.576,1,1.4691,0,0.44344
36,1,59,3,0.41753,2.6138,1,1.536,0,0.38163
36,1,60,3,0.41057,2.9488,3,1.1232,1,1.9103
37,1,1,3,1.597,2.454,2,1.38,0,1.1885
37,1,2,3,0.66216,2.3171,3,1.9635,0,1.2669
37,1,3,3,2.0692,4.9487,2,1.009,1,0.4526
37,1,4,3,0.49421,3.3248,2,0.49466,0,1.4384
37,1,5,3,0.52545,3.2095,2,0.94535,0,1.5434
37,1,6,3,0.51344,2.4634,1,1.8269,0,1.5008
37,1,7,3,0.59636,2.9903,2,0.6074,1,0.70095
37,1,8,3,0.30309,3.4546,2,1.4276,1,0.58811
37,1,9,3,0.41155,3.0049,3,1.2043,0,1.3717
37,1,10,3,1.0229,1.9187,2,0.60553,0,1.636
37,1,11,3,0.75598,3.0208,3,2.4284,1,0.46243
37,1,12,3,0.57794,4.9516,1,1.8739,1,0.55992
37,1,13,3,0.56403,3.4665,2,1.7131,1,1.3552
37,1,14,3,0.54559,2.2546,3,1.1565,0,1.1105
37,1,15,3,0.58374,3.929,2,1.4342,1,0.86718
37,1,16,3,0.77282,3.0694,2,1.8896,0,1.2457
37,1,17,3,0.5187,1.9424,3,0.68733,0,1.5352
37,1,18,3,0.50645,3.3566,1,3.8042,0,1.9898
37,1,19,3,0.61047,3.5027,2,1.9381,1,0.49465
37,1,20,3,0.5455,3.1395,3,0.94212,0,1.7889
37,1,21,3,0.79468,3.2884,1,1.6412,1,1.6243
37,1,22,3,0.29036,3.7194,3,1.4011,1,1.0303
37,1,23,3,0.4875,2.0096,3,2.7991,0,1.4784
37,1,24,3,0.49982,2.4428,1,1.7734,0,3.1221
37,1,25,3,0.76279,4.1055,2,1.2769,1,1.4257
37,1,26,3,0.78786,1.8318,3,1.1144,0,1.277
37,1,27,3,3.5887,3.8158,2,1.9883,0,1.7941
37,1,28,3,0.98576,7.2423,1,3.8253,1,0.78104
37,1,29,3,6.3407,3.4488,2,0.55055,0,0.58206
37,1,30,3,0.48693,2.8195,3,1.003,0,0.70849
37,1,31,3,0.44304,3.0608,3,1.3603,0,0.73864
37,1,32,3,0.425,3.0621,2,1.5998,1,0.84003
37,1,33,3,1.1499,2.9365,2,1.741,0,1.1611
37,1,34,3,0.5837,3.6627,2,2.073,1,1.2716
37,1,35,3,0.41665,2.9759,3,1.6336,1,1.4794
37,1,36,3,0.44852,3.7743,2,1.0297,0,0.82737
37,1,37,3,1.0001,3.7119,3,1.9214,1,1.1446
37,1,38,3,0.57134,2.344,2,2.9123,0,0.99934
37,1,39,3,0.76394,3.3282,2,2.0975,1,1.0777
37,1,40,3,0.43704,3.4317,3,0.55073,1,0.97106
37,1,41,3,0.46992,3.2668,3,0.34105,0,1.4529
37,1,42,3,0.62243,3.6955,2,2.4214,0,2.1444
37,1,43,3,0.78294,2.3928,1,3.7985,1,1.6247
37,1,44,3,1.5617,3.1986,2,2.1516,1,1.1659
37,1,45,3,0.49467,3.6171,3,2.0514,1,1.4423
37,1,46,3,0.36633,3.5287,2,0.97333,0,1.7489
37,1,47,3,0.87083,11.169,1,1.1107,1,0.77791
37,1,48,3,0.72409,1.6983,3,1.2137,0,1.3514
37,1,49,3,0.385,2.7065,2,0.99501,0,1.4047
37,1,50,3,0.75074,3.0165,3,1.2986,1,0.76487
37,1,51,3,0.342,3.2854,2,1.4631,0,1.5546
37,1,52,3,0.41201,3.4876,3,1.2532,1,1.7327
37,1,53,3,0.30914,3.0886,3,1.53,0,1.2545
37,1,54,3,1.0638,2.8934,2,2.3098,1,0.61076
37,1,55,3,0.46915,3.0187,3,1.6634,1,1.5799
37,1,56,3,4.1815,3.2542,2,1.365,0,0.90282
37,1,57,3,0.39139,3.5617,3,1.8602,0,1.2495
37,1,58,3,1.0122,3.8034,2,1.2743,1,1.4756
37,1,59,3,0.95305,2.8155,1,1.6858,0,0.39353
37,1,60,3,0.46197,3.7417,3,6.0813,1,1.0418
38,1,1,3,0.71776,2.0024,2,3.3799,0,1.2606
38,1,2,3,0.79804,2.7051,3,1.1302,0,1.8142
38,1,3,3,0.66711,2.9024,2,3.6528,0,0.90403
38,1,4,3,0.53153,2.6384,3,2.0055,0,1.5584
38,1,5,3,0.63414,2.8411,3,1.7583,1,3.0233
38,1,6,3,0.81957,2.3835,2,3.6635,0,1.1609
38,1,7,3,0.53271,2.3527,3,1.6042,0,1.3444
38,1,8,3,0.67189,2.095,3,1.8012,0,0.57842
38,1,9,3,0.79332,2.6618,3,1.2749,0,1.0499
38,1,10,3,0.73168,3.3888,3,1.2798,0,2.317
38,1,11,3,0.85108,2.3544,2,1.8315,0,2.4254
38,1,12,3,0.81285,2.592,3,2.1726,0,1.8203
38,1,13,3,0.60936,2.4132,3,5.8138,0,0.8182
38,1,14,3,0.92226,2.0213,2,1.5573,0,0.79925
38,1,15,3,0.61347,2.1553,2,4.5829,0,0.89777
38,1,16,3,0.58224,3.0616,3,1.673,0,1.2601
38,1,17,3,0.65187,2.4685,3,1.4782,1,3.589
38,1,18,3,0.70603,2.3105,2,2.338,0,1.0048
38,1,19,3,0.50169,2.8403,2,3.2943,0,0.74616
38,1,20,3,0.57186,2.6851,3,1.2645,0,1.1523
38,1,21,3,0.48144,3.1794,3,1.4993,0,2.2908
38,1,22,3,0.53193,2.7877,3,2.1287,1,2.0012
38,1,23,3,0.51379,3.067,3,1.0738,0,0.98703
38,1,24,3,0.48899,2.257,2,4.1827,0,0.73693
38,1,25,3,0.59002,2.285,3,1.2536,0,1.4829
38,1,26,3,0.38604,2.2828,3,1.3135,0,0.66399
38,1,27,3,0.44961,2.5749,3,1.5965,1,2.179
38,1,28,3,0.62212,2.6063,2,4.4823,0,2.0734
38,1,29,3,0.57948,2.8257,3,1.358,1,3.7507
38,1,30,3,0.57199,2.9982,3,1.2885,0,0.87275
38,1,31,3,0.54483,2.59,3,1.8575,0,0.98564
38,1,32,3,0.47448,3.0124,3,1.1993,0,2.3162
38,1,33,3,0.50768,3.1234,3,2.0684,0,0.70419
38,1,34,3,0.65531,3.5591,3,1.2822,1,1.603
38,1,35,3,0.42413,3.1628,3,1.8117,1,1.2262
38,1,36,3,0.42321,2.4577,3,0.85807,0,1.7025
38,1,37,3,0.90922,2.6362,3,3.5654,1,1.2136
38,1,38,3,0.99366,2.4373,2,2.2552,0,3.8938
38,1,39,3,0.46923,3.4282,3,1.2981,0,5.5146
38,1,40,3,0.46232,3.4543,3,1.365,1,0.7893
38,1,41,3,0.48174,2.1788,3,1.7762,0,1.1134
38,1,42,3,0.40608,2.6983,2,2.2267,0,0.82458
38,1,43,3,0.55807,3.1386,3,1.3801,1,2.3127
38,1,44,3,0.60956,3.2896,2,1.6433,1,0.73821
38,1,45,3,0.69889,3.1733,2,1.855,1,1.7589
38,1,46,3,0.50879,2.3492,2,2.3506,1,3.0158
38,1,47,3,0.47074,2.9209,3,1.6286,0,2.9034
38,1,48,3,0.44533,2.855,2,2.0038,0,0.73114
38,1,49,3,0.44845,3.1253,2,1.5072,1,1.4234
38,1,50,3,0.39293,2.566,3,2.8494,0,1.192
38,1,51,3,0.48171,2.3522,3,1.4027,0,0.73212
38,1,52,3,0.48043,2.6436,3,1.3358,0,1.7818
38,1,53,3,0.53991,3.2316,2,2.2255,1,1.3611
38,1,54,3,0.45761,2.7251,3,1.172,0,1.1223
38,1,55,3,0.41856,3.4195,2,1.6892,0,0.60865
38,1,56,3,0.80028,3.9929,3,3.1429,0,2.3715
38,1,57,3,0.59658,2.6126,2,2.6005,1,1.8891
38,1,58,3,0.41699,3.1542,2,4.7277,0,0.91839
38,1,59,3,0.59051,2.7204,3,1.7904,1,1.2476
38,1,60,3,0.44317,2.2488,2,3.8883,0,0.6514
39,1,1,3,1.5468,2.3036,3,2.7538,1,2.3171
39,1,2,3,2.2709,2.1908,3,2.6342,0,2.0014
39,1,3,3,2.509,3.668,2,2.1109,1,1.9012
39,1,4,3,2.2762,3.0324,3,1.7157,0,2.3517
39,1,5,3,3.0605,2.6309,3,1.4603,1,2.0387
