"Subj_idx","Stimulus","Response","RT_dec","Confidence","RT_conf","SOA","Accuracy","Trial"
1,1,1,2.1247000000003,0.194889567001534,1.59107000000222,60,1,1
1,2,2,1.00420499999746,0.547845209433921,1.0916600000055,60,1,2
1,2,2,1.03164500000275,0.894106068696121,1.28919999999925,54,1,3
1,1,1,0.7387000000017,0.847633998541567,1.21986999999353,54,1,4
1,2,2,0.855060000001686,0.830859174698388,1.32008499999938,48.6,1,5
1,1,1,1.02556500000355,0.67714591593492,1.4577449999997,48.6,1,6
1,2,2,0.743934999998601,0.935003906475202,1.03979500000423,43.74,1,7
1,1,1,0.800045000003593,0.760906820107919,1.01826499999879,43.74,1,8
1,1,1,0.973989999998594,0.123840758964798,1.15597500000149,39.366,1,9
1,2,2,0.783004999997502,0.906527357729178,1.07134500000393,39.366,1,10
1,1,1,1.10719999999856,0.109577895445979,1.13244999999733,35.4294,1,11
1,2,2,0.711304999997083,0.76842822405346,1.26699000000372,35.4294,1,12
1,1,1,0.787135000005946,0.652566856176515,1.00555999999779,31.88646,1,13
1,2,2,1.76962499999354,0,1.21868499999982,31.88646,1,14
1,2,1,1.66019000000233,0,1.81954499999847,28.697814,0,15
1,1,1,0.996185000003607,0.802207074112231,1.02306999999564,31.88646,1,16
1,1,1,0.902939999999944,1,1.37915999999677,31.88646,1,17
1,2,2,1.21441500000219,0.427314782797286,1.07102000000305,28.697814,1,18
1,2,2,0.818630000001576,0.285282149049239,1.05892499999754,28.697814,1,19
1,1,1,0.69743500000186,1,1.49618000000191,25.8280326,1,20
1,1,1,0.823744999994233,0.994500047355977,1.21448500000406,25.8280326,1,21
1,2,2,0.780050000001211,0.715256981290964,1.67568999999639,23.24522934,1,22
1,2,2,0.873759999994945,0.58959724186743,1.28815000000031,23.24522934,1,23
1,1,1,0.650460000004387,0.790380987191429,1.02204499999789,20.920706406,1,24
1,2,2,0.832770000000892,1,1.24139999999898,20.920706406,1,25
1,1,1,0.724259999995411,0.422137409329146,1.3046650000033,18.8286357654,1,26
1,1,1,0.702100000002247,0.783212847632197,1.40304499999911,18.8286357654,1,27
1,2,2,0.759685000004538,0.579385547754394,1.06160499999532,16.94577218886,1,28
1,1,1,0.735864999995101,0.819793993067,0.942080000000715,16.94577218886,1,29
1,2,2,0.702019999996992,0.772987212097704,2.28809000000183,15.251194969974,1,30
1,2,2,0.885074999998324,0.38095238095238,1.26524999999674,15.251194969974,1,31
1,1,1,0.722805000004882,0.24513657773059,1.10517499999696,13.7260754729766,1,32
1,1,1,1.20771999999852,0.340279752505161,1.01547500000015,13.7260754729766,1,33
1,2,2,0.771390000001702,0.778804873711017,1.16416499999468,12.3534679256789,1,34
1,2,2,0.994979999995849,0.299372053418911,1.18398000000161,12.3534679256789,1,35
1,1,1,1.21845999999641,0.079977406179036,1.25948000000062,11.1181211331111,1,36
1,2,2,1.26750000000175,0.540164511427114,1.20949999999721,11.1181211331111,1,37
1,1,2,1.13774000000558,0.29952899286773,1.13408999999956,10.0063090197999,0,38
1,2,2,0.79677499999525,0.233512277377498,1.01263499999914,11.1181211331111,1,39
1,1,1,0.678354999996372,0.009256324999985,1.11270499999955,11.1181211331111,1,40
1,2,2,1.02260999999999,0.14009026317123,1.16355499999918,10.0063090197999,1,41
1,1,1,0.633559999994759,0.741732046103979,1.47046500000579,10.0063090197999,1,42
1,2,2,1.10432500000024,0.340327642369517,1.33335500000248,9.00567811781995,1,43
1,1,1,0.695870000003197,0.605473097691394,1.15892499999609,9.00567811781995,1,44
1,2,1,1.36609500000486,0,1.35489499999676,8.10511030603796,0,45
1,1,1,0.787909999999101,0.646082551343074,1.09377500000119,9.00567811781995,1,46
1,1,1,0.816034999996191,0.814273868678179,1.01620000000548,9.00567811781995,1,47
1,2,1,1.02522999999928,0.00741987778486,1.34180000000197,8.10511030603796,0,48
1,1,1,0.75626999999804,0.921937132142756,1.2849950000018,9.00567811781995,1,49
1,2,1,0.939525000001595,0.260056949522744,1.40412499999366,9.00567811781995,0,50
1,2,2,1.38405999999668,0.152493787021665,1.10838000000513,10.0063090197999,1,51
1,1,1,0.766150000003108,0.117874393152881,1.10801499999798,10.0063090197999,1,52
1,2,1,0.969294999995327,0.076734862470326,1.08431500000006,9.00567811781995,0,53
1,1,1,0.809290000004694,0.042196877669869,1.15581999999995,10.0063090197999,1,54
1,1,1,0.761480000001029,0.240275587491938,1.08924499999557,10.0063090197999,1,55
1,2,2,1.05446500000107,0,1.21912000000157,9.00567811781995,1,56
1,1,1,0.816950000000361,0.66963384642426,1.34280500000023,9.00567811781995,1,57
1,2,1,2.33923499999946,0.03609450936008,1.20269000000553,8.10511030603796,0,58
1,1,1,0.893985000002431,0.749959506694332,1.03938999999809,9.00567811781995,1,59
1,2,1,0.96731500000169,0.280881945643467,1.24090499999875,9.00567811781995,0,60
1,2,1,0.934375000004366,0,1.68268499999976,10.0063090197999,0,61
1,1,2,1.39430499999435,0.090030513858825,1.06378500000574,11.1181211331111,0,62
1,2,2,1.24686000000656,0,1.25300499999867,12.3534679256789,1,63
1,1,1,1.05703999999969,0.450892210177667,1.23934500000178,12.3534679256789,1,64
1,2,2,1.32470499999908,0.975875108054346,1.19071999999869,11.1181211331111,1,65
1,1,2,0.950064999997267,0.363477389549072,1.138334999996,11.1181211331111,0,66
1,1,1,1.05281000000105,0.096111130207487,1.06968000000052,12.3534679256789,1,67
1,2,2,1.34626500000013,0.722987895330466,0.970504999997502,12.3534679256789,1,68
1,2,2,1.05577999999514,0.695093414493032,0.964135000001988,11.1181211331111,1,69
1,1,1,0.990464999995311,0.198772232094958,1.34792000000016,11.1181211331111,1,70
1,2,2,1.18122500000027,0.622713484147449,1.12969499999599,10.0063090197999,1,71
1,1,1,1.84712500000023,0,1.17117999999755,10.0063090197999,1,72
1,1,2,0.858600000006845,0.47574178252023,1.14114499999414,9.00567811781995,0,73
1,2,2,0.68439500000386,0.606924937875094,1.01020499999868,10.0063090197999,1,74
1,2,2,0.803869999996095,0.497611009302847,0.990515000004962,10.0063090197999,1,75
1,1,1,0.845494999994116,0,1.31805500000337,9.00567811781995,1,76
1,1,1,0.755329999999958,0,1.32144499999413,9.00567811781995,1,77
1,2,2,0.97647500000312,0.449643852732426,1.08542000000307,8.10511030603796,1,78
1,1,2,0.855384999995294,0.256422601110998,1.03287999999884,8.10511030603796,0,79
1,2,1,0.962225000002945,0,1.26750000000175,9.00567811781995,0,80
1,1,1,1.02704000000085,0.984425789740264,1.52870999999868,10.0063090197999,1,81
1,2,2,0.840844999998808,0,1.61028000000078,10.0063090197999,1,82
1,1,1,1.56468500000483,0.328301893086334,1.06293000000005,9.00567811781995,1,83
1,2,1,0.754655000004277,0,1.19975999999588,9.00567811781995,0,84
1,1,1,0.891944999995758,0.4334501805077,1.15327500000421,10.0063090197999,1,85
1,2,2,0.660369999997783,0.296800779103578,2.30803999999625,10.0063090197999,1,86
1,1,2,0.704814999997325,0.631100008344375,0.957425000000512,9.00567811781995,0,87
1,2,1,1.3061200000011,0.443164804198143,1.07461499999772,10.0063090197999,0,88
1,2,1,1.04046999999991,0.400722414992462,0.983139999996638,11.1181211331111,0,89
1,1,1,1.12102500000031,0.197890606431787,0.991464999999152,12.3534679256789,1,90
1,1,1,0.803850000003818,0.664376799101059,1.12149499999941,12.3534679256789,1,91
1,2,1,0.777150000001653,0.733744146731205,1.01240500000142,11.1181211331111,0,92
1,2,2,0.744919999997364,0.027346884397235,1.27169500000309,12.3534679256789,1,93
1,1,2,0.704890000000829,0,1.61450999999943,12.3534679256789,0,94
1,2,2,0.886225000002072,0.922979685533816,1.20954499999783,13.7260754729766,1,95
1,1,1,0.757969999998691,0.868554444503162,0.963580000003334,13.7260754729766,1,96
2,1,1,1.249,1,2.24,60,1,1
2,2,1,1.488,1,1.196,60,0,2
2,2,1,3.854,1,1.569,66.6666666666667,0,3
2,1,1,1.434,1,1.658,74.0740740740741,1,4
2,1,1,1.423,1,1.159,74.0740740740741,1,5
2,2,2,1.389,1,1.247,66.6666666666667,1,6
2,1,1,1.11,1,1.071,66.6666666666667,1,7
2,2,2,1.284,1,1.232,60,1,8
2,2,1,1.93,1,1.438,60,0,9
2,1,1,1.161,1,1.081,66.6666666666667,1,10
2,2,2,1.216,1,1.245,66.6666666666667,1,11
2,1,1,1.099,1,1.179,60,1,12
2,2,2,1.201,1,1.64,60,1,13
2,1,1,1.068,1,1.111,54,1,14
2,2,2,1.174,1,0.908,54,1,15
2,1,1,1.107,1,1.053,48.6,1,16
2,2,2,1.257,1,1.609,48.6,1,17
2,1,1,1.151,1,1.081,43.74,1,18
2,1,1,1.407,1,1.021,43.74,1,19
2,2,2,1.322,1,1.261,39.366,1,20
2,1,1,1.104,1,1.132,39.366,1,21
2,2,2,1.477,1,1.431,35.4294,1,22
2,1,2,3.29,1,1.535,35.4294,0,23
2,2,2,1.298,1,1.271,39.366,1,24
2,2,2,1.829,1,1.516,39.366,1,25
2,1,1,1.931,1,1.874,35.4294,1,26
2,2,2,2.065,1,1.208,35.4294,1,27
2,1,1,1.227,1,1.049,31.88646,1,28
2,2,2,1.127,1,1.033,31.88646,1,29
2,1,1,1.236,1,1.369,28.697814,1,30
2,2,2,1.946,1,1.241,28.697814,1,31
2,1,1,1.274,1,2.177,25.8280326,1,32
2,1,2,1.991,1,2.124,25.8280326,0,33
2,2,2,2.069,1,1.385,28.697814,1,34
2,1,2,2.364,1,1.074,28.697814,0,35
2,2,2,1.507,1,0.908,31.88646,1,36
2,2,1,1.453,1,1.325,31.88646,0,37
2,1,2,1.416,1,1.29,35.4294,0,38
2,1,1,1.376,1,1.293,39.366,1,39
2,2,2,1.078,1,1.119,39.366,1,40
2,2,2,2.186,1,0.963,35.4294,1,41
2,1,1,1.327,1,1.103,35.4294,1,42
2,2,2,1.501,1,1.298,31.88646,1,43
2,1,2,1.185,1,1.309,31.88646,0,44
2,1,2,1.806,1,0.916,35.4294,0,45
2,2,2,1.186,1,0.953,39.366,1,46
2,2,2,1.037,1,0.867,39.366,1,47
2,1,1,0.999,1,1.304,35.4294,1,48
2,1,2,1.178,1,1.53,35.4294,0,49
2,2,2,1.06,1,1.29,39.366,1,50
2,2,2,1,1,1.58,39.366,1,51
2,1,2,1.782,1,1.542,35.4294,0,52
2,2,2,1.02,1,0.859,39.366,1,53
2,1,2,1.331,1,1.066,39.366,0,54
2,2,2,1.053,1,1.573,43.74,1,55
2,1,1,1.288,1,1.151,43.74,1,56
2,2,1,2.115,1,1.179,39.366,0,57
2,1,1,1.27,1,1.157,43.74,1,58
2,1,1,1.449,1,1.15,43.74,1,59
2,2,1,1.219,1,1.429,39.366,0,60
2,2,2,1.187,1,1.09,43.74,1,61
2,1,1,1.318,1,1.096,43.74,1,62
2,2,2,1.048,1,0.958,39.366,1,63
2,1,1,1.211,1,0.963,39.366,1,64
2,1,1,1.289,1,0.85,35.4294,1,65
2,2,2,0.995,1,1.161,35.4294,1,66
2,2,1,1.123,1,1.057,31.88646,0,67
2,1,1,0.977,1,0.926,35.4294,1,68
2,2,2,0.963,1,1.071,35.4294,1,69
2,1,1,0.971,1,1.104,31.88646,1,70
2,2,2,1.013,1,0.965,31.88646,1,71
2,1,1,0.911,1,0.996,28.697814,1,72
2,1,1,1.074,1,1.21,28.697814,1,73
2,2,1,1.293,1,1.227,25.8280326,0,74
2,1,1,1.164,1,1.009,28.697814,1,75
2,2,2,1.089,1,0.976,28.697814,1,76
2,1,1,0.945,1,0.979,25.8280326,1,77
2,2,2,0.893,1,0.87,25.8280326,1,78
2,2,2,1.057,1,1.031,23.24522934,1,79
2,1,1,1.001,1,0.992,23.24522934,1,80
2,1,1,1.097,1,1.358,20.920706406,1,81
2,2,2,0.926,1,1.23,20.920706406,1,82
2,1,2,1.102,1,1.004,18.8286357654,0,83
2,2,2,1.02,1,2.199,20.920706406,1,84
2,2,2,1.538,1,1.707,20.920706406,1,85
2,1,1,1.047,1,1.736,18.8286357654,1,86
2,2,2,1.034,1,1.233,18.8286357654,1,87
2,1,1,2.023,1,1.056,16.94577218886,1,88
2,2,2,1.114,1,1.095,16.94577218886,1,89
2,1,1,1.263,1,1.08,15.251194969974,1,90
2,2,2,0.912,1,0.994,15.251194969974,1,91
2,1,1,1.393,1,0.986,13.7260754729766,1,92
2,1,1,1.203,1,1.1,13.7260754729766,1,93
2,2,2,0.888,1,1.161,12.3534679256789,1,94
2,1,1,1.365,1,1.246,12.3534679256789,1,95
2,2,2,1.084,1,1.018,11.1181211331111,1,96
3,1,1,1.70313500000021,1,1.26591499999992,60,1,1
3,2,2,1.45651500000033,1,1.34553999999978,54,1,2
3,2,2,1.4960799999999,1,1.23376999999981,54,1,3
3,1,2,1.66588499999989,1,1.31772500000033,48.6,0,4
3,1,2,1.17709000000014,1,1.32361499999979,54,0,5
3,2,2,1.10937000000011,1,1.18857500000013,60,1,6
3,1,2,2.4709499999999,0.57272315466434,2.03801000000021,60,0,7
3,2,2,1.08078000000023,1,1.02170999999999,66.6666666666667,1,8
3,1,1,1.13648000000013,1,1.13684499999997,66.6666666666667,1,9
3,2,2,1.44455000000016,1,0.99760500000001,60,1,10
3,2,2,1.73851999999987,1,0.955214999999967,60,1,11
3,1,2,1.84938499999998,0.496634823118695,1.94608000000019,54,0,12
3,1,2,4.10030000000005,0.172278498555114,2.38165500000014,60,0,13
3,2,2,1.43264500000031,1,0.848700000000012,66.6666666666667,1,14
3,2,2,1.37190499999997,1,1.31190500000003,66.6666666666667,1,15
3,1,2,1.03513500000007,1,0.996405000000319,60,0,16
3,1,1,1.63786000000028,1,1.45243499999971,66.6666666666667,1,17
3,2,2,2.0996399999999,0.426827595076036,2.13512500000023,66.6666666666667,1,18
3,1,1,1.27818000000028,1,1.12885000000003,60,1,19
3,2,1,1.11750500000012,1,0.942959999999905,60,0,20
3,2,1,1.04599499999994,1,1.15690499999985,66.6666666666667,0,21
3,1,1,0.951524999999965,1,1.22042499999999,74.0740740740741,1,22
3,1,1,1.268685,1,1.33596499999979,74.0740740740741,1,23
3,2,1,3.65090000000014,0.183744323378443,1.84605999999982,66.6666666666667,0,24
3,1,1,1.00353999999969,1,0.956760000000009,74.0740740740741,1,25
3,2,1,1.25233500000008,1,1.03970499999973,74.0740740740741,0,26
3,2,1,1.1041349999996,1,1.32781500000006,82.3045267489712,0,27
3,1,1,1.26734000000032,1,1.22455499999976,91.4494741655236,1,28
3,1,1,0.922880000000121,1,1.1774650000002,91.4494741655236,1,29
3,2,1,1.41316000000009,1,1.93264499999984,82.3045267489712,0,30
3,2,2,7.20146500000008,0.505724431921253,1.560935,91.4494741655236,1,31
3,1,1,3.11040000000002,1,1.37658499999996,91.4494741655236,1,32
3,2,2,3.06709499999997,1,0.933880000000005,82.3045267489712,1,33
3,1,1,3.79969500000018,0.510381211806104,2.73831999999995,82.3045267489712,1,34
3,2,2,2.38642000000027,1,1.42803000000003,74.0740740740741,1,35
3,1,2,6.8607649999999,0.509424137434999,1.79890500000014,74.0740740740741,0,36
3,2,2,2.28051000000001,1,1.51989500000037,82.3045267489712,1,37
3,1,1,2.64809499999997,1,1.1647200000002,82.3045267489712,1,38
3,1,1,2.07346000000008,1,0.899024999999674,74.0740740740741,1,39
3,2,2,1.61306499999994,1,1.10271000000008,74.0740740740741,1,40
3,1,1,2.30701000000001,1,1.06186499999964,66.6666666666667,1,41
3,2,2,2.13588500000013,0.480177041733622,2.13275499999966,66.6666666666667,1,42
3,1,1,1.5930149999999,1,1.13524500000046,60,1,43
3,2,2,2.1957899999998,1,1.02505500000005,60,1,44
3,2,2,1.89741999999969,1,0.955520000000019,54,1,45
3,1,1,1.33437,1,1.23777999999991,54,1,46
3,1,1,1.00292000000027,1,1.2483600000001,48.6,1,47
3,2,1,0.827605000000331,1,1.16995999999973,48.6,0,48
3,2,2,1.799505,1,0.730960000000312,54,1,49
3,1,1,1.35725,1,0.909619999999879,54,1,50
3,1,1,1.28114999999979,1,0.910615000000224,48.6,1,51
3,2,1,1.64203999999969,1,1.14116500000004,48.6,0,52
3,1,1,0.989754999999655,1,1.10417000000004,54,1,53
3,2,1,1.04698999999976,1,1.03450500000012,54,0,54
3,2,1,1.28956500000006,1,1.15533000000007,60,0,55
3,1,1,3.85032499999995,1,1.42158000000019,66.6666666666667,1,56
3,2,2,1.35354999999981,1,0.970914999999921,66.6666666666667,1,57
3,1,1,1.46386500000011,1,1.25916000000015,60,1,58
3,1,1,0.942849999999977,1,0.648499999999767,60,1,59
3,2,1,1.69198999999976,0.510522881370698,1.82749999999988,54,0,60
3,1,1,1.10352999999991,1,1.3049299999997,60,1,61
3,2,1,1.29442999999993,1,1.01038000000012,60,0,62
3,2,1,1.62233999999985,0.219479564233626,2.22352499999991,66.6666666666667,0,63
3,1,1,1.04966499999992,1,0.652775000000023,74.0740740740741,1,64
3,1,1,2.2600149999999,1,0.983894999999786,74.0740740740741,1,65
3,2,2,1.36214500000002,1,0.807769999999902,66.6666666666667,1,66
3,2,2,1.78219000000041,1,0.819719999999972,66.6666666666667,1,67
3,1,1,0.927690000000061,1,0.929899999999558,60,1,68
3,2,2,2.32685499999975,0.07419123991216,2.36277500000014,60,1,69
3,1,1,2.31602000000025,0,1.10235999999987,54,1,70
3,1,1,0.893409999999683,1,0.836855000000098,54,1,71
3,2,1,1.7131999999996,0.539350986587409,3.48187000000011,48.6,0,72
3,2,2,1.38189000000001,1,0.920040000000037,54,1,73
3,1,1,0.940125000000116,1,1.06571499999973,54,1,74
3,2,1,1.83619499999983,0.132632064371654,2.10900500000024,48.6,0,75
3,1,1,1.04106499999994,1,0.8704300000004,54,1,76
3,1,1,0.93382500000007,1,1.11732999999996,54,1,77
3,2,1,1.1432999999997,0.551320463334487,2.83310500000021,48.6,0,78
3,2,2,2.26962999999977,0.472403758073197,1.465255,54,1,79
3,1,1,1.04509999999986,1,0.99742499999993,54,1,80
3,2,2,1.53963000000024,1,0.964744999999763,48.6,1,81
3,1,1,0.921895000000019,1,0.908345000000205,48.6,1,82
3,1,1,1.63547999999998,1,1.00534000000008,43.74,1,83
3,2,2,1.41975499999989,0.461016082208765,1.09191499999992,43.74,1,84
3,2,2,1.70901500000036,1,0.976779999999912,39.366,1,85
3,1,1,1.05002999999991,1,0.867069999999716,39.366,1,86
3,2,2,1.33486500000034,1,0.986889999999665,35.4294,1,87
3,1,1,0.876020000000135,1,1.00466999999981,35.4294,1,88
3,2,2,1.31648499999987,1,1.04632500000019,31.88646,1,89
3,1,2,2.28373999999987,0.141232830174436,1.39669000000006,31.88646,0,90
3,2,1,1.94118999999994,0.124620452399149,1.41193000000028,35.4294,0,91
3,1,1,0.940859999999753,1,0.820150000000023,39.366,1,92
3,2,1,1.21842000000016,1,0.853290000000037,39.366,0,93
3,1,1,1.05283999999985,1,1.11372999999998,43.74,1,94
3,2,1,0.918335000000312,1,0.623589999999735,43.74,0,95
3,1,1,0.763915000000037,1,1.00298999999987,48.6,1,96
4,1,1,3.46933500000069,0.219990077635226,2.07210500000019,60,1,1
4,2,2,1.50525500000003,1,1.89868499999921,54,1,2
4,2,2,1.60143000000063,1,1.32189999999991,54,1,3
4,1,1,1.45665000000008,1,1.18226500000036,48.6,1,4
4,2,2,1.29127499999959,0.928868331608597,1.00207500000033,48.6,1,5
4,1,1,1.29673000000004,0.909477856073591,1.55068499999924,43.74,1,6
4,2,2,1.37794500000018,0.946109564189259,1.32978000000003,43.74,1,7
4,1,2,2.17148499999984,0.299319727891156,1.78674500000032,39.366,0,8
4,2,2,1.16241499999978,1,1.93351499999972,43.74,1,9
4,1,1,1.19838999999955,0.83741945076797,1.07214500000008,43.74,1,10
4,1,2,3.25599999999942,0.268468475043019,1.27571499999976,39.366,0,11
4,2,2,1.17572999999992,0.898137017398491,3.15312499999983,43.74,1,12
4,2,2,1.01426999999967,0.922371653391204,1.18851499999984,43.74,1,13
4,1,1,0.672394999999611,0.940229203254902,2.60780500000055,39.366,1,14
4,1,1,1.78167500000019,0.82171497504416,1.42223000000013,39.366,1,15
4,2,2,1.25381000000017,0.891514438571331,1.90918499999953,35.4294,1,16
4,1,1,2.87837500000023,0.924996736227329,2.03638000000047,35.4294,1,17
4,2,2,1.06363500000045,0.967987843552217,1.2080649999998,31.88646,1,18
4,2,2,1.06473499999993,0.954997508279538,2.26839999999991,31.88646,1,19
4,1,1,0.97808499999973,0.948147477856886,1.81080500000008,28.697814,1,20
4,2,2,1.25471000000017,0.783962115526679,1.03142000000025,28.697814,1,21
4,1,1,1.48062500000015,0.812725425178387,1.37565499999982,25.8280326,1,22
4,2,1,2.65003499999965,0.062805666092938,2.99776999999996,25.8280326,0,23
4,1,1,1.32474000000005,0.900712200950134,2.77190999999945,28.697814,1,24
4,1,1,0.862425000000279,0.96199356233039,1.18255999999924,28.697814,1,25
4,2,2,0.848414999999513,1,0.955880000000412,25.8280326,1,26
4,1,1,1.44362999999977,0.957439621052694,2.06359499999962,25.8280326,1,27
4,2,2,1.67003500000009,0.96923692001849,1.33385499999986,23.24522934,1,28
4,2,2,1.46911499999987,0.747779876653572,2.38201500000013,23.24522934,1,29
4,1,1,1.134685,0.94958869991285,1.74492999999982,20.920706406,1,30
4,1,1,2.90536500000057,0.006802721088435,4.76765999999951,20.920706406,1,31
4,2,2,3.02126500000031,0.943301189606479,2.91299999999959,18.8286357654,1,32
4,1,2,3.39588499999995,0,1.37581500000029,18.8286357654,0,33
4,2,2,1.25600000000035,1,1.60315999999963,20.920706406,1,34
4,1,1,1.40141499999934,1,1.10840999999986,20.920706406,1,35
4,2,2,1.09847500000068,1,1.01087000000005,18.8286357654,1,36
4,2,2,1.51396999999997,0.876825138642271,3.90576499999949,18.8286357654,1,37
4,1,1,1.24396500000055,1,1.02948999999987,16.94577218886,1,38
4,1,2,2.1243899999999,0.344855736841766,2.18801500000065,16.94577218886,0,39
4,2,2,1.18522000000032,0.99301395726486,2.11078499999986,18.8286357654,1,40
4,2,2,1.11960000000003,1,1.30947500000003,18.8286357654,1,41
4,1,1,0.911864999999991,1,1.00835499999998,16.94577218886,1,42
4,1,1,2.75619000000006,0.568442088356841,1.43156999999977,16.94577218886,1,43
4,2,2,1.44465500000026,0.985041398923819,1.70984499999939,15.251194969974,1,44
4,1,1,0.899080000000133,1,0.929159999999683,15.251194969974,1,45
4,2,2,0.979954999999783,0.921545911355327,1.8691650000001,13.7260754729766,1,46
4,2,2,0.988110000000219,0.919783635424052,1.62652999999956,13.7260754729766,1,47
4,1,1,0.837545000000333,1,0.996984999999753,12.3534679256789,1,48
4,2,2,1.39148999999999,0.952211927634355,2.28416999999987,12.3534679256789,1,49
4,1,2,1.54186000000028,0.246565218540454,2.41452000000025,11.1181211331111,0,50
4,2,2,1.30196999999951,1,1.00876500000048,12.3534679256789,1,51
4,1,1,0.82052499999915,1,0.85052500000078,12.3534679256789,1,52
4,2,2,1.42343000000075,0.842856908118637,1.43156,11.1181211331111,1,53
4,1,2,2.98936000000045,0.71625408369512,1.06819999999972,11.1181211331111,0,54
4,2,2,1.23633500000049,1,1.37787500000017,12.3534679256789,1,55
4,1,1,1.16660999999935,0.572076156071361,1.48341500000056,12.3534679256789,1,56
4,1,1,2.05434499999956,0.780234760798332,1.73109999999998,11.1181211331111,1,57
4,2,2,1.30641000000015,0.932962602880103,2.56014999999932,11.1181211331111,1,58
4,2,1,2.46906500000024,0,2.98582499999972,10.0063090198,0,59
4,1,2,2.23279499999987,0.296168783680613,2.02653000000009,11.1181211331111,0,60
4,1,1,1.77913000000076,0.941574268081043,2.17140999999992,12.3534679256789,1,61
4,2,2,1.15828499999951,1,0.962245000000636,12.3534679256789,1,62
4,1,1,0.862764999999839,1,0.891730000000272,11.1181211331111,1,63
4,2,2,1.25612499999988,0.889723317606001,1.23044000000024,11.1181211331111,1,64
4,2,2,1.2745199999999,0.968799902901523,2.57320499999973,10.0063090198,1,65
4,1,1,1.16967999999999,0.943556796371658,1.56983500000025,10.0063090198,1,66
4,2,2,1.04827500000014,0.815940482934095,1.30484499999962,9.00567811781996,1,67
4,1,1,1.75846499999985,0.921937132142756,1.94860500000051,9.00567811781996,1,68
4,2,2,0.948910000000091,0.992545334137515,1.00958499999979,8.10511030603796,1,69
4,1,1,1.0659250000008,1,2.41512499999953,8.10511030603796,1,70
4,1,1,0.991755000000005,1,0.805034999999451,7.29459927543417,1,71
4,2,2,0.947689999999944,1,1.28877500000002,7.29459927543417,1,72
4,1,1,0.998190000000235,1,0.691079999999609,6.56513934789075,1,73
4,2,2,0.863790000000328,1,0.972679999999877,6.56513934789075,1,74
4,2,2,1.05555000000005,1,0.932095000000147,5.90862541310167,1,75
4,1,1,0.932860000000801,0.933607643257277,3.4507999999997,5.90862541310167,1,76
4,1,2,1.74636499999999,0.281427649782657,2.58027500000026,5.31776287179151,0,77
4,2,2,0.949395000000484,0.987336710489623,1.55871999999997,5.90862541310167,1,78
4,2,2,0.992240000000456,0.831927927152252,2.99683999999985,5.90862541310167,1,79
4,1,1,1.01624999999965,0.751513133129679,1.40918500000052,5.31776287179151,1,80
4,1,1,3.18066999999981,0.951450993197625,1.95556000000029,5.31776287179151,1,81
4,2,2,1.41286500000022,0.563381952013364,1.77528500000061,4.78598658461236,1,82
4,2,2,0.990600000000093,0.950033399092868,5.00276500000013,4.78598658461236,1,83
4,1,1,0.792304999999935,1,1.43290999999957,4.30738792615112,1,84
4,2,2,0.783919999999809,1,0.948750000000466,4.30738792615112,1,85
4,1,1,1.02839000000036,1,0.921924999999697,3.87664913353601,1,86
4,1,1,0.867349999999627,1,1.20573000000056,3.87664913353601,1,87
4,2,2,2.0560850000002,0.832568616540675,2.18024499999953,3.48898422018241,1,88
4,1,1,1.5814999999993,1,1.16478000000014,3.48898422018241,1,89
4,2,2,1.80501999999979,0.931649826618404,1.63043999999994,3.14008579816417,1,90
4,1,1,2.30007500000007,0.357501375467572,1.21418499999982,3.14008579816417,1,91
4,2,2,0.820995000000112,0.973991388026363,1.77491999999981,2.82607721834775,1,92
4,1,1,0.918025000000023,0.911893738411662,2.72104500000016,2.82607721834775,1,93
4,2,2,0.874329999999609,1,1.34119000000006,2.54346949651298,1,94
4,2,2,0.962255000000354,0.764356557255606,1.62971999999986,2.54346949651298,1,95
4,1,1,0.806765000000247,0.361921264192901,1.8106749999997,2.28912254686168,1,96
5,1,1,1.84862500000052,0,1.35500499999942,60,1,1
5,2,2,1.08860000000094,0.916206591455438,1.26392499999929,54,1,2
5,2,2,0.995699999999488,0.954048673237897,0.982275000000314,54,1,3
5,1,1,1.4913350000006,0.354114108648404,1.02589999999874,48.6,1,4
5,2,2,0.983114999999088,0.887300364418282,0.951910000001604,48.6,1,5
5,1,2,1.2653800000007,0.955418949619874,0.815355000000651,43.74,0,6
5,2,2,0.946410000000469,0.94029329183647,0.988939999999275,48.6,1,7
5,1,1,2.32464999999863,0.599761991225285,1.4355850000011,48.6,1,8
5,1,1,2.91287999999986,0.704866723517501,0.986205000001064,43.74,1,9
5,2,2,2.78993000000081,0.300312856459927,1.01593999999933,43.74,1,10
5,1,1,1.26670000000013,0.870291637987224,0.930814999999711,39.366,1,11
5,2,1,2.9665550000009,0.937255595776914,0.78165000000078,39.366,0,12
5,1,1,1.70797999999922,0.839800568883912,1.02664999999979,43.74,1,13
5,2,2,1.47535000000062,0.889768133493718,2.08582999999999,43.74,1,14
5,2,2,1.18060499999957,0.77450183995988,1.25979499999993,39.366,1,15
5,1,1,1.76527500000157,0.899558595030378,0.607764999998821,39.366,1,16
5,2,1,1.99335000000065,0.261261135789908,1.65533499999947,35.4294,0,17
5,1,1,1.04856499999916,0.812459033692329,0.770275000000751,39.366,1,18
5,2,2,0.889444999998901,0.931477540255093,0.905710000000894,39.366,1,19
5,1,1,0.869249999999767,0.921545911355327,0.653285000000324,35.4294,1,20
5,2,2,0.884135000000242,0.684114268953257,0.883739999999292,35.4294,1,21
5,1,1,0.932890000000072,0.958973692937343,0.622059999999678,31.88646,1,22
5,2,2,0.685934999999503,0.928997863523878,0.842905000001367,31.88646,1,23
5,1,1,0.865909999998607,0.853433817518827,0.711675000000483,28.697814,1,24
5,1,1,0.818409999999858,0.8299557582364,0.959800000000541,28.697814,1,25
5,2,2,0.950005000000587,0.738377545184808,1.43406499999948,25.8280326,1,26
5,2,2,1.22484500000061,0.571979055774524,0.997359999999404,25.8280326,1,27
5,1,1,0.759864999999991,0.888759305111469,0.731510000001435,23.24522934,1,28
5,1,1,0.786839999998861,0.808454209872834,0.728994999999471,23.24522934,1,29
5,2,2,1.10867499999949,0.78043526949549,0.96078000000125,20.920706406,1,30
5,2,2,0.90231999999925,0.512255847211074,1.1342450000011,20.920706406,1,31
5,1,1,0.700115000001446,0.910247147074198,0.736629999999423,18.8286357654,1,32
5,2,2,1.11131000000023,0.588870302559175,0.705599999999336,18.8286357654,1,33
5,1,1,0.77660499999905,0.947808090013167,0.740789999999863,16.94577218886,1,34
5,2,2,1.10947999999917,0.361554419371881,1.06948499999999,16.94577218886,1,35
5,1,1,0.705570000000065,0.928112416524247,0.692035000000033,15.251194969974,1,36
5,2,2,0.832030000001367,0.665837338868766,0.774149999999325,15.251194969974,1,37
5,1,1,0.803374999999534,0.967571172499895,0.796870000000112,13.7260754729766,1,38
5,2,2,2.25612499999988,0.443598967680334,0.754860000000917,13.7260754729766,1,39
5,1,1,1.38185999999952,0.32697405849883,0.865790000001667,12.3534679256789,1,40
5,2,1,1.43240500000137,0.126259053671462,0.946355000000098,12.3534679256789,0,41
5,1,1,1.48128999999969,0.810786335176873,0.755380000000529,13.7260754729766,1,42
5,1,1,0.849545000000973,0.668921572254492,0.747869999999239,13.7260754729766,1,43
5,2,2,2.2560799999992,0.231539806961007,1.12049999999907,12.3534679256789,1,44
5,1,1,0.852184999999765,0.735142004443655,0.731410000000324,12.3534679256789,1,45
5,2,1,1.20951999999856,0.653642441426714,0.677610000000626,11.1181211331111,0,46
5,1,1,0.928835000000603,0.625639607500519,0.787365000000107,12.3534679256789,1,47
5,2,2,0.943985000001674,0.665780112496283,1.54618499999924,12.3534679256789,1,48
5,1,1,0.763909999999683,0.984384737174377,0.725780000000668,11.1181211331111,1,49
5,2,1,0.977469999999797,0.689885949514414,0.672085000000137,11.1181211331111,0,50
5,1,1,0.764725000000908,0.881443821753399,0.580304999999469,12.3534679256789,1,51
5,2,2,0.737979999999865,1,0.832425000000512,12.3534679256789,1,52
5,1,1,1.4016449999999,0.868211224679685,0.623849999999919,11.1181211331111,1,53
5,2,2,1.10712500000047,0.743482855776997,0.826989999999583,11.1181211331111,1,54
5,1,2,2.03540000000066,0.629933170450351,0.838615000000573,10.0063090198,0,55
5,2,2,0.740595000001136,0.827335863184058,0.962994999999821,11.1181211331111,1,56
5,2,2,0.799614999999932,0.772987212097704,0.68507499999943,11.1181211331111,1,57
5,1,2,1.22181000000093,0.736616572188692,0.698664999999863,10.0063090198,0,58
5,1,2,1.41538000000041,0.708570732863011,0.737245000000228,11.1181211331111,0,59
5,2,2,0.810349999999744,0.771242287468888,0.962785000001488,12.3534679256789,1,60
5,1,2,1.42643499999936,0.83741945076797,1.07581500000018,12.3534679256789,0,61
5,2,2,0.976290000000503,0.83741945076797,1.00132499999925,13.7260754729766,1,62
5,1,2,1.19131000000017,0.870268799517358,0.918114999998594,13.7260754729766,0,63
5,2,2,0.839934999999998,0.906527357729178,0.945864999999641,15.251194969974,1,64
5,1,2,2.16427499999915,0.848124450558026,1.81211500000063,15.251194969974,0,65
5,2,2,1.02783499999897,1,0.76472000000102,16.94577218886,1,66
5,2,2,0.964995000000228,0.703418859324298,1.12211000000028,16.94577218886,1,67
5,1,1,1.19854500000109,0.955819169154961,0.716309999999823,15.251194969974,1,68
5,2,2,0.998470000000438,0.907717361325204,0.832319999999541,15.251194969974,1,69
5,1,2,1.22305500000034,0.834582859549352,0.756004999999306,13.7260754729766,0,70
5,1,1,4.7641999999996,0.205877703890511,0.965154999999853,15.251194969974,1,71
5,2,2,1.40064500000153,0.691440508277114,0.620444999998668,15.251194969974,1,72
5,1,1,1.07389499999955,0.800369022031431,0.672730000000214,13.7260754729766,1,73
5,2,2,1.08744499999925,0.66700958837487,0.967005000000412,13.7260754729766,1,74
5,2,2,1.80796499999997,0.027210884353741,1.19170999999915,12.3534679256789,1,75
5,1,1,1.00876499999873,0.895198865174699,0.577860000001208,12.3534679256789,1,76
5,1,1,1.04766000000021,0.692521438531088,0.822260000000824,11.1181211331111,1,77
5,2,2,0.897220000000729,0.805726150397461,0.704589999999385,11.1181211331111,1,78
5,1,2,1.64228000000003,0.695093414493032,0.83533499999973,10.0063090198,0,79
5,2,2,1.09753999999887,0.80105564682642,0.733755000001111,11.1181211331111,1,80
5,1,2,1.58240499999921,0.39666340296322,0.773694999999891,11.1181211331111,0,81
5,2,2,1.46332500000065,0.707482993197278,0.522100000000093,12.3534679256789,1,82
5,1,1,1.06271500000003,0.871866251032401,0.714065000000119,12.3534679256789,1,83
5,2,2,0.988910000000033,0.693905203901222,1.08727999999974,11.1181211331111,1,84
5,2,2,0.919605000000971,0.978766961385661,0.728924999999464,11.1181211331111,1,85
5,1,1,1.47805499999959,0.225872931506602,0.915485000001383,10.0063090198,1,86
5,1,1,1.39938000000076,0.142695127371637,0.752559999999008,10.0063090198,1,87
5,2,2,0.847045000000449,0.524364616883767,0.769444999999891,9.00567811781996,1,88
5,1,1,1.13639999999938,0.688439827637624,0.865934999999823,9.00567811781996,1,89
5,2,2,1.30778999999893,0.772987212097704,1.07112500000041,8.10511030603796,1,90
5,1,1,1.01333999999956,0.221008955654866,0.869974999999569,8.10511030603796,1,91
5,2,2,0.722979999998584,0.830859174698388,0.876040000001027,7.29459927543417,1,92
5,1,1,2.01433499999985,0.723255090225944,1.29609499999968,7.29459927543417,1,93
5,2,2,1.19587499999942,0.368479468652139,0.841100000001432,6.56513934789075,1,94
5,1,1,1.20012499999936,0.863048874441194,0.740295000001439,6.56513934789075,1,95
5,2,2,0.74534999999922,0.537414965986394,0.792660000001022,5.90862541310167,1,96
6,1,1,0.786,0.878117756449226,1.513,48.6,1,1
6,2,2,0.718,0.942960286986771,1.557,48.6,1,2
6,1,1,0.85,0.877097404843064,1.461,43.74,1,3
6,2,2,0.784,0.985861688880816,0.971,43.74,1,4
6,2,2,0.824,0.901953121320016,0.941,39.366,1,5
6,1,1,1.945,0.523844230666754,2.776,39.366,1,6
6,2,2,1.547,0.869126218864713,1.937,35.4294,1,7
6,1,1,0.824,0.906902133983182,1.437,35.4294,1,8
6,1,1,0.796,0.841494483070845,1.003,31.88646,1,9
6,2,2,0.812,0.779933916063458,1.14,31.88646,1,10
6,2,2,0.95,0.800369022031431,1.172,28.697814,1,11
6,1,1,3.608,0.198772232094958,2.927,28.697814,1,12
6,1,1,0.978,0.6901359849779,0.922,25.8280326,1,13
6,2,2,0.966,0.770330568410875,1.084,25.8280326,1,14
6,2,2,1.011,0.715607446539045,0.897,23.24522934,1,15
6,1,1,4.488,0,1.002,23.24522934,1,16
6,1,1,1.608,0.200326483146379,1.827,20.920706406,1,17
6,2,2,1.372,0.703555556090148,1.553,20.920706406,1,18
6,1,1,2.063,0.04664473846509,1.59,18.8286357654,1,19
6,2,2,1.073,0.606214814474327,1.183,18.8286357654,1,20
6,2,2,0.792,0.540401607047059,1.069,16.94577218886,1,21
6,1,2,1.183,0.22831218682187,1.521,16.94577218886,0,22
6,2,2,2.298,0.872208234997811,0.872,18.8286357654,1,23
6,1,2,1.258,0.638538355880679,1.287,18.8286357654,0,24
6,1,1,0.988,0.46938775510204,1.379,20.920706406,1,25
6,2,2,1.436,0.582773526042497,1.057,20.920706406,1,26
6,2,2,1.321,0.819192899573534,0.88,18.8286357654,1,27
6,1,1,1.424,0.274111371992434,1.189,18.8286357654,1,28
6,2,2,0.958,0.793499792913956,1.02,16.94577218886,1,29
6,1,2,1.792,0.787624806886953,0.954,16.94577218886,0,30
6,1,1,1.929,0.390538660786739,0.784,18.8286357654,1,31
6,2,2,0.837,0.849221250293014,0.885,18.8286357654,1,32
6,2,2,1.346,0.738062405817939,1.027,16.94577218886,1,33
6,1,2,0.998,0.64122839695377,1.055,16.94577218886,0,34
6,1,1,1.668,0.612367459563759,0.986,18.8286357654,1,35
6,2,2,0.913,0.756775394052778,0.817,18.8286357654,1,36
6,1,2,0.875,0.824302248436229,1.328,16.94577218886,0,37
6,2,2,1.225,0.829575121265517,1.37,18.8286357654,1,38
6,2,2,0.793,0.786131575022224,0.911,18.8286357654,1,39
6,1,2,1.006,0.694623858313599,1.191,16.94577218886,0,40
6,1,2,1.924,0.78076100329019,1.061,18.8286357654,0,41
6,2,2,1.15,0.771141030262227,1.045,20.920706406,1,42
6,2,2,0.903,0.737536922862162,1.151,20.920706406,1,43
6,1,2,1.235,0.757289646145141,0.999,18.8286357654,0,44
6,1,1,2.185,0.559439388117251,1.124,20.920706406,1,45
6,2,2,1.045,0.740370816668669,0.719,20.920706406,1,46
6,1,1,2.118,0.623800771367746,0.865,18.8286357654,1,47
6,2,2,0.822,0.730650390164599,0.823,18.8286357654,1,48
6,1,1,0.906,0.857513004751887,0.953,16.94577218886,1,49
6,2,1,1.035,0.879838705424929,0.766,16.94577218886,0,50
6,1,1,1.642,0.030578895020162,0.944,18.8286357654,1,51
6,2,1,2.084,0.361187307560345,0.938,18.8286357654,0,52
6,2,2,0.833,0.608527960352874,0.81,20.920706406,1,53
6,1,1,1.672,0.596983734657008,0.919,20.920706406,1,54
6,2,2,1.071,0.638271804449168,1.197,18.8286357654,1,55
6,1,1,1.285,0.591238103307154,1.465,18.8286357654,1,56
6,2,2,1.1,0.538842040556721,1.45,16.94577218886,1,57
6,1,1,1.623,0.523844230666754,1.386,16.94577218886,1,58
6,1,1,1.135,0.578359634323731,0.92,15.251194969974,1,59
6,2,2,1.355,0.545664268238367,1.321,15.251194969974,1,60
6,1,1,1.289,0.515848622416881,1.118,13.7260754729766,1,61
6,2,2,1.032,0.59234046727109,1.069,13.7260754729766,1,62
6,1,1,1.155,0.610557654093112,1.653,12.3534679256789,1,63
6,2,2,0.81,0.751720079456504,1.051,12.3534679256789,1,64
6,2,2,1.554,0.850433319643209,1.176,11.1181211331111,1,65
6,1,1,1.918,0.25034955147261,1.371,11.1181211331111,1,66
6,1,1,1.696,0.160226794693135,1.223,10.0063090197999,1,67
6,2,2,0.875,0.715715253219037,1.321,10.0063090197999,1,68
6,1,1,1.777,0.265306122448979,1.546,9.00567811781995,1,69
6,2,2,0.852,0.772911414945558,1.133,9.00567811781995,1,70
6,1,1,1.286,0.338792804947181,0.898,8.10511030603796,1,71
6,2,2,0.974,0.792980713754939,0.903,8.10511030603796,1,72
6,1,1,1.344,0.39593382785486,1.468,7.29459927543416,1,73
6,2,2,0.937,0.693905203901222,1.243,7.29459927543416,1,74
6,1,1,1.019,0.520085391548585,0.983,6.56513934789075,1,75
6,2,2,1.129,0.628614619242277,0.917,6.56513934789075,1,76
6,1,1,1.206,0.25781100197625,1.332,5.90862541310167,1,77
6,2,2,1.017,0.481697860926485,1.467,5.90862541310167,1,78
6,1,2,1.108,0.502541497424657,1.094,5.3177628717915,0,79
6,2,2,1.364,0.532807526303886,0.857,5.90862541310167,1,80
6,1,1,2.176,0,1.611,5.90862541310167,1,81
6,2,2,1.996,0,0.979,5.3177628717915,1,82
6,1,1,2.087,0,1.018,5.3177628717915,1,83
6,2,1,1.319,0,1.993,4.78598658461235,0,84
6,2,2,1.146,0,1.69,5.3177628717915,1,85
6,1,2,1.217,0,0.902,5.3177628717915,0,86
6,2,1,1.091,0,1.214,5.90862541310167,0,87
6,1,2,1.071,0,1.097,6.56513934789075,0,88
6,2,2,0.856,0,1.895,7.29459927543416,1,89
6,1,2,1.185,0,1.176,7.29459927543416,0,90
6,2,2,0.9,0,1.269,8.10511030603796,1,91
6,1,1,1.858,0,1.084,8.10511030603796,1,92
6,1,1,1.358,0,1.031,7.29459927543416,1,93
6,2,2,0.798,0,1.064,7.29459927543416,1,94
6,2,2,0.745,0,0.844,6.56513934789075,1,95
6,1,1,1.01,0,1.044,6.56513934789075,1,96
7,2,2,1.12514500000179,0.904364267675755,0.728449999998702,48.6,1,1
7,1,1,0.70935499999905,1,0.604084999999031,48.6,1,2
7,1,1,1.84603000000061,0.305916258570629,1.79623499999798,43.74,1,3
7,2,2,0.80712499999936,0.889768133493718,1.13994000000093,43.74,1,4
7,1,2,1.42167500000141,0.638271804449168,1.04414499999984,39.366,0,5
7,2,2,1.07924499999717,0.604978211142732,2.3240500000029,43.74,1,6
7,2,2,0.794020000001183,0.797445273091987,1.69576500000039,43.74,1,7
7,1,2,2.61004999999932,0.295324705175181,2.90014000000156,39.366,0,8
7,2,2,1.66210999999748,0.395762019505239,1.59599000000162,43.74,1,9
7,1,1,0.718970000001718,0.880652881815229,1.46012999999948,43.74,1,10
7,2,1,0.763824999998178,0.736406071057135,1.60022000000026,39.366,0,11
7,1,2,0.954275000000052,0.825569400521311,1.13604000000123,43.74,0,12
7,1,1,2.71425499999896,0,1.39605999999912,48.6,1,13
7,2,2,0.776089999999385,0.80808929865249,1.00821999999971,48.6,1,14
7,1,1,2.54146000000037,0.008187777627037,1.33200000000215,43.74,1,15
7,2,2,0.748415000001842,0.676298950938251,1.6561249999977,43.74,1,16
7,2,2,0.77496500000052,0.811198721565028,0.972374999997555,39.366,1,17
7,1,1,1.20918000000165,0.793475081384037,1.53209000000061,39.366,1,18
7,2,2,0.886514999998326,0.760906820107919,1.40406500000245,35.4294,1,19
7,1,1,0.767175000000861,0.965485467586923,1.19215500000064,35.4294,1,20
7,1,1,0.765185000000201,0.912113089746314,0.956094999997731,31.88646,1,21
7,2,1,1.69266000000061,0.38975725526703,1.36015499999849,31.88646,0,22
7,1,2,0.661384999999427,0.596514461160622,1.09615000000122,35.4294,0,23
7,2,2,0.988145000002987,0.193172490754516,1.18017999999938,39.366,1,24
7,2,2,0.91327999999703,0.662166649931266,2.35232499999984,39.366,1,25
7,1,1,0.737585000002582,0.895533164794132,1.06415500000003,35.4294,1,26
7,1,1,0.718150000000605,0.897803554235443,1.09586999999738,35.4294,1,27
7,2,2,0.937939999999799,0.816205907405556,1.98816000000079,31.88646,1,28
7,2,2,0.87248499999987,0.698730465439699,1.87203999999838,31.88646,1,29
7,1,1,0.838254999998753,0.894306872736689,1.22002500000235,28.697814,1,30
7,2,2,0.96056000000317,0.726960599702154,1.16431000000011,28.697814,1,31
7,1,1,2.34331999999995,0,1.1001299999989,25.8280326,1,32
7,2,2,1.19103499999983,0.054890365357124,1.90051499999754,25.8280326,1,33
7,1,2,1.16439499999979,0.260974750466825,1.22073499999897,23.24522934,0,34
7,1,2,0.824564999998984,0.270376667986052,0.988099999998667,25.8280326,0,35
7,2,1,1.77306999999928,0.009256324999985,1.6922650000015,28.697814,0,36
7,2,2,1.17340999999942,0.152806990640826,1.74809000000096,31.88646,1,37
7,1,1,5.37150000000114,0,0.944299999999173,31.88646,1,38
7,1,1,1.95107000000274,0,1.05582499999949,28.697814,1,39
7,2,2,0.705350000000151,0.764152494114047,1.19236000000092,28.697814,1,40
7,1,1,2.6189000000013,0,1.08417499999993,25.8280326,1,41
7,2,2,0.745490000001155,0.719157948149096,1.11189000000013,25.8280326,1,42
7,1,2,3.92342500000086,0,1.20818999999756,23.24522934,0,43
7,2,1,2.50364999999874,0.394730016330077,0.771860000000743,25.8280326,0,44
7,2,2,2.16803499999881,0,1.09537500000076,28.697814,1,45
7,1,1,0.838789999998,0.624976928409385,1.43601000000123,28.697814,1,46
7,1,1,0.833704999997281,0.543914528659807,1.10813500000222,25.8280326,1,47
7,2,2,0.799769999997807,0.4058066680661,1.02019000000291,25.8280326,1,48
7,1,1,1.48771499999933,0.371502352264378,1.65635499999917,23.24522934,1,49
7,2,2,0.805430000000284,0.645378350345088,1.61308500000089,23.24522934,1,50
7,1,2,1.13665000000037,0.26485235547678,1.33226999999897,20.920706406,0,51
7,2,2,3.01686500000139,0,0.852585000000545,23.24522934,1,52
7,1,1,2.15316499999969,0,0.971570000001579,23.24522934,1,53
7,2,2,2.67873499999772,0,0.912060000002384,20.920706406,1,54
7,1,2,1.88960500000033,0.049191758006708,1.4763100000018,20.920706406,0,55
7,2,2,0.878425000002608,0.283549222971831,0.896219999998691,23.24522934,1,56
7,2,2,2.30014499999746,0,1.2161300000007,23.24522934,1,57
7,1,1,1.81852500000241,0.008187777627037,0.960089999996824,20.920706406,1,58
7,1,1,0.822785000000324,0.262176208070862,0.916180000000168,20.920706406,1,59
7,2,2,0.717489999999118,0.824302248436229,1.20033500000136,18.8286357654,1,60
7,1,1,0.749749999999069,0.970068858839068,1.61173499999859,18.8286357654,1,61
7,2,2,1.39437499999988,0,2.15994999999751,16.94577218886,1,62
7,1,1,0.758529999999213,0.644644138023458,1.25215500000189,16.94577218886,1,63
7,2,2,1.05157999999938,0,0.763750000001863,15.251194969974,1,64
7,1,1,0.801104999998701,1,1.14862500000163,15.251194969974,1,65
7,2,2,1.01004499999905,0.531470627295034,1.23241000000056,13.7260754729766,1,66
7,2,2,1.40538500000187,0.411846262092413,0.955839999998687,13.7260754729766,1,67
7,1,1,0.730520000001008,0.784635939108824,1.30423499999958,12.3534679256789,1,68
7,2,2,0.781040000001667,0.299319727891156,1.03663999999838,12.3534679256789,1,69
7,1,2,1.74458000000234,0.176581139642827,1.2320699999982,11.1181211331111,0,70
7,1,1,0.860694999999425,0,1.05656000000093,12.3534679256789,1,71
7,2,1,1.8845800000017,0,0.888189999997849,12.3534679256789,0,72
7,1,1,2.77673499999952,0,0.956245000001159,13.7260754729766,1,73
7,2,2,0.926370000001043,0.152258666169848,1.1641249999993,13.7260754729766,1,74
7,1,2,1.15897000000044,0,0.767934999999823,12.3534679256789,0,75
7,2,2,3.54243500000302,0,2.4079700000002,13.7260754729766,1,76
7,2,2,1.07304000000295,0.195710670425287,0.920194999998785,13.7260754729766,1,77
7,1,1,0.933805000000517,0,0.940255000001402,12.3534679256789,1,78
7,1,1,0.951689999998023,0.447727191576548,1.1318849999989,12.3534679256789,1,79
7,2,2,0.800579999999201,0.286792725840493,1.15616999999835,11.1181211331111,1,80
7,1,1,1.18010000000137,0,1.10030499999993,11.1181211331111,1,81
7,2,1,2.0902700000006,0,1.28401499999745,10.0063090197999,0,82
7,1,2,0.86210999999824,0.076207376708906,1.22024500000046,11.1181211331111,0,83
7,2,2,0.927364999999525,0.000646415712442,0.956014999999781,12.3534679256789,1,84
7,1,2,3.37749999999866,0,0.971885000002629,12.3534679256789,0,85
7,2,2,3.90090500000224,0,1.08416500000021,13.7260754729766,1,86
7,2,2,0.751459999999497,0.298638931689468,1.2039299999997,13.7260754729766,1,87
7,1,2,2.10947500000108,0,1.02797999999893,12.3534679256789,0,88
7,1,2,0.899279999997816,0.314496226230519,0.844135000002978,13.7260754729766,0,89
7,2,2,3.85762500000052,0,1.24840499999846,15.251194969974,1,90
7,2,2,0.837719999999506,0.034144378656567,0.764075000002806,15.251194969974,1,91
7,1,1,0.771295000002312,0,0.760194999998901,13.7260754729766,1,92
7,2,2,1.3867499999979,0,0.928265000002226,13.7260754729766,1,93
7,1,2,0.954559999998193,0,0.892345000000205,12.3534679256789,0,94
7,1,2,1.30889499999827,0,0.896385000000009,13.7260754729766,0,95
7,2,1,0.713205000000075,0,0.808264999999665,15.251194969974,0,96
8,1,2,3.037,0,1.843,60,0,1
8,2,2,2.692,0,2.751,66.6666666666667,1,2
8,2,2,1.917,0.935497535805951,2.271,66.6666666666667,1,3
8,1,2,2.26,0,2.06,60,0,4
8,2,2,2.89,0,2.521,66.6666666666667,1,5
8,1,1,3.427,0,2.947,66.6666666666667,1,6
8,2,2,2.677,0.683218429652455,2.236,60,1,7
8,1,1,2.11,0.344903177421587,3.066,60,1,8
8,1,2,2.772,0,3.029,54,0,9
8,2,1,3.199,0,2.754,60,0,10
8,1,1,1.43,0.958637640825586,2.155,66.6666666666667,1,11
8,2,2,1.915,0.784436338723027,3.401,66.6666666666667,1,12
8,2,2,1.556,0.047619047619047,1.929,60,1,13
8,1,1,1.862,0.624404154047502,3.322,60,1,14
8,2,2,1.446,0.906527357729178,1.97,54,1,15
8,1,2,1.534,0,2.052,54,0,16
8,2,2,1.429,0.821355082443646,1.78,60,1,17
8,1,1,1.175,0.933478666107291,2.069,60,1,18
8,1,1,1.249,0.907497092006464,1.271,54,1,19
8,2,2,0.953,0.970068858839068,2.082,54,1,20
8,1,2,2.033,0,2.621,48.6,0,21
8,2,2,1.984,0,2.433,54,1,22
8,2,2,1.784,0.836829171558894,2.469,54,1,23
8,1,1,2.547,0,2.395,48.6,1,24
8,1,2,3.725,0,1.742,48.6,0,25
8,2,2,1.668,0,2.989,54,1,26
8,2,1,1.848,0,2.281,54,0,27
8,1,1,1.468,0.937576882603305,2.213,60,1,28
8,1,1,1.026,0.932962602880103,1.343,60,1,29
8,2,2,0.834,0.886176694820494,1.232,54,1,30
8,2,2,1.97,0,1.289,54,1,31
8,1,1,1.097,0.921893670264945,1.458,48.6,1,32
8,2,2,1.739,0.455820963501817,1.568,48.6,1,33
8,1,1,2.287,0,2.235,43.74,1,34
8,1,2,1.457,0,1.916,43.74,0,35
8,2,2,1.317,0.855174146127526,2.205,48.6,1,36
8,2,2,2.062,0.685763433637251,1.785,48.6,1,37
8,1,1,1.896,0.705112341705267,1.604,43.74,1,38
8,2,2,1.119,0.959204669322125,1.768,43.74,1,39
8,1,1,2.109,0,2.099,39.366,1,40
8,1,1,1.444,0,2.108,39.366,1,41
8,2,2,1.436,1,1.717,35.4294,1,42
8,1,2,1.558,0,1.724,35.4294,0,43
8,2,2,1.521,0.881985827769604,2.418,39.366,1,44
8,2,2,2.299,0,1.475,39.366,1,45
8,1,1,1.997,0,1.61,35.4294,1,46
8,2,2,2.279,0,1.969,35.4294,1,47
8,1,2,1.638,0,2.034,31.88646,0,48
8,2,2,1.425,0.91865075580744,1.762,35.4294,1,49
8,1,1,0.874,0.981054499486442,1.445,35.4294,1,50
8,1,2,1.781,0,1.298,31.88646,0,51
8,2,2,1.634,0,1.163,35.4294,1,52
8,1,1,1.063,0.739400970714202,1.638,35.4294,1,53
8,2,2,1.631,0.395074237373311,1.477,31.88646,1,54
8,1,2,1.966,0,1.301,31.88646,0,55
8,2,2,1.087,0.978766961385661,2.297,35.4294,1,56
8,2,2,1.633,1,1.405,35.4294,1,57
8,1,1,1.187,0.974716271480319,1.517,31.88646,1,58
8,2,1,2.436,0.003203473153631,1.326,31.88646,0,59
8,1,2,2.14,0,1.923,35.4294,0,60
8,2,2,1.715,0.762007052680075,2.283,39.366,1,61
8,1,1,0.979,0.986578953881911,1.298,39.366,1,62
8,1,1,1.274,0.889924973786122,1.112,35.4294,1,63
8,2,1,1.659,0.387318850840781,2.304,35.4294,0,64
8,2,1,2.319,0,1.33,39.366,0,65
8,1,1,1.099,0,1.088,43.74,1,66
8,2,2,1.836,0,1.435,43.74,1,67
8,1,2,1.923,0,1.165,39.366,0,68
8,2,2,2.268,0,1.305,43.74,1,69
8,1,1,1.328,1,1.517,43.74,1,70
8,1,1,1.135,1,1.024,39.366,1,71
8,2,2,1.719,0,1.871,39.366,1,72
8,2,2,1.459,1,2.059,35.4294,1,73
8,1,1,1.099,1,1.148,35.4294,1,74
8,2,2,2.746,0.088435374149659,1.605,31.88646,1,75
8,1,1,2.228,0.326284072097052,1.671,31.88646,1,76
8,1,2,2.258,0,1.569,28.697814,0,77
8,2,2,1.307,0.874576162474146,1.574,31.88646,1,78
8,2,2,1.536,0.110310123345964,1.57,31.88646,1,79
8,1,1,1.057,1,2.353,28.697814,1,80
8,1,2,1.583,0,0.92,28.697814,0,81
8,2,2,1.59,0.397306327377015,1.632,31.88646,1,82
8,1,2,1.189,0,1.612,31.88646,0,83
8,2,2,1.719,0.729696258221712,1.984,35.4294,1,84
8,1,2,2.044,0.325741227191687,1.405,35.4294,0,85
8,2,2,1.959,0,1.485,39.366,1,86
8,1,1,1.425,0.923348678734551,2.249,39.366,1,87
8,2,1,2.217,0,1.336,35.4294,0,88
8,1,2,2.526,0,1.259,39.366,0,89
8,2,2,1.411,0,1.9,43.74,1,90
8,1,1,1.821,0,1.581,43.74,1,91
8,2,1,1.757,0,1.777,39.366,0,92
8,2,2,1.061,1,1.039,43.74,1,93
8,1,1,0.829,1,1.272,43.74,1,94
8,1,1,0.957,0.931477540255093,1.112,39.366,1,95
8,2,2,1.288,0.853155082748742,0.969,39.366,1,96
9,1,1,0.875,0.93635548381235,1.587,48.6,1,1
9,2,2,2.183,0.356668292535668,1.091,48.6,1,2
9,1,1,0.835,0.842856908118637,0.701,43.74,1,3
9,2,1,0.733,0.757983420802549,0.655,43.74,0,4
9,2,1,0.901,0.721409764015894,0.635,48.6,0,5
9,1,1,0.776,0.782312925170068,0.669,54,1,6
9,1,1,0.638,0.948147477856886,0.743,54,1,7
9,2,2,0.83,0.319777908460389,1.141,48.6,1,8
9,1,1,0.743,0.435974078535582,0.551,48.6,1,9
9,2,2,1.626,0.91786574575036,1.269,43.74,1,10
9,1,1,0.807,0.797248392349471,0.631,43.74,1,11
9,2,2,0.805,0.822002792471861,1.141,39.366,1,12
9,2,1,1.15,0.602747156801336,0.659,39.366,0,13
9,1,1,1.02,0.921263273558285,0.736,43.74,1,14
9,1,1,1.119,0.742673209947519,1.095,43.74,1,15
9,2,2,0.75,0.662626400849833,0.665,39.366,1,16
9,2,2,0.882,0.935347324716209,1.348,39.366,1,17
9,1,1,0.95,0.587319192475183,0.696,35.4294,1,18
9,2,2,0.997,0.844569012522689,0.698,35.4294,1,19
9,1,1,0.792,0.863669754458867,0.597,31.88646,1,20
9,2,1,1.024,0.849524406417172,0.844,31.88646,0,21
9,1,1,0.765,0.926296039773006,1.064,35.4294,1,22
9,2,2,0.739,0.965735959365873,1.521,35.4294,1,23
9,1,1,0.784,0.95998123487076,0.941,31.88646,1,24
9,2,1,2.684,0.96923692001849,0.902,31.88646,0,25
9,1,1,0.907,0.966549667041969,0.911,35.4294,1,26
9,1,1,0.825,0.752314783651481,0.809,35.4294,1,27
9,2,2,1.801,0.402422433397326,0.987,31.88646,1,28
9,2,2,1.031,0.328939888010876,0.836,31.88646,1,29
9,1,2,1.707,0.881850353142478,0.974,28.697814,0,30
9,2,2,0.872,0.952718923643072,1.125,31.88646,1,31
9,1,2,0.818,0.93723417325708,1.266,31.88646,0,32
9,2,2,1.563,0.967571172499895,0.863,35.4294,1,33
9,1,1,1.751,0.946109564189259,1.123,35.4294,1,34
9,1,2,1.044,0.789512800823641,0.907,31.88646,0,35
9,2,2,1.384,0.861414358096808,0.978,35.4294,1,36
9,1,1,1.543,0.867730521096479,0.909,35.4294,1,37
9,2,2,1.652,0.115735752499975,1.162,31.88646,1,38
9,2,2,1.562,0.306997703873889,1.552,31.88646,1,39
9,1,1,1.542,0.404962569395598,0.785,28.697814,1,40
9,1,1,1.09,0.647928095358503,1.482,28.697814,1,41
9,2,2,0.961,0.933607643257277,0.898,25.8280326,1,42
9,1,1,1.504,0.098423780285281,1.671,25.8280326,1,43
9,2,2,1.056,0.977631766252218,0.645,23.24522934,1,44
9,1,1,2.076,0.277867920981393,0.711,23.24522934,1,45
9,2,2,0.828,0.872595677593585,0.81,20.920706406,1,46
9,1,1,0.969,0.939374326176196,1.133,20.920706406,1,47
9,2,2,1.212,0.905048993263326,1.027,18.8286357654,1,48
9,2,2,1.955,0.925191732524325,1,18.8286357654,1,49
9,1,1,1.148,0,1.063,16.94577218886,1,50
9,2,2,0.971,0.146798215728486,1.215,16.94577218886,1,51
9,1,2,1.219,0.521584514126518,0.79,15.251194969974,0,52
9,1,2,1.37,0,1.369,16.94577218886,0,53
9,2,2,1.459,0,1.293,18.8286357654,1,54
9,2,2,1.268,0.992708355420813,0.942,18.8286357654,1,55
9,1,1,1.764,0,1.299,16.94577218886,1,56
9,1,2,1.289,0,1.407,16.94577218886,0,57
9,2,2,1.054,0,1.578,18.8286357654,1,58
9,1,1,1.108,0.967675354919354,1.217,18.8286357654,1,59
9,2,2,1.222,0.363705828330107,1.067,16.94577218886,1,60
9,2,2,0.962,0.629933170450351,0.807,16.94577218886,1,61
9,1,1,1.139,0,1.119,15.251194969974,1,62
9,1,2,1.136,0,0.967,15.251194969974,0,63
9,2,1,1.339,0,1.106,16.94577218886,0,64
9,2,1,1.746,0,1.191,18.8286357654,0,65
9,1,1,1.334,0.959288648733371,1.217,20.920706406,1,66
9,1,1,0.968,0.975854425070569,1.153,20.920706406,1,67
9,2,2,1.164,0,0.895,18.8286357654,1,68
9,1,2,1.224,0,0.943,18.8286357654,0,69
9,2,1,1.056,0,1.513,20.920706406,0,70
9,1,1,0.881,0.949927534749911,1.186,23.24522934,1,71
9,2,2,0.984,0.966320220189113,1.312,23.24522934,1,72
9,1,1,0.897,1,0.806,20.920706406,1,73
9,2,2,1.445,1,0.815,20.920706406,1,74
9,2,2,2.05,0.167990739014853,1.158,18.8286357654,1,75
9,1,1,0.969,0.505260483779667,1.035,18.8286357654,1,76
9,2,2,1.122,0,0.979,16.94577218886,1,77
9,1,1,0.909,1,0.742,16.94577218886,1,78
9,2,2,1.001,0,0.822,15.251194969974,1,79
9,1,1,1.296,0,0.941,15.251194969974,1,80
9,1,1,1.114,1,0.872,13.7260754729766,1,81
9,2,2,1.117,0,0.829,13.7260754729766,1,82
9,1,1,0.834,1,1.558,12.3534679256789,1,83
9,2,2,0.984,0,1.157,12.3534679256789,1,84
9,1,1,0.938,0,0.867,11.1181211331111,1,85
9,2,1,0.961,0,0.898,11.1181211331111,0,86
9,1,1,1.184,0,0.917,12.3534679256789,1,87
9,2,1,1.098,0,0.813,12.3534679256789,0,88
9,2,2,0.998,1,0.657,13.7260754729766,1,89
9,1,1,1.186,1,0.616,13.7260754729766,1,90
9,2,2,0.884,0,0.971,12.3534679256789,1,91
9,1,1,1.023,0,1.205,12.3534679256789,1,92
9,1,1,0.878,1,1.035,11.1181211331111,1,93
9,2,2,1.352,0,0.883,11.1181211331111,1,94
9,1,1,1.023,0,0.897,10.0063090197999,1,95
9,2,2,1.058,0,1.089,10.0063090197999,1,96
10,2,1,1.42144000000553,0.778026283719788,1.9535400000168,48.6,0,1
10,1,1,0.912905000033788,0.971232529497425,1.47291000001132,54,1,2
10,2,2,1.19965000002412,0.921937132142756,2.42037499998696,54,1,3
10,1,1,0.988720000023022,0.984672073746974,2.32204499997897,48.6,1,4
10,1,1,0.756585000024643,0.964545618782293,1.36206499999389,48.6,1,5
10,2,2,0.841200000024401,0.938861075638363,1.81743499997538,43.74,1,6
10,1,1,0.719229999987874,0.918454557728239,1.13789999997243,43.74,1,7
10,2,1,1.48479499999667,0.884376266816141,2.04969499999424,39.366,0,8
10,2,1,0.784520000044722,0.952402078640205,1.91354499995941,43.74,0,9
10,1,1,0.726689999981318,1,1.62601499998709,48.6,1,10
10,2,1,0.695464999997057,0.982083402463278,2.97811999998521,48.6,0,11
10,1,1,0.847734999959357,1,1.0017050000024,54,1,12
10,1,1,1.50055999995675,0.940143745913274,1.36932000005618,54,1,13
10,2,1,1.10947500000475,0.987398127949161,1.67068999999901,48.6,0,14
10,2,1,0.844250000023749,0.966507952962133,1.6731199999922,54,0,15
10,1,1,4.10545500001172,0.904894416921931,2.21755000000121,60,1,16
10,2,2,1.1695550000295,0.931972789115646,2.00984000001336,60,1,17
10,1,1,1.38742500002263,0.918563561138436,1.83454000001075,54,1,18
10,1,1,1.94798500003526,0.932510844401082,1.50538499996765,54,1,19
10,2,2,1.58262500003912,1,3.51358999998774,48.6,1,20
10,2,2,2.88376500003505,0.610035377375376,2.36225999996532,48.6,1,21
10,1,1,1.59076500002993,0.96923692001849,1.90414999995846,43.74,1,22
10,2,2,1.9077099999995,0.928479641895014,1.88283999997657,43.74,1,23
10,1,1,0.998170000035316,0.988973368871258,2.06628999998793,39.366,1,24
10,1,1,1.71210000000428,0.975875108054346,1.38636499998393,39.366,1,25
10,2,2,1.69874500000151,0.913931948616921,2.79352000000654,35.4294,1,26
10,2,2,1.26988500001607,0.981733681071404,1.24143999995431,35.4294,1,27
10,1,1,0.934115000010934,0.986988615156441,1.26574000000255,31.88646,1,28
10,1,1,0.926550000032876,0.954470478989344,1.32107499998529,31.88646,1,29
10,2,2,1.00063999998383,0.972872072575287,1.50547999999253,28.697814,1,30
10,2,2,0.910934999992605,0.989034697524258,1.04776000004495,28.697814,1,31
10,1,1,2.13312000001315,0.42045581316082,2.1777749999892,25.8280326,1,32
10,1,1,0.838229999993928,0.943556796371658,1.8908100000117,25.8280326,1,33
10,2,2,0.918835000018589,0.975978517237995,2.58431499998551,23.24522934,1,34
10,1,1,0.807264999952167,0.962872803987965,1.28329000005033,23.24522934,1,35
10,2,2,0.909220000030473,0.977941478952409,1.13747999997577,20.920706406,1,36
10,2,2,1.48424000001978,0.818471091262013,1.88115500001004,20.920706406,1,37
10,1,1,0.847494999994524,0.99083219535338,1.62836000003153,18.8286357654,1,38
10,1,1,4.05361000000266,0.755771756028769,1.5533750000177,18.8286357654,1,39
10,2,2,1.15247499995166,0.992402671311471,2.34545000002254,16.94577218886,1,40
10,1,1,0.782385000027716,1,1.50573499995517,16.94577218886,1,41
10,2,2,1.27239499997813,1,1.36227000004146,15.251194969974,1,42
10,2,1,1.20915000000969,0.728555231465929,1.32292499998584,15.251194969974,0,43
10,1,1,3.01323499996215,0.971232529497425,1.33065000001807,16.94577218886,1,44
10,1,1,0.974329999997281,0.976536761755577,1.17771000001812,16.94577218886,1,45
10,2,1,1.83397999999579,0.769544746975677,1.51409500004956,15.251194969974,0,46
10,1,1,3.44555999996373,0.835647544890303,1.37657000002218,16.94577218886,1,47
10,2,2,2.07611999998335,0.967675354919354,1.76214000000618,16.94577218886,1,48
10,2,1,1.55012500000885,0.353368604757466,1.71308499999577,15.251194969974,0,49
10,1,1,0.892099999997299,1,1.12115999998059,16.94577218886,1,50
10,2,2,5.12924000003841,0.517567613569646,1.51237000001129,16.94577218886,1,51
10,1,1,4.04261499998393,0.480808075357084,2.16185000003316,15.251194969974,1,52
10,1,1,1.5128600000171,1,1.96968499996001,15.251194969974,1,53
10,2,1,1.29463000001851,0.974861191757326,1.2185499999905,13.7260754729766,0,54
10,1,1,4.35853999998653,0.615547109227022,1.94386500003748,15.251194969974,1,55
10,2,1,4.37199499999406,0.414883020211418,1.39364500000374,15.251194969974,0,56
10,2,1,4.33565999998245,0.91952230889048,1.94958499999484,16.94577218886,0,57
10,1,1,4.46892999997362,0.514793961284732,1.19220500002848,18.8286357654,1,58
10,2,1,1.50956000003498,0.985861688880816,1.18699499999639,18.8286357654,0,59
10,1,1,1.97234999999637,0.857119718368052,2.39330499997595,20.920706406,1,60
10,1,2,2.80593500001123,0.65259594517062,1.7837849999778,20.920706406,0,61
10,2,1,2.65846499998588,0.435374149659863,2.1543299999903,23.24522934,0,62
10,2,1,5.23392999998759,0.412846479412498,1.40150500001619,25.8280326,0,63
10,1,2,3.64722500002244,0.87038298671889,2.14583999995375,28.697814,0,64
10,2,2,3.79903500003275,0.857327948070359,1.56164500000887,31.88646,1,65
10,1,1,1.26645000005374,1,2.28924499999266,31.88646,1,66
10,2,2,4.0350599999656,0.513102976431437,1.31434500002069,28.697814,1,67
10,1,1,1.44926500000292,1,1.34489499998745,28.697814,1,68
10,1,1,1.47209500003373,0.99301395726486,1.85739999997895,25.8280326,1,69
10,2,1,1.2846300000092,0.97620598380587,1.5703199999989,25.8280326,0,70
10,2,1,1.18904500000644,0.970630066155653,2.1539899999625,28.697814,0,71
10,1,1,1.09066500002518,1,3.56218499998795,31.88646,1,72
10,2,1,1.393160000036,0.957523735169774,2.66296999994665,31.88646,0,73
10,1,1,1.00893999997061,0.946810526904752,1.02749500004575,35.4294,1,74
10,1,1,1.38955500000156,0.964315756617176,1.7940950000193,35.4294,1,75
10,2,2,1.22331999999005,0.989668232471116,3.96904499997618,31.88646,1,76
10,2,2,1.15497000003234,0.934123397396642,3.00955999997677,31.88646,1,77
10,1,1,0.780165000003763,0.943301189606479,1.88166999997338,28.697814,1,78
10,2,2,0.761159999994561,0.983193561717472,4.92992999998387,28.697814,1,79
10,1,1,1.14520000002813,0.975771689311263,1.48462499998277,25.8280326,1,80
10,2,2,2.76300999999512,0.509388663266092,1.13750500004971,25.8280326,1,81
10,1,1,1.32370500004617,0.958973692937343,1.67285499995342,23.24522934,1,82
10,2,2,0.873324999993201,1,5.92862999998033,23.24522934,1,83
10,1,1,2.50361499999417,1,1.16057000000728,20.920706406,1,84
10,2,2,1.45522999996319,1,2.07397000002675,20.920706406,1,85
10,1,2,1.96025499998359,1,2.06515999999829,18.8286357654,0,86
10,1,2,1.35965500003658,1,2.08951499999966,20.920706406,0,87
10,2,2,1.4062649999978,0.787351227156424,1.6362000000081,23.24522934,1,88
10,1,2,1.13930999999866,1,1.59567499998957,23.24522934,0,89
10,2,2,0.839009999996051,0.982885293963945,1.02334499999415,25.8280326,1,90
10,1,2,1.0779249999905,1,0.945630000031088,25.8280326,0,91
10,2,2,0.71259499998996,1,1.48947000002954,28.697814,1,92
10,2,2,0.639859999995679,0.992952843474086,2.09807500004536,28.697814,1,93
10,1,1,0.891319999995176,1,1.48661000002176,25.8280326,1,94
10,2,2,0.754409999994095,1,0.794105000037234,25.8280326,1,95
10,1,1,1.02840999996988,1,1.52225999999791,23.24522934,1,96
11,2,1,1.58299999999962,0,3.59100000000035,66.6666666666667,0,1
11,1,1,1.76800000000003,1,2.92799999999988,74.0740740740741,1,2
11,1,1,1.14400000000023,0.980333706597307,1.93999999999959,74.0740740740741,1,3
11,2,2,2.11999999999991,0,2.04600000000026,66.6666666666667,1,4
11,1,1,1.20899999999983,0.981260355422074,2.35300000000009,66.6666666666667,1,5
11,2,1,3.28300000000038,0,2.06300000000009,60,0,6
11,2,1,2.54300000000058,0.552219851670465,1.66099999999913,66.6666666666667,0,7
11,1,2,1.98199999999997,0,1.89800000000015,74.0740740740741,0,8
11,1,1,2.67699999999968,0.027210884353741,1.9989999999998,82.3045267489712,1,9
11,2,2,3.36700000000023,0.139025161293886,1.95499999999988,82.3045267489712,1,10
11,2,1,1.76800000000006,0,1.77599999999983,74.0740740740741,0,11
11,1,1,2.46499999999924,0.427314782797286,1.866,82.3045267489712,1,12
11,2,2,1.93900000000029,0,1.442,82.3045267489712,1,13
11,1,1,1.67999999999936,0.584779661835131,1.51900000000023,74.0740740740741,1,14
11,2,2,3.21699999999965,0.576592927617368,1.7400000000007,74.0740740740741,1,15
11,1,1,1.50900000000006,0.668921572254492,1.31599999999977,66.6666666666667,1,16
11,1,1,1.59699999999977,0.776517462236801,1.58799999999977,66.6666666666667,1,17
11,2,2,3.08500000000006,0,1.93699999999988,60,1,18
11,2,1,1.91600000000017,0.046278078564052,1.74300000000041,60,0,19
11,1,1,1.61099999999988,0.932618423155791,1.54399999999988,66.6666666666667,1,20
11,2,1,2.81599999999983,0.816543614166788,1.08199999999942,66.6666666666667,0,21
11,1,2,1.43600000000064,0.104485155955072,1.47899999999936,74.0740740740741,0,22
11,1,1,2.22199999999977,0.566618074137792,1.61700000000017,82.3045267489712,1,23
11,2,2,1.61700000000017,0.08235299805778,1.77099999999977,82.3045267489712,1,24
11,1,1,1.28099999999994,0.953922099879464,1.884,74.0740740740741,1,25
11,2,2,2.37900000000081,0.0585999033328,1.82399999999965,74.0740740740741,1,26
11,1,1,1.22600000000058,0.741496598639455,1.48899999999953,66.6666666666667,1,27
11,2,2,3.56599999999983,0.514618019949781,1.45300000000041,66.6666666666667,1,28
11,2,2,1.47199999999971,0.627564160209911,2.56500000000052,60,1,29
11,1,1,2.15899999999965,0.520922528619213,1.41899999999988,60,1,30
11,1,1,1.04599999999936,0.654310317022598,1.75600000000035,54,1,31
11,2,2,2.86799999999948,0.605565852488439,1.21900000000006,54,1,32
11,1,1,2.09999999999948,0.769950416707202,1.53099999999994,48.6,1,33
11,2,2,2.25100000000017,0.703336830665229,1.35400000000029,48.6,1,34
11,2,2,2.42299999999977,0.721409764015894,1.33700000000047,43.74,1,35
11,1,1,2.17099999999936,0.68877377126538,1.4140000000007,43.74,1,36
11,1,2,1.75600000000029,0.13279999441299,1.87100000000012,39.366,0,37
11,2,2,2.63000000000012,0.582837298127596,1.83699999999953,43.74,1,38
11,2,1,1.42200000000052,0.192759085266503,1.92900000000006,43.74,0,39
11,1,2,1.62200000000035,0.126688608927332,2.32300000000029,48.6,0,40
11,1,2,2.06400000000029,0.598015090061422,1.54,54,0,41
11,2,2,2.0679999999993,0.642761427747789,1.451,60,1,42
11,2,2,1.34000000000017,0.61831840711289,1.64100000000052,60,1,43
11,1,2,1.46299999999971,0.541822456603327,1.40700000000017,54,0,44
11,1,2,1.94499999999971,0.596420570715491,1.59000000000012,60,0,45
11,2,2,1.85000000000041,0.582454581510848,1.2109999999993,66.6666666666667,1,46
11,1,1,2.86700000000017,0.584557031079091,1.22800000000006,66.6666666666667,1,47
11,2,2,1.6820000000007,0.752444014899395,1.59400000000006,60,1,48
11,1,2,1.55000000000017,0.785159685865847,1.54399999999988,60,0,49
11,2,1,1.52499999999959,0.128058608867209,2.06099999999971,66.6666666666667,0,50
11,2,2,2.96599999999942,0.515637825324085,2.19400000000047,74.0740740740741,1,51
11,1,1,1.31000000000035,0.210164101913717,1.86399999999953,74.0740740740741,1,52
11,2,2,1.799,0.66849390761065,1.84099999999942,66.6666666666667,1,53
11,1,1,2.26299999999988,0.639012000718073,1.585,66.6666666666667,1,54
11,1,2,2.64400000000023,0.569969354962162,1.30400000000012,60,0,55
11,2,2,1.33999999999919,0.620807006515577,1.781,66.6666666666667,1,56
11,2,1,1.14800000000012,0.22737591358334,2.00499999999919,66.6666666666667,0,57
11,1,1,2.04600000000035,0.56279197169469,1.4029999999993,74.0740740740741,1,58
11,1,1,2.52300000000012,0.532636276860212,1.29499999999919,74.0740740740741,1,59
11,2,2,1.40899999999965,0.021538040457068,1.75200000000035,66.6666666666667,1,60
11,2,2,1.56399999999942,0.641198886216267,1.65900000000047,66.6666666666667,1,61
11,1,1,1.74700000000023,0.619442317589893,1.76400000000012,60,1,62
11,2,2,1.317,0.116182758702854,1.63799999999988,60,1,63
11,1,2,2.55199999999977,0.067147605992287,1.51199999999965,54,0,64
11,1,1,2.03200000000012,0.158388977217476,1.50299999999977,60,1,65
11,2,2,1.31300000000012,0.012566798078855,1.66899999999988,60,1,66
11,2,2,1.56399999999942,0.493260937554337,1.56100000000058,54,1,67
11,1,2,1.73800000000035,0.435374149659863,1.37899999999988,54,0,68
11,2,1,2.05400000000012,0.046155700536732,1.99699999999942,60,0,69
11,1,2,1.80900000000012,0.034536119869459,1.62700000000047,66.6666666666667,0,70
11,2,2,2.32099999999988,0.484322752196795,1.268,74.0740740740741,1,71
11,1,1,2.134,0.462737884855947,1.32399999999965,74.0740740740741,1,72
11,2,2,1.81999999999965,0.538264775323155,3.29600000000035,66.6666666666667,1,73
11,1,1,1.73200000000081,0.323811507105918,1.75799999999988,66.6666666666667,1,74
11,2,2,1.47699999999988,0.577492883382585,2.23000000000047,60,1,75
11,1,1,1.30299999999988,0.061337837004131,1.64800000000023,60,1,76
11,2,2,1.72999999999953,0.625368580600763,1.70200000000023,54,1,77
11,1,1,1.49600000000012,0.024467671785698,1.55699999999988,54,1,78
11,2,2,2.33100000000012,0,1.4119999999993,48.6,1,79
11,1,1,2.156,0.006338178227627,1.46699999999965,48.6,1,80
11,1,2,1.40200000000012,0.448979591836734,1.73400000000035,43.74,0,81
11,2,2,2.16299999999953,0.545159992339246,1.88100000000035,48.6,1,82
11,2,1,1.31500000000047,0.035187106507515,1.76900000000023,48.6,0,83
11,1,2,2.13000000000012,0,1.48599999999988,54,0,84
11,2,2,2.05699999999988,0.617223277467397,1.59700000000058,60,1,85
11,1,1,1.78300000000035,0,1.83,60,1,86
11,1,1,1.9159999999993,0.419962688214232,1.612,54,1,87
11,2,2,1.82200000000012,0.344143573580828,1.48599999999977,54,1,88
11,1,1,1.88299999999977,0.402422433397326,2.60300000000012,48.6,1,89
11,2,2,2.031,0,1.54800000000058,48.6,1,90
11,1,1,1.3399999999993,0.541281528531952,2.23100000000058,43.74,1,91
11,2,2,1.46799999999988,0.104765642492534,1.661,43.74,1,92
11,1,1,1.51599999999965,0.488771022663458,1.37300000000047,39.366,1,93
11,2,2,1.49300000000047,0.025570318410067,1.91200000000023,39.366,1,94
11,2,2,1.75500000000012,0.338264073743861,1.45300000000047,35.4294,1,95
11,1,1,1.25500000000012,0.14196491721712,1.28600000000012,35.4294,1,96
12,1,1,0.725189999968279,0.994967865417963,0.942505000042729,48.6,1,1
12,2,2,0.560965000011493,1,0.831874999974389,48.6,1,2
12,1,1,0.478600000031292,1,0.581704999960493,43.74,1,3
12,2,2,0.476444999978412,0.949334504801342,0.471964999975171,43.74,1,4
12,1,1,0.505844999977853,1,0.670305000036024,39.366,1,5
12,2,2,0.502054999989923,1,0.692909999983385,39.366,1,6
12,1,1,0.572925000044052,1,0.708224999951199,35.4294,1,7
12,2,2,0.531950000033248,1,1.20488499995554,35.4294,1,8
12,1,1,0.547859999991488,1,0.731510000012349,31.88646,1,9
12,2,2,0.630709999997634,1,1.16318999999203,31.88646,1,10
12,1,1,0.484715000027791,1,0.773749999993015,28.697814,1,11
12,2,2,0.502674999996088,1,0.965000000025611,28.697814,1,12
12,2,2,0.717645000026096,1,1.3028199999826,25.8280326,1,13
12,1,1,0.61543000000529,1,5.4343499999959,25.8280326,1,14
12,2,2,0.605964999995194,1,0.807664999971166,23.24522934,1,15
12,1,1,0.587540000036824,1,2.42091499996604,23.24522934,1,16
12,1,1,1.23187999997754,1,1.54981499997666,20.920706406,1,17
12,2,2,0.806724999973085,1,0.82107000000542,20.920706406,1,18
12,1,1,0.475035000010394,1,0.841760000039358,18.8286357654,1,19
12,2,2,0.482980000029784,1,0.687754999962635,18.8286357654,1,20
12,1,1,0.507760000007693,1,0.803725000005215,16.94577218886,1,21
12,2,1,1.46371500001987,0.731629940964791,2.67290000000503,16.94577218886,0,22
12,1,1,0.540385000000242,1,0.733104999992065,18.8286357654,1,23
12,2,2,0.486570000008214,1,0.605329999991227,18.8286357654,1,24
12,1,1,0.894904999993742,1,0.595874999999069,16.94577218886,1,25
12,2,1,1.71209499996621,0.450346377050112,2.04898500000127,16.94577218886,0,26
12,1,1,0.776219999999739,1,0.85025499999756,18.8286357654,1,27
12,2,2,0.604950000008103,1,0.611919999995735,18.8286357654,1,28
12,1,1,0.509589999972377,1,0.601810000021942,16.94577218886,1,29
12,2,2,0.695384999969974,1,0.588675000006333,16.94577218886,1,30
12,1,1,0.566180000023451,0.983111365235405,0.577764999994542,15.251194969974,1,31
12,2,2,0.589199999987613,1,0.603564999997616,15.251194969974,1,32
12,1,1,1.0372099999804,1,0.724950000003446,13.7260754729766,1,33
12,2,2,0.560469999967609,1,0.540905000001658,13.7260754729766,1,34
12,2,1,0.839399999997113,0.891178839714903,2.45683499996085,12.3534679256789,0,35
12,1,1,1.67090000002645,0.628614619242277,1.27003999997396,13.7260754729766,1,36
12,1,1,0.711919999972451,1,0.562810000032187,13.7260754729766,1,37
12,2,2,0.469819999998435,1,0.60080499999458,12.3534679256789,1,38
12,1,1,0.58752000000095,0.872390579343442,1.71885000000475,12.3534679256789,1,39
12,2,2,0.549784999981057,1,0.610970000037923,11.1181211331111,1,40
12,2,2,0.745189999986906,1,0.734829999972135,11.1181211331111,1,41
12,1,2,1.37952999997651,0.103735632114174,1.47701999999117,10.0063090197999,0,42
12,1,1,0.696085000003222,0.89775908440669,1.11801999999443,11.1181211331111,1,43
12,2,2,0.654939999978524,0.854269554327486,1.04503999999724,11.1181211331111,1,44
12,1,1,0.628985000017565,1,0.612625000008848,10.0063090197999,1,45
12,2,2,0.653549999988172,1,0.595680000027642,10.0063090197999,1,46
12,2,2,0.625434999994468,1,0.559760000032838,9.00567811781995,1,47
12,1,1,0.683825000014622,1,0.571929999976419,9.00567811781995,1,48
12,2,1,0.902514999965206,0.636878333219286,0.900175000017043,8.10511030603796,0,49
12,1,2,1.17901000002166,0.413886461649255,1.60161499999231,9.00567811781995,0,50
12,1,1,0.713149999966845,0.846628981137739,1.84497000003466,10.0063090197999,1,51
12,2,2,0.518839999975171,1,0.683669999998529,10.0063090197999,1,52
12,1,1,0.734094999963418,1,0.610755000030622,9.00567811781995,1,53
12,2,2,0.532189999998081,1,0.587944999977481,9.00567811781995,1,54
12,2,2,0.90490999998292,0.816423018256938,1.16084500000579,8.10511030603796,1,55
12,1,2,2.6685399999842,0,0.932425000006333,8.10511030603796,0,56
12,1,2,1.35291500005405,0.231786933687465,1.16124499996658,9.00567811781995,0,57
12,2,2,0.754309999989346,0.82881339999784,1.21843000000808,10.0063090197999,1,58
12,1,2,1.24522500002058,0.46938775510204,0.807884999958333,10.0063090197999,0,59
12,2,2,0.645569999993313,1,0.516789999965113,11.1181211331111,1,60
12,2,1,3.03360999998404,0.326284072097052,2.24401500000386,11.1181211331111,0,61
12,1,1,1.28341500001261,0.263032214698674,1.307845000003,12.3534679256789,1,62
12,2,2,0.797089999949094,0.828575239612181,0.703930000017863,12.3534679256789,1,63
12,1,1,0.650034999998752,0.87539454671121,0.604575000004843,11.1181211331111,1,64
12,1,1,1.30421499995282,0.854826323267908,1.14987000002293,11.1181211331111,1,65
12,2,2,0.571175000048243,1,1.05275499995332,10.0063090197999,1,66
12,1,1,0.764604999974836,1,1.19099999999162,10.0063090197999,1,67
12,2,2,0.676010000053793,1,0.761944999976549,9.00567811781995,1,68
12,1,2,0.730929999961518,0.079249356698156,3.91823000001023,9.00567811781995,0,69
12,2,2,1.67511000001105,1,1.66353499999968,10.0063090197999,1,70
12,1,1,1.07994500000495,1,0.887944999965839,10.0063090197999,1,71
12,2,2,1.77079999999842,0.521445203577344,0.656460000027437,9.00567811781995,1,72
12,1,1,1.21718000003602,0.746037530639699,1.72100999997929,9.00567811781995,1,73
12,2,2,0.717534999945201,1,0.520775000040885,8.10511030603796,1,74
12,2,2,0.729705000005197,1,0.613584999984596,8.10511030603796,1,75
12,1,2,1.16694499994628,0.427679900578551,2.24690500000725,7.29459927543416,0,76
12,1,1,0.933329999970738,0.444702663447324,0.724030000041239,8.10511030603796,1,77
12,2,2,0.681184999994002,0.752056265170188,0.648584999958985,8.10511030603796,1,78
12,1,2,0.659250000026077,0.522071871199314,1.25798499997472,7.29459927543416,0,79
12,2,1,0.813475000031758,0.386620101286803,0.711764999956358,8.10511030603796,0,80
12,1,1,1.05465000000549,0,0.767980000004172,9.00567811781995,1,81
12,2,1,3.83413499995368,0.096787958555218,0.591615000041202,9.00567811781995,0,82
12,2,2,0.653684999968391,0.465140216911682,0.708475000050385,10.0063090197999,1,83
12,1,1,0.984500000020489,0.708896783886854,0.953800000017509,10.0063090197999,1,84
12,1,2,0.779410000017378,0.195505581372677,1.21230000001378,9.00567811781995,0,85
12,2,2,1.01034499995876,0.836829171558894,0.728615000029095,10.0063090197999,1,86
12,1,2,0.854359999997541,0.009256324999985,0.531710000010207,10.0063090197999,0,87
12,2,2,1.03710499999579,0.064039541846878,0.471000000019558,11.1181211331111,1,88
12,2,2,0.884989999991376,0,0.597880000015721,11.1181211331111,1,89
12,1,1,0.95257500000298,0,0.672390000021551,10.0063090197999,1,90
12,2,2,0.718239999958314,0.513878551627056,1.08893000002718,10.0063090197999,1,91
12,1,1,1.32464499998605,0.515883748707549,0.986954999971204,9.00567811781995,1,92
12,1,2,1.03986499999883,0.638153307945558,2.4828700000071,9.00567811781995,0,93
12,2,2,0.672190000012051,0.800736918878895,0.946930000034627,10.0063090197999,1,94
12,2,2,0.943100000033155,0.14196491721712,1.13482999999542,10.0063090197999,1,95
12,1,1,1.38577500003157,0,0.557689999986906,9.00567811781995,1,96
13,2,1,1.200495,1,2.15722499999998,82.3045267489712,0,1
13,1,1,1.05260999999975,1,1.54381500000006,91.4494741655236,1,2
13,2,1,1.61184499999997,1,2.98721999999997,91.4494741655236,0,3
13,1,1,1.43204500000004,1,1.59359499999986,101.610526850582,1,4
13,2,1,0.857089999999967,1,1.43090500000014,101.610526850582,0,5
13,1,1,1.01508499999996,1,1.21997000000009,112.900585389535,1,6
13,2,1,1.04710999999999,1,1.19651500000013,112.900585389535,0,7
13,1,1,0.911505000000121,1,1.33201000000001,125.445094877261,1,8
13,1,1,0.924804999999586,1,1.21489000000025,125.445094877261,1,9
13,2,1,0.892620000000112,1,1.25877499999979,112.900585389535,0,10
13,2,1,0.849580000000075,1,1.14757000000007,125.445094877261,0,11
13,1,1,1.19415500000014,1,1.13837999999977,139.383438752513,1,12
13,2,1,1.98245999999973,1,1.56216500000027,139.383438752513,0,13
13,1,1,1.06202499999967,1,1.14085999999999,154.870487502792,1,14
13,1,1,1.15397999999998,1,1.18676500000001,154.870487502792,1,15
13,2,1,0.943249999999767,1,1.0334500000003,139.383438752513,0,16
13,1,1,1.28094999999984,1,1.9796449999999,154.870487502792,1,17
13,2,1,1.43952500000026,1,1.08388000000012,154.870487502792,0,18
13,1,2,1.02177000000025,1,2.07278000000003,172.078319447546,0,19
13,2,1,1.33162999999966,1,1.33102000000014,191.198132719496,0,20
13,2,2,1.44629499999981,1,1.13575500000024,212.442369688329,1,21
13,1,2,0.922695000000182,1,1.84278000000003,212.442369688329,0,22
13,1,1,1.42409499999986,1,1.50469500000007,236.047077431477,1,23
13,2,2,1.91361500000046,1,1.2145499999997,236.047077431477,1,24
13,2,2,1.36781999999995,1,1.55443499999994,212.442369688329,1,25
13,1,1,1.53668500000006,1,1.35838000000012,212.442369688329,1,26
13,2,1,1.22866999999993,1,1.05319500000007,191.198132719496,0,27
13,1,2,0.903989999999758,1,1.26388,212.442369688329,0,28
13,2,1,0.783820000000065,1,1.07651500000025,236.047077431477,0,29
13,1,1,1.85132500000019,1,1.08410499999986,262.274530479418,1,30
13,2,1,0.831160000000149,1,1.42677499999991,262.274530479418,0,31
13,1,1,1.48472500000033,1,1.06806499999994,291.416144977132,1,32
13,1,2,0.948344999999739,1,5.6152649999999,291.416144977132,0,33
13,2,2,1.95091499999992,1,1.01517000000004,323.795716641257,1,34
13,2,2,1.37995000000007,1,1.3025349999998,323.795716641257,1,35
13,1,1,1.33366500000015,1,0.974369999999879,291.416144977132,1,36
13,1,1,1.38524999999977,1,1.12017500000005,291.416144977132,1,37
13,2,1,1.19383499999996,1,0.969974999999977,262.274530479418,0,38
13,1,1,1.46344499999983,1,1.22654500000004,291.416144977132,1,39
13,2,2,1.56236000000034,1,0.984379999999888,291.416144977132,1,40
13,2,1,1.08851000000001,1,1.08341499999969,262.274530479418,0,41
13,1,1,1.52525999999978,1,1.04337500000023,291.416144977132,1,42
13,2,2,1.55206499999983,1,1.44462500000012,291.416144977132,1,43
13,1,1,1.58380500000028,1,0.971274999999907,262.274530479418,1,44
13,2,2,1.5435549999997,1,0.98049000000034,262.274530479418,1,45
13,1,1,1.3129850000001,1,1.13728500000015,236.047077431477,1,46
13,1,1,1.43264500000037,1,1.9871549999998,236.047077431477,1,47
13,2,1,1.32243999999994,1,1.02345999999985,212.442369688329,0,48
13,2,1,0.882219999999972,1,1.55405999999994,236.047077431477,0,49
13,1,1,1.16936500000022,1,0.930804999999935,262.274530479418,1,50
13,1,1,1.22492500000005,1,0.975844999999856,262.274530479418,1,51
13,2,2,1.67432499999995,1,1.20492000000016,236.047077431477,1,52
13,1,1,1.33002499999979,1,1.21286999999988,236.047077431477,1,53
13,2,2,1.60102000000002,1,1.22602999999991,212.442369688329,1,54
13,1,1,1.54053999999992,1,1.20427999999991,212.442369688329,1,55
13,2,1,1.122495,1,1.04180499999993,191.198132719496,0,56
13,1,1,1.27960500000021,1,1.08653999999969,212.442369688329,1,57
13,2,2,1.48239000000013,1,1.54948999999987,212.442369688329,1,58
13,2,1,1.11342000000016,1,1.098375,191.198132719496,0,59
13,1,1,1.2573350000002,1,1.18883499999996,212.442369688329,1,60
13,1,1,1.17477000000002,1,1.0060750000003,212.442369688329,1,61
13,2,1,0.991410000000033,1,1.10590000000002,191.198132719496,0,62
13,2,1,0.963780000000028,1,1.03178000000026,212.442369688329,0,63
13,1,1,1.71386000000034,1,1.05994999999984,236.047077431477,1,64
13,1,1,1.15214000000013,1,1.65370500000019,236.047077431477,1,65
13,2,2,1.40601500000001,1,1.0474600000002,212.442369688329,1,66
13,1,1,1.61542499999993,1,0.810710000000196,212.442369688329,1,67
13,2,1,1.04275999999978,1,0.981470000000205,191.198132719496,0,68
13,2,2,1.33406500000006,1,2.67421999999986,212.442369688329,1,69
13,1,1,1.0554700000002,1,1.03604499999993,212.442369688329,1,70
13,2,1,0.972084999999846,1,4.11556999999995,191.198132719496,0,71
13,1,1,1.11688500000047,1,0.963009999999893,212.442369688329,1,72
13,2,1,0.917304999999935,1,0.982155000000144,212.442369688329,0,73
13,1,1,1.32332499999984,1,1.00881999999995,236.047077431477,1,74
13,1,1,1.18606999999972,1,1.09337499999988,236.047077431477,1,75
13,2,2,1.40768000000028,1,1.08512499999953,212.442369688329,1,76
13,2,2,1.30238000000012,1,1.12657999999961,212.442369688329,1,77
13,1,1,0.981260000000009,1,1.1459499999996,191.198132719496,1,78
13,2,1,0.994594999999623,1,1.20954500000062,191.198132719496,0,79
13,1,1,1.09491499999969,1,0.971400000000373,212.442369688329,1,80
13,2,1,0.796589999999967,1,2.03385499999963,212.442369688329,0,81
13,1,1,1.33409000000032,1,1.08184999999951,236.047077431477,1,82
13,2,1,1.14557999999949,1,1.23571500000067,236.047077431477,0,83
13,1,1,1.27552500000002,1,0.924745000000345,262.274530479418,1,84
13,2,2,1.75137499999977,1,1.01774000000022,262.274530479418,1,85
13,1,1,1.53103499999992,1,1.03235500000033,236.047077431477,1,86
13,2,2,1.32296000000043,1,1.08033499999961,236.047077431477,1,87
13,1,2,0.955264999999548,1,1.20582500000007,212.442369688329,0,88
13,1,1,1.56009999999963,1,1.29331499999994,236.047077431477,1,89
13,2,2,1.63857999999984,1,1.0221100000008,236.047077431477,1,90
13,1,1,1.16481000000017,1,1.06293499999994,212.442369688329,1,91
13,2,1,1.03354000000027,1,1.11149000000022,212.442369688329,0,92
13,1,1,1.3729249999997,1,1.47964500000037,236.047077431477,1,93
13,2,2,1.58834999999998,1,0.972470000000671,236.047077431477,1,94
13,2,2,1.22656499999994,1,1.50076500000071,212.442369688329,1,95
13,1,1,0.934770000000834,1,0.929619999999879,212.442369688329,1,96
14,1,2,2.027,0,1.856,60,0,1
14,2,2,1.684,0.911827924115316,1.858,66.6666666666667,1,2
14,1,1,2.355,0,1.576,66.6666666666667,1,3
14,2,2,1.528,0.839470857479439,1.404,60,1,4
14,2,1,1.933,0,1.482,60,0,5
14,1,1,1.637,0.775913239855903,1.077,66.6666666666667,1,6
14,1,2,1.809,0,1.841,66.6666666666667,0,7
14,2,1,2.792,0,1.248,74.0740740740741,0,8
14,2,2,1.606,0.740370816668669,1.076,82.3045267489712,1,9
14,1,1,1.216,0.91609734543075,2.308,82.3045267489712,1,10
14,1,2,1.699,0,1.451,74.0740740740741,0,11
14,2,1,2.058,0,1.482,82.3045267489712,0,12
14,1,2,2.089,0,1.233,91.4494741655236,0,13
14,2,2,1.091,0.852713593096086,1.03,101.610526850582,1,14
14,2,2,1.2,0.905953911480777,1.732,101.610526850582,1,15
14,1,1,1.076,0.924996736227329,2.106,91.4494741655236,1,16
14,2,2,2.152,0,1.918,91.4494741655236,1,17
14,1,1,1.357,0.995069539546991,1.809,82.3045267489712,1,18
14,2,1,1.933,0,1.607,82.3045267489712,0,19
14,1,1,1.372,0.935003906475202,2.402,91.4494741655236,1,20
14,2,2,1.262,0.975771689311263,2.028,91.4494741655236,1,21
14,1,1,1.154,0.955671736816518,2.325,82.3045267489712,1,22
14,2,2,1.902,0,1.701,82.3045267489712,1,23
14,1,1,2.308,0.000646415712442,1.17,74.0740740740741,1,24
14,2,2,1.653,0,1.154,74.0740740740741,1,25
14,1,2,2.183,0,1.201,66.6666666666667,0,26
14,1,1,1.154,0.97328676473435,2.355,74.0740740740741,1,27
14,2,1,1.762,0,1.669,74.0740740740741,0,28
14,1,1,1.294,0.953922099879464,2.714,82.3045267489712,1,29
14,2,2,1.653,0.066706419057814,1.123,82.3045267489712,1,30
14,1,2,1.793,0,1.311,74.0740740740741,0,31
14,2,2,1.044,0.921502433502473,2.184,82.3045267489712,1,32
14,2,2,1.777,0,1.904,82.3045267489712,1,33
14,1,1,2.51,0,1.28,74.0740740740741,1,34
14,2,2,1.06,0.925018404240908,1.482,74.0740740740741,1,35
14,1,1,0.998,0.929925717890996,1.794,66.6666666666667,1,36
14,2,2,0.951,0.936055279614657,1.389,66.6666666666667,1,37
14,1,1,1.637,0,1.56,60,1,38
14,2,1,1.871,0,2.465,60,0,39
14,1,1,0.998,0.947702009651795,1.388,66.6666666666667,1,40
14,2,2,1.497,0,1.404,66.6666666666667,1,41
14,1,1,1.262,0.594603005870348,1.701,60,1,42
14,2,2,1.762,0,2.106,60,1,43
14,1,2,1.528,0,1.576,54,0,44
14,2,1,1.668,0,1.388,60,0,45
14,1,2,1.559,0,1.108,66.6666666666667,0,46
14,1,1,1.887,0.01360544217687,1.591,74.0740740740741,1,47
14,2,2,1.653,0,1.404,74.0740740740741,1,48
14,1,1,1.232,1,2.121,66.6666666666667,1,49
14,2,2,1.591,0.980107076137358,1.248,66.6666666666667,1,50
14,1,1,1.762,0,1.17,60,1,51
14,2,2,1.325,0.988687124540503,2.621,60,1,52
14,2,1,1.325,0,2.06,54,0,53
14,1,2,2.09,0,1.341,60,0,54
14,2,2,1.185,0.953922099879464,2.075,66.6666666666667,1,55
14,1,1,1.356,0,1.56,66.6666666666667,1,56
14,2,2,1.029,0.97415711714597,2.449,60,1,57
14,1,1,0.982,0.965067855435532,2.075,60,1,58
14,1,1,0.936,0.957439621052694,1.856,54,1,59
14,2,2,1.029,0.824302248436229,1.778,54,1,60
14,2,1,1.325,0,1.888,48.6,0,61
14,1,2,1.34,0,1.233,54,0,62
14,2,1,1.372,0,1.451,60,0,63
14,1,2,1.715,0,1.81,66.6666666666667,0,64
14,2,2,1.419,0.859454037076865,3.307,74.0740740740741,1,65
14,1,1,1.091,0.959036691298487,1.622,74.0740740740741,1,66
14,2,2,1.045,1,2.074,66.6666666666667,1,67
14,1,1,1.044,1,1.592,66.6666666666667,1,68
14,2,2,1.013,1,1.232,60,1,69
14,1,1,1.153,0.977941478952409,2.527,60,1,70
14,2,2,1.606,0,1.654,54,1,71
14,1,1,1.325,0,1.248,54,1,72
14,2,2,1.092,0.959204669322125,1.326,48.6,1,73
14,1,2,2.121,0,1.264,48.6,0,74
14,2,1,1.325,0,1.108,54,0,75
14,1,2,1.622,0,1.529,60,0,76
14,1,1,0.935,0.848987990222274,1.388,66.6666666666667,1,77
14,2,2,1.013,0.887075728573732,1.857,66.6666666666667,1,78
14,1,1,0.982,1,1.341,60,1,79
14,2,2,1.06,1,1.154,60,1,80
14,2,1,2.604,0,1.186,54,0,81
14,1,1,1.044,1,1.716,60,1,82
14,2,2,1.122,0.944642454878506,1.264,60,1,83
14,1,1,0.982,0.96855010168214,1.233,54,1,84
14,1,1,1.092,1,0.998,54,1,85
14,2,2,1.637,0,1.389,48.6,1,86
14,1,2,2.308,0,1.607,48.6,0,87
14,2,2,1.169,1,1.857,54,1,88
14,2,2,3.572,0.268468475043019,1.528,54,1,89
14,1,1,1.107,0.98368661466582,0.967,48.6,1,90
14,2,2,0.982,1,2.028,48.6,1,91
14,1,1,1.107,0.855938930053255,1.092,43.74,1,92
14,1,2,1.512,0,1.092,43.74,0,93
14,2,2,1.153,1,1.358,48.6,1,94
14,1,1,1.372,0,1.107,48.6,1,95
14,2,1,1.544,0,1.372,43.74,0,96
15,2,1,0.954339999996591,0.325148314634472,3.28078500000993,66.6666666666667,0,1
15,1,1,0.849830000021029,0.125138987803975,2.02223499998217,74.0740740740741,1,2
15,2,2,1.23877500003437,0.13279999441299,2.75,74.0740740740741,1,3
15,1,1,0.791955000022426,0.524364616883767,3.36391499999445,66.6666666666667,1,4
15,2,1,0.840439999999944,0.31701887839879,2.21126499999082,66.6666666666667,0,5
15,1,1,0.942330000048969,0.162660021399804,2.17037999996683,74.0740740740741,1,6
15,1,2,1.52379999996629,0,2.58734999998705,74.0740740740741,0,7
15,2,1,0.668174999998882,0.566226603508211,2.39879000000656,82.3045267489712,0,8
15,1,1,0.738205000001471,0.500962099052018,2.04046499996912,91.4494741655236,1,9
15,2,1,0.923584999982268,0.191584994647125,1.99352999997791,91.4494741655236,0,10
15,1,2,1.82105500000762,0,1.73316499998327,101.610526850582,0,11
15,2,2,2.69535499997437,0.747364103966149,2.63841499999398,112.900585389535,1,12
15,2,1,0.878910000028554,0.598920248899808,1.754654999997,112.900585389535,0,13
15,1,1,1.32438000000548,0.226061139128061,1.87622999999439,125.445094877261,1,14
15,2,1,0.867059999960475,0.536223446302337,1.73700500000268,125.445094877261,0,15
15,1,2,1.36181500001112,0.116450592551645,2.23195000004489,139.383438752513,0,16
15,1,1,1.10967500001425,0.404920330318296,2.28769500000635,154.870487502792,1,17
15,2,2,2.01804500003345,0.827455102784587,2.89018499996746,154.870487502792,1,18
15,1,1,1.58786999998847,0.47764648984987,1.77744500001427,139.383438752513,1,19
15,2,1,0.964625000022352,0,2.53053500002716,139.383438752513,0,20
15,1,1,2.21146000002045,0.700049138481854,2.07398500002455,154.870487502792,1,21
15,2,2,2.59492499998305,1,2.55884000001242,154.870487502792,1,22
15,1,1,2.0147949999664,0.665837338868766,1.66937000001781,139.383438752513,1,23
15,2,2,3.11900000000605,0.917691220161813,2.13159000000451,139.383438752513,1,24
15,1,2,1.47222499997588,0.868211224679685,1.68953000003239,125.445094877261,0,25
15,2,2,1.57818999997107,0.965485467586923,1.75437999999849,139.383438752513,1,26
15,1,1,1.76842500001658,0.536904570434601,2.20978999999352,139.383438752513,1,27
15,2,2,1.72323000000324,0.795129314456771,2.64898499997798,125.445094877261,1,28
15,1,1,1.66738999995869,0.697161852540578,1.62824500002898,125.445094877261,1,29
15,2,2,2.05150499998126,0.657352233233176,1.94497000001138,112.900585389535,1,30
15,2,2,1.55459499999415,0.624012009308405,1.71436000004178,112.900585389535,1,31
15,1,1,2.04803000000538,0.399699847118106,1.7240200000233,101.610526850582,1,32
15,2,1,2.59583500004373,0.064039541846878,1.69277500000317,101.610526850582,0,33
15,1,2,1.42827500001295,0.802427400189976,1.70425000000978,112.900585389535,0,34
15,1,2,1.57515999994939,0.693102898975337,2.0067450000206,125.445094877261,0,35
15,2,2,1.57118999998784,0.608404772368899,1.55408500001067,139.383438752513,1,36
15,1,1,1.65817499998957,0.911827924115316,2.24863499996718,139.383438752513,1,37
15,2,2,1.43669499998214,0.868440050837993,1.73759500001324,125.445094877261,1,38
15,2,2,1.5403149999911,0.872823515964029,1.875,125.445094877261,1,39
15,1,1,1.5563850000035,0.804847606381931,1.93808499997249,112.900585389535,1,40
15,2,2,1.22812499996508,0.71773412793842,1.56245999998646,112.900585389535,1,41
15,1,1,1.25260000000708,1,1.89547500002664,101.610526850582,1,42
15,2,2,1.24768999998923,0.900712200950134,2.39959500002442,101.610526850582,1,43
15,1,1,1.32674000004772,0.772886147833994,1.6053649999667,91.4494741655236,1,44
15,1,1,1.26889499998651,0.871387279759203,1.61295999999857,91.4494741655236,1,45
15,2,2,1.26804499997525,0.956156083088674,1.66090000001714,82.3045267489712,1,46
15,2,2,1.18683000002056,0.946789292235502,1.57011000002967,82.3045267489712,1,47
15,1,1,1.09976999997161,0.899203382433145,1.55885000003036,74.0740740740741,1,48
15,1,1,1.57766999996966,0.397306327377015,1.8423049999983,74.0740740740741,1,49
15,2,2,1.14175999996951,0.860930399569019,2.37061500002164,66.6666666666667,1,50
15,2,2,1.26816999999573,0.874030207077147,1.60161000001244,66.6666666666667,1,51
15,1,1,1.28190000000177,0.84074199246804,2.23394999996526,60,1,52
15,1,2,1.16598499997053,0.805360189313412,1.57546000002185,60,0,53
15,2,2,2.0851449999609,0.748481053287575,1.82988500001375,66.6666666666667,1,54
15,1,1,0.683924999961164,0.398803516663792,1.68744499998866,66.6666666666667,1,55
15,2,1,1.5734850000008,0.837041713036639,1.98208500002511,60,0,56
15,2,2,1.36758999997983,0.753373929797477,1.59039000002667,66.6666666666667,1,57
15,1,1,0.963500000012573,0.569092389490302,2.01185499998974,66.6666666666667,1,58
15,1,2,1.88059999997495,0.770330568410875,1.73040000000037,60,0,59
15,2,2,1.33421000000089,0.559966341131533,1.68723500001943,66.6666666666667,1,60
15,2,2,1.69196000002557,0.472591767520192,1.73020499997074,66.6666666666667,1,61
15,1,1,1.25972999999067,0.048104338062832,2.04040500003612,60,1,62
15,2,2,1.15807000000495,0.606214814474327,1.93288000003668,60,1,63
15,1,1,0.97009999997681,0.314496226230519,2.47357000003103,54,1,64
15,2,1,2.29576499998802,0.048709222317397,1.93507499998668,54,0,65
15,1,2,1.1237250000122,0.419592560778078,1.8777499999851,60,0,66
15,1,2,1.50401999999303,0.726401787480995,1.72900500003016,66.6666666666667,0,67
15,2,1,1.37795500003267,0.567009328882786,2.53960499999812,74.0740740740741,0,68
15,1,2,1.10933000000659,0.74410917077587,1.66037999995751,82.3045267489712,0,69
15,2,2,2.15763500001049,0.597983857962556,2.23191500001121,91.4494741655236,1,70
15,2,2,1.16258999996353,0.833730275550936,1.64204500004416,91.4494741655236,1,71
15,1,1,0.699075000011362,0.493915342793826,2.0177599999588,82.3045267489712,1,72
15,1,1,1.9549850000185,0.73898124751558,1.83022000000346,82.3045267489712,1,73
15,2,2,1.48453500005417,0.666666666666666,2.83240499999374,74.0740740740741,1,74
15,2,2,1.28994500002591,0.508216931374443,1.59042500000214,74.0740740740741,1,75
15,1,1,0.860525000025518,0.654310317022598,1.78618499997538,66.6666666666667,1,76
15,1,1,1.23674999998184,0.657467887139849,2.11907499999506,66.6666666666667,1,77
15,2,1,1.17590500001097,0.581305218077347,1.57929999998305,60,0,78
15,2,2,0.858835000020918,0.363705828330107,1.71006999997189,66.6666666666667,1,79
15,1,2,2.16042500000913,0.111313492411828,1.96549000003142,66.6666666666667,0,80
15,2,2,1.73612000001594,0.37204189034466,1.83582999999635,74.0740740740741,1,81
15,1,1,1.35422500001732,0.544352381220396,1.97272999997949,74.0740740740741,1,82
15,2,2,1.2403349999804,0.463844901809613,1.73813000001246,66.6666666666667,1,83
15,1,1,0.842010000022128,0.787898306203378,2.05060999997659,66.6666666666667,1,84
15,1,1,2.38436999998521,0.725256430566116,1.76101499999641,60,1,85
15,2,2,1.35577000002377,0.657438975230081,1.57315499999095,60,1,86
15,2,2,1.10115999996196,0.583856890398565,1.68439000000944,54,1,87
15,1,1,0.802439999999478,0.796805259854803,1.8422900000005,54,1,88
15,1,1,2.0194349999656,0.700817412595689,1.68643000000156,48.6,1,89
15,2,2,0.949895000027027,0.598015090061422,1.7747199999867,48.6,1,90
15,1,1,1.39265500003239,0.560854679574149,1.58707499998854,43.74,1,91
15,2,2,1.44685500004562,0.662166649931266,1.69357999996282,43.74,1,92
15,1,1,1.02767999999924,0.81774874057708,1.75168499996653,39.366,1,93
15,2,2,0.99232000001939,0.629573788793972,1.56306999997469,39.366,1,94
15,1,1,1.04249500000151,0.703418859324298,1.60559500003001,35.4294,1,95
15,2,1,1.53864499996416,0.328105413079482,1.99851500004297,35.4294,0,96
16,1,1,1.35657000000356,1,3.33002000000124,48.6,1,1
16,2,2,0.969440000000759,1,0.953574999999546,48.6,1,2
16,1,1,1.26664500000334,1,1.00970499999676,43.74,1,3
16,2,2,0.821230000001378,1,0.833644999998796,43.74,1,4
16,2,2,1.247709999996,1,0.620990000003076,39.366,1,5
16,1,1,0.781835000001593,1,0.644335000004503,39.366,1,6
16,1,2,0.939650000000256,1,0.941354999995383,35.4294,0,7
16,2,2,1.80852500000037,1,1.00132499999745,39.366,1,8
16,1,2,1.66442500000267,1,1.24317999999766,39.366,0,9
16,2,2,1.11002000000008,1,0.804759999999078,43.74,1,10
16,1,2,1.19406500000332,1,0.997869999999239,43.74,0,11
16,2,2,1.42405499999586,1,1.02209000000585,48.6,1,12
16,2,2,1.24426500000118,1,1.7578399999984,48.6,1,13
16,1,1,1.2956650000051,0.198975361262615,1.16973499999585,43.74,1,14
16,1,2,1.57452499999636,1,1.38966000000073,43.74,0,15
16,2,2,1.10801499999798,1,1.18199000000459,48.6,1,16
16,1,1,0.908815000002505,1,1.10579000000143,48.6,1,17
16,2,2,1.01686499999778,1,1.3116200000004,43.74,1,18
16,2,2,1.35847500000091,0.643968057591995,1.88040000000183,43.74,1,19
16,1,1,0.906884999996691,1,1.05236999999761,39.366,1,20
16,1,1,1.06991500000004,1,1.15937000000122,39.366,1,21
16,2,2,0.922879999998258,0.717545900065226,1.68970999999874,35.4294,1,22
16,1,2,1.46768000000156,0.386620101286803,2.72810500000196,35.4294,0,23
16,2,2,1.06125500000053,0.394040912173486,1.91448999999557,39.366,1,24
16,2,2,0.96565499999997,0.891961734411233,1.85374999999476,39.366,1,25
16,1,2,2.01381499999843,0.877324237837684,1.19840999999724,35.4294,0,26
16,1,1,0.855105000002368,1,1.19374000000244,39.366,1,27
16,2,2,1.14552499999991,0.340327642369517,1.72068500000023,39.366,1,28
16,2,2,1.15825999999652,0.899203382433145,1.4404149999973,35.4294,1,29
16,1,1,0.878754999997909,0.854640768151015,1.98251000000164,35.4294,1,30
16,1,1,0.842785000000731,0.866355820636102,2.48694499999692,31.88646,1,31
16,2,2,1.29867500000546,0.373881061628107,1.55229999999574,31.88646,1,32
16,2,2,0.7432900000058,1,1.00387999999657,28.697814,1,33
16,1,1,0.793959999995423,1,0.800265000005311,28.697814,1,34
16,1,1,2.52556000000186,0.077890894416162,1.53737499999988,25.8280326,1,35
16,2,2,1.13328000000183,0.717626574195477,1.13171499999589,25.8280326,1,36
16,1,1,0.739965000000666,1,0.923685000001569,23.24522934,1,37
16,2,2,1.57192999999825,0.057216886664663,1.54151000000275,23.24522934,1,38
16,2,2,1.06141499999649,0.560591585136528,1.13069499999983,20.920706406,1,39
16,1,1,0.725860000005923,0.868943286223717,2.01033499999903,20.920706406,1,40
16,1,1,0.89596999999776,0.510522881370698,2.46604500000103,18.8286357654,1,41
16,2,2,1.01477000000159,0.532807526303886,1.66724000000249,18.8286357654,1,42
16,1,1,0.730369999997492,0.459058751788398,2.07259500000509,16.94577218886,1,43
16,2,2,0.704990000005637,0.502362215041054,1.40348999999696,16.94577218886,1,44
16,1,2,1.56709499999852,0.01226876531961,2.47939000000042,15.251194969974,0,45
16,2,2,1.12675000000309,0.774325262259546,1.91836999999941,16.94577218886,1,46
16,1,1,2.51151000000391,0,3.39314999999624,16.94577218886,1,47
16,2,2,0.788675000003423,0.689691425571808,1.36974499999633,15.251194969974,1,48
16,2,2,0.749475000004168,1,0.926834999998391,15.251194969974,1,49
16,1,2,1.49211500000092,0.798674844995698,1.42695500000264,13.7260754729766,0,50
16,2,1,1.6927549999964,0.030578895020162,1.35225999999966,15.251194969974,0,51
16,1,1,1.41443500000605,1,0.800689999996393,16.94577218886,1,52
16,2,2,0.89031999999861,0.179824251037589,1.9077099999995,16.94577218886,1,53
16,1,2,0.999824999998964,0,1.52728999999817,15.251194969974,0,54
16,1,2,1.82866500000091,0,2.04197500000009,16.94577218886,0,55
16,2,2,1.32568500000343,0.648279139429456,2.00944500000332,18.8286357654,1,56
16,2,2,1.35854999999719,1,0.973409999998694,18.8286357654,1,57
16,1,1,0.802804999999353,1,0.922890000001644,16.94577218886,1,58
16,2,2,0.877054999997199,0.59692118205681,1.86591000000044,16.94577218886,1,59
16,1,1,1.360004999995,0.296800779103578,1.60118000000512,15.251194969974,1,60
16,1,1,1.64446499999758,0.146558467839219,2.26714000000356,15.251194969974,1,61
16,2,2,0.829095000000962,0.780034208538368,1.54579000000376,13.7260754729766,1,62
16,1,1,1.11048499999742,0,2.08832500000426,13.7260754729766,1,63
16,2,2,1.28945999999996,0,0.977449999998498,12.3534679256789,1,64
16,1,2,1.26520999999775,0,3.49956999999995,12.3534679256789,0,65
16,2,2,1.05424499999936,0,1.28904499999771,13.7260754729766,1,66
16,1,1,0.854119999996328,0.645378350345088,1.20231500000227,13.7260754729766,1,67
16,2,2,0.737189999999828,0.642260573945769,2.010970000003,12.3534679256789,1,68
16,1,1,0.97473500000342,0.398675348347248,2.351324999996,12.3534679256789,1,69
16,2,2,0.697035000004689,0.539588364842691,1.13289000000077,11.1181211331111,1,70
16,1,1,0.943709999999555,0.464759528526873,1.48380000000179,11.1181211331111,1,71
16,2,2,1.42555999999604,0.049673084327685,1.11734500000603,10.0063090197999,1,72
16,1,1,0.873914999996487,0,1.20928999999887,10.0063090197999,1,73
16,2,2,0.894925000000512,0,2.40322499999456,9.00567811781995,1,74
16,1,1,1.79014499999903,0,1.38599500000419,9.00567811781995,1,75
16,2,2,1.26436999999714,0,2.69213500000478,8.10511030603796,1,76
16,1,1,1.66337999999814,0.838103729665945,1.28758999999991,8.10511030603796,1,77
16,2,2,0.848269999994955,0.259137053134534,2.34919000000082,7.29459927543416,1,78
16,1,2,1.83931999999913,0.889230214403725,2.05390500000061,7.29459927543416,0,79
16,2,2,0.890155000000959,0.570131637604633,1.58221000000043,8.10511030603796,1,80
16,2,2,0.729310000002384,0.684729595958941,1.34384999999753,8.10511030603796,1,81
16,1,1,2.02406999999948,0.458597277740509,1.30081000000064,7.29459927543416,1,82
16,1,1,1.90825000000035,0.031377530270281,1.50386000000441,7.29459927543416,1,83
16,2,2,0.689059999997029,0.941851613544351,1.66976000000432,6.56513934789075,1,84
16,2,2,0.722444999999483,0.768631329949315,1.15397500000102,6.56513934789075,1,85
16,1,2,0.759895000002813,0.174254748865487,1.52652500000119,5.90862541310167,0,86
16,2,1,1.44394499999913,0,1.41719500000181,6.56513934789075,0,87
16,1,1,1.00668500000029,0,2.2192950000026,7.29459927543416,1,88
16,2,2,1.00739500000048,0.605442176870748,2.00333500000124,7.29459927543416,1,89
16,1,2,0.787570000000298,0.446315059106792,1.96516999999597,6.56513934789075,0,90
16,1,2,0.781869999998831,0.341475578539525,3.31538000000012,7.29459927543416,0,91
16,2,2,0.757059999996214,0.813983726395496,2.07456000000087,8.10511030603796,1,92
16,2,2,0.729890000002342,1,0.967850000000908,8.10511030603796,1,93
16,1,1,2.49673000000627,0,1.48229999999597,7.29459927543416,1,94
16,2,2,1.72576999999722,0.835623897802061,1.97051500000083,7.29459927543416,1,95
16,1,1,1.47881500000227,0.627323854120763,2.69000999999838,6.56513934789075,1,96
17,1,1,1.794,0.69906032733176,1.267,48.6,1,1
17,2,2,0.764,0.811198721565028,1.006,48.6,1,2
17,1,1,2.314,0,1.325,43.74,1,3
17,2,2,1.24,0.546873026157092,1.051,43.74,1,4
17,1,1,1.016,0.666923871562067,1.296,39.366,1,5
17,2,2,1.017,0,1.812,39.366,1,6
17,1,1,1.059,0.836002182662532,1.932,35.4294,1,7
17,2,2,0.971,0.741601249694966,0.947,35.4294,1,8
17,2,2,2.876,0.048104338062832,2.01,31.88646,1,9
17,1,1,1.208,0.702899210118269,1.1,31.88646,1,10
17,1,2,1.255,0.456130078331428,0.945,28.697814,0,11
17,2,2,2.322,0.180540525823257,2.246,31.88646,1,12
17,1,1,1.019,0.620140130220949,1.069,31.88646,1,13
17,2,2,1.121,0.513737606095981,1.113,28.697814,1,14
17,1,1,1.186,0,1.631,28.697814,1,15
17,2,2,0.996,0.217943689963976,1.113,25.8280326,1,16
17,2,2,0.813,0.735510878452733,0.877,25.8280326,1,17
17,1,1,1.201,0.25380625135002,1.877,23.24522934,1,18
17,2,2,0.801,0.436453574314116,0.901,23.24522934,1,19
17,1,2,0.95,0.105418878787682,1.263,20.920706406,0,20
17,1,1,1.876,0.182324310278016,1.466,23.24522934,1,21
17,2,2,0.934,0.342763763199312,1.274,23.24522934,1,22
17,1,1,1.751,0.055474554246438,1.259,20.920706406,1,23
17,2,2,1.012,0.334546559442795,1.13,20.920706406,1,24
17,2,1,2.018,0,1.502,18.8286357654,0,25
17,1,2,1.195,0.326579904737037,1.273,20.920706406,0,26
17,1,1,1.456,0,1.029,23.24522934,1,27
17,2,2,1.022,0.16694687174791,1.196,23.24522934,1,28
17,2,2,1.35,0.309408711254276,1.133,20.920706406,1,29
17,1,1,1.868,0.129591624414976,1.543,20.920706406,1,30
17,2,2,0.941,0.313736712776866,2.3,18.8286357654,1,31
17,1,1,1.44,0.115735752499975,1.348,18.8286357654,1,32
17,1,1,1.1,0.237426526785678,1.386,16.94577218886,1,33
17,2,2,0.754,0.483879880613933,1.472,16.94577218886,1,34
17,1,2,1.22,0,1.115,15.251194969974,0,35
17,2,1,1.2,0.16597440715146,0.907,16.94577218886,0,36
17,2,2,1.325,0.115646258503401,1.647,18.8286357654,1,37
17,1,2,3.479,0,1.442,18.8286357654,0,38
17,2,1,1.184,0.262176208070862,0.916,20.920706406,0,39
17,1,1,2.126,0.170068027210884,1.034,23.24522934,1,40
17,1,1,1.745,0,1.214,23.24522934,1,41
17,2,2,0.7,0.333527657143172,0.992,20.920706406,1,42
17,1,2,1.151,0.034013605442176,1.146,20.920706406,0,43
17,2,1,1.627,0.040311728133826,1.958,23.24522934,0,44
17,2,2,0.69,0.44233505217977,1.045,25.8280326,1,45
17,1,2,1.508,0.094751689749292,1.327,25.8280326,0,46
17,2,2,0.984,0.172718734822944,1.102,28.697814,1,47
17,1,2,0.85,0.302656172245794,2.442,28.697814,0,48
17,1,2,1.589,0.309459869656579,1.524,31.88646,0,49
17,2,2,0.804,0.177738004570018,0.981,35.4294,1,50
17,2,2,1.168,0.360728041450931,1.401,35.4294,1,51
17,1,1,1.589,0,1.317,31.88646,1,52
17,1,2,0.901,0.170068027210884,1.108,31.88646,0,53
17,2,1,3.385,0.170363658046839,1.4,35.4294,0,54
17,2,2,0.755,0.124447383733176,1.096,39.366,1,55
17,1,2,0.987,0.283277816690226,1.072,39.366,0,56
17,2,2,6.473,0,1.498,43.74,1,57
17,1,1,2.12,0.36511985585291,1.77,43.74,1,58
17,1,2,1.355,0.090922996971967,1.146,39.366,0,59
17,2,1,4.053,0,1.09,43.74,0,60
17,1,1,1.633,0,1.174,48.6,1,61
17,2,2,0.842,0.071940862637373,1.027,48.6,1,62
17,2,1,1.317,0.08204456129002,1.145,43.74,0,63
17,1,1,1.626,0.388365251846384,1.172,48.6,1,64
17,2,2,1.917,0.687186342458211,0.997,48.6,1,65
17,1,1,1.277,0.459519872306472,1.115,43.74,1,66
17,2,2,0.92,0.298271913928529,1.521,43.74,1,67
17,1,1,1.041,0.636640898537753,1.135,39.366,1,68
17,1,1,0.908,0.432606421294057,1.018,39.366,1,69
17,2,2,0.64,0.676298950938251,2.193,35.4294,1,70
17,2,2,1.2,0.517567613569646,1.969,35.4294,1,71
17,1,2,1.595,0.121312759713572,2.75,31.88646,0,72
17,1,1,1.717,0.470029897565944,1.021,35.4294,1,73
17,2,2,2.456,0.107275868174833,1.456,35.4294,1,74
17,2,2,1.635,0.059402295881884,2.318,31.88646,1,75
17,1,1,0.801,0.134640517746546,1.473,31.88646,1,76
17,1,1,1.933,0.368615203719303,0.994,28.697814,1,77
17,2,2,2.27,0,2.032,28.697814,1,78
17,1,1,1.788,0,1.313,25.8280326,1,79
17,2,1,1.954,0,1.033,25.8280326,0,80
17,1,1,1.1,0.67417769724247,1.279,28.697814,1,81
17,2,1,1.428,0.283332111773526,1.19,28.697814,0,82
17,1,2,1.959,0.132295896818458,1.529,31.88646,0,83
17,2,1,1.108,0.314749117247405,1.645,35.4294,0,84
17,2,2,1.754,0,0.963,39.366,1,85
17,1,1,1.161,0.243223499963611,0.899,39.366,1,86
17,2,2,0.721,0.296326867797795,0.957,35.4294,1,87
17,1,1,1.006,0,1.343,35.4294,1,88
17,1,1,1.423,0.053481220267507,1.467,31.88646,1,89
17,2,1,1.443,0,1.237,31.88646,0,90
17,2,1,1.607,0.077890894416162,1.844,35.4294,0,91
17,1,1,1.574,0.221771245802922,0.901,39.366,1,92
17,2,2,0.703,0.20274519172464,1.116,39.366,1,93
17,1,1,0.846,0.382011474583954,1.374,35.4294,1,94
17,2,2,1.168,0.016390474975777,1.204,35.4294,1,95
17,1,1,1.877,0.106905574839262,1.76,31.88646,1,96
18,1,1,1.6021499999988,1,1.50503000000026,48.6,1,1
18,2,2,2.18375000000017,0,2.62444499999948,48.6,1,2
18,1,1,1.06918500000029,1,2.24953000000096,43.74,1,3
18,2,2,0.886300000000105,1,1.02471499999956,43.74,1,4
